{"condition": 1, "counterbalance": 0, "assignmentId": "a66402186", "workerId": "w17360819", "hitId": "h88670832", "currenttrial": 56, "bonus": 0, "data": [{"uniqueid": "w17360819:a66402186", "current_trial": 0, "dateTime": 1693564659030, "trialdata": {"success": true, "trial_type": "fullscreen", "trial_index": 0, "time_elapsed": 11009, "internal_node_id": "0.0-0.0"}}, {"uniqueid": "w17360819:a66402186", "current_trial": 1, "dateTime": 1693564680182, "trialdata": {"view_history": [{"page_index": 0, "viewing_time": 21103}], "rt": 21106, "trial_id": "exp_instructions_misaligned", "trial_type": "instructions", "trial_index": 1, "time_elapsed": 32163, "internal_node_id": "0.0-1.0"}}, {"uniqueid": "w17360819:a66402186", "current_trial": 2, "dateTime": 1693564897946, "trialdata": {"view_history": [{"page_index": 0, "viewing_time": 80674}, {"page_index": 1, "viewing_time": 72187}, {"page_index": 2, "viewing_time": 22669}, {"page_index": 3, "viewing_time": 42224}], "rt": 217754, "trial_id": "mouselab_instructions_1_misaligned", "trial_type": "instructions", "trial_index": 2, "time_elapsed": 249927, "internal_node_id": "0.0-2.0-1.0"}}, {"uniqueid": "w17360819:a66402186", "current_trial": 3, "dateTime": 1693564939482, "trialdata": {"revealed_states": [], "clicked_states": ["12", "23", "13", "18", "1", "2", "3", "4", "6", "8", "11", "9"], "num_clicks_accrued": [0, 0, 0, 0, 0, 0, 0, 0, 0, 0, 0, 0, 0], "stateRewards": ["", 10, 10, -10, 10, 10, 10, -10, 10, 10, 10, -10, 10, -10, 10, -10, -10, 10, -10, 10, -10, -10, -10, -10, -10, -10, -10, 10, -10, 10, -10, -10, 10, 10], "withholdReward": false, "trial_id": "practice_1", "block": "test", "trialIndex": 0, "score": 27.5, "costs": -6, "simulationMode": [null, null, null, null, null], "rewards": [10, 10, -10, 10, 10], "path": ["0", "0", "1", "2", "3", "4", "6"], "rt": [28701, 555, 326, 180, 73], "actions": ["up", "up", "up", "right", "right"], "actionTimes": [31954, 33061, 33939, 34659, 35279], "queries": {"click": {"state": {"target": ["12", "23", "13", "18", "1", "2", "3", "4", "6", "8", "11", "9"], "time": [5412, 7759, 10258, 12258, 13799, 15879, 17823, 19590, 21386, 23390, 25246, 27250]}, "edge": {"target": [], "time": []}}, "mouseover": {"state": {"target": ["12", "13", "0", "23", "18", "13", "18", "1", "2", "3", "4", "6", "3", "8", "11", "9", "3", "12", "1", "2", "3", "4"], "time": [5162, 6039, 7128, 7463, 9594, 9988, 11323, 13016, 15544, 17529, 19296, 21111, 22929, 23149, 25029, 26927, 28892, 30444, 30678, 31030, 31248, 31529]}, "edge": {"target": [], "time": []}}, "mouseout": {"state": {"target": ["2", "1", "0", "12", "13", "12", "0", "23", "18", "13", "18", "1", "2", "3", "4", "6", "4", "3", "8", "11", "9", "3", "12", "1", "2", "3", "4", "13", "22"], "time": [1107, 1226, 4017, 5926, 6994, 7095, 7308, 8411, 9946, 10977, 12746, 15346, 17303, 19235, 21004, 22778, 22833, 23046, 24863, 26635, 28606, 30285, 30601, 30929, 31145, 31458, 31662, 36695, 36796]}, "edge": {"target": [], "time": []}}}, "displayed_time": "35.80", "trialTime": 39076, "trial_type": "mouselab-mdp", "trial_index": 3, "time_elapsed": 291455, "internal_node_id": "0.0-2.0-2.0-0.0"}}, {"uniqueid": "w17360819:a66402186", "current_trial": 4, "dateTime": 1693564965808, "trialdata": {"revealed_states": [], "clicked_states": ["23", "24", "1", "2", "12", "13", "14", "15", "16"], "num_clicks_accrued": [0, 0, 0, 0, 0, 0, 0, 0, 0, 0, 0, 0, 0], "stateRewards": ["", -10, 10, -10, 10, -10, 10, 10, 10, -10, -10, 10, 10, 10, 10, 10, 10, -10, -10, -10, -10, 10, 10, -10, -10, -10, 10, 10, -10, -10, -10, -10, -10, -10], "withholdReward": false, "trial_id": "practice_2", "block": "test", "trialIndex": 1, "score": 49, "costs": -4.5, "simulationMode": [null, null, null, null, null], "rewards": [10, 10, 10, 10, 10], "path": ["0", "0", "12", "13", "14", "15", "16"], "rt": [16447, 92, 286, 137, 169], "actions": ["right", "right", "right", "up", "up"], "actionTimes": [19484, 20149, 20999, 21698, 22419], "queries": {"click": {"state": {"target": ["23", "24", "1", "2", "12", "13", "14", "15", "16"], "time": [4452, 6083, 7922, 9859, 11456, 12990, 14491, 15970, 17672]}, "edge": {"target": [], "time": []}}, "mouseover": {"state": {"target": ["23", "24", "1", "12", "2", "12", "13", "14", "15", "16", "17"], "time": [4027, 5337, 7677, 9191, 9649, 11103, 12522, 14177, 15605, 17461, 18832]}, "edge": {"target": [], "time": []}}, "mouseout": {"state": {"target": ["0", "23", "24", "1", "12", "2", "12", "13", "14", "15", "16", "17", "14"], "time": [3784, 5065, 7474, 8771, 9357, 10220, 12302, 13973, 15537, 17271, 18468, 23938, 24028]}, "edge": {"target": [], "time": []}}}, "displayed_time": "22.96", "trialTime": 24900, "trial_type": "mouselab-mdp", "trial_index": 4, "time_elapsed": 317783, "internal_node_id": "0.0-2.0-2.0-1.0"}}, {"uniqueid": "w17360819:a66402186", "current_trial": 5, "dateTime": 1693565011602, "trialdata": {"view_history": [{"page_index": 0, "viewing_time": 33331}, {"page_index": 1, "viewing_time": 12434}], "rt": 45767, "trial_id": "mouselab_instructions_2_misaligned", "trial_type": "instructions", "trial_index": 5, "time_elapsed": 363583, "internal_node_id": "0.0-2.0-3.0"}}, {"uniqueid": "w17360819:a66402186", "current_trial": 6, "dateTime": 1693565054684, "trialdata": {"rt": 43062, "response": {"Q0": "The cost for clicking on nodes may vary between nodes.", "Q1": "The better I perform the higher my bonus will be.", "Q2": "No, the amount of cash at each node of the web may be different each time.", "Q3": "To get the highest total score.", "Q4": "Only before moving the spider.", "Q5": "3 seconds"}, "question_order": [0, 1, 2, 3, 4, 5], "correct": {"Q0": "The cost for clicking on nodes may vary between nodes.", "Q1": "The better I perform the higher my bonus will be.", "Q2": "No, the amount of cash at each node of the web may be different each time.", "Q3": "To get the highest total score.", "Q4": "Only before moving the spider.", "Q5": "3 seconds"}, "trial_id": "mouselab_quiz_misaligned", "trial_type": "survey-multi-choice", "trial_index": 6, "time_elapsed": 406665, "internal_node_id": "0.0-2.0-4.0"}}, {"uniqueid": "w17360819:a66402186", "current_trial": 7, "dateTime": 1693565062776, "trialdata": {"rt": 8060, "response": {"Q0": "No"}, "question_order": [0], "trial_id": "repeat_check", "trial_type": "survey-multi-choice", "trial_index": 7, "time_elapsed": 414756, "internal_node_id": "0.0-4.0-0.0"}}, {"uniqueid": "w17360819:a66402186", "current_trial": 8, "dateTime": 1693565073068, "trialdata": {"rt": 10272, "stimulus": "\n<h1> Get ready to start the game! </h1>\n\nThank you for reading the instructions. Get ready start with the 40 rounds of this game.\n<br><br>\nIf you need to take a break, feel free to take one after the end of a round, before continuing to the next one.\n<br><br>\nRemember, the more money the spider gets, the bigger your bonus will be!\n<br><br>\n<div style='text-align: center;'>Press <code>space</code> to begin.</div>\n\n<br><br>\n(If, at any point, the <code>space</code> key does not take you to the next page, click once on the text and try again.)", "response": " ", "trial_id": "mdp_ready", "trial_type": "html-keyboard-response", "trial_index": 8, "time_elapsed": 425049, "internal_node_id": "0.0-6.0-0.0"}}, {"uniqueid": "w17360819:a66402186", "current_trial": 9, "dateTime": 1693565094108, "trialdata": {"revealed_states": [], "clicked_states": [], "num_clicks_accrued": [0, 0, 0, 0, 0, 0, 0, 0, 0, 0, 0, 0, 0], "stateRewards": ["", -2, 3, 8, -9, 59, 41, -50, -1, 82, 66, 33, 2, -2, 7, 8, 1, -38, 12, -16, 24, -37, 67, 1, 4, -2, 5, 35, -83, 28, 8, -27, 69, -64], "withholdReward": false, "trial_id": "mdp_trial_1", "block": "test", "trialIndex": 2, "score": -75, "costs": 0, "simulationMode": [null, null, null, null, null], "rewards": [1, 4, -2, 5, -83], "path": ["0", "0", "23", "24", "25", "26", "28"], "rt": [32, 1623, 466, 214, 476], "actions": ["left", "left", "left", "up", "right"], "actionTimes": [2500, 4198, 5195, 5939, 6969], "queries": {"click": {"state": {"target": [], "time": []}, "edge": {"target": [], "time": []}}, "mouseover": {"state": {"target": [], "time": []}, "edge": {"target": [], "time": []}}, "mouseout": {"state": {"target": ["2", "1", "0", "0"], "time": [577, 727, 17482, 18737]}, "edge": {"target": [], "time": []}}}, "displayed_time": "16.47", "trialTime": 19384, "trial_type": "mouselab-mdp", "trial_index": 9, "time_elapsed": 446087, "internal_node_id": "0.0-6.0-1.0-0.0"}}, {"uniqueid": "w17360819:a66402186", "current_trial": 10, "dateTime": 1693565118128, "trialdata": {"revealed_states": [], "clicked_states": ["12", "13", "14", "23", "24", "25", "1", "2", "3", "4", "6"], "num_clicks_accrued": [0, 0, 0, 0, 0, 0, 0, 0, 0, 0, 0, 0, 0], "stateRewards": ["", -1, 4, -3, 3, 57, -61, 5, -11, 23, -1, 34, -2, -4, -1, -13, 27, 38, -36, 4, -45, 21, 88, 1, -2, -1, 1, -69, -5, -78, -12, -9, 38, -54], "withholdReward": false, "trial_id": "mdp_trial_2", "block": "test", "trialIndex": 3, "score": -64.85, "costs": -6.85, "simulationMode": [null, null, null, null, null], "rewards": [-1, 4, -3, 3, -61], "path": ["0", "0", "1", "2", "3", "4", "6"], "rt": [14203, 309, 231, 148, 126], "actions": ["up", "up", "up", "right", "right"], "actionTimes": [16396, 17262, 18047, 18746, 19409], "queries": {"click": {"state": {"target": ["12", "13", "14", "23", "24", "25", "1", "2", "3", "4", "6"], "time": [3463, 4435, 5184, 6338, 7168, 8084, 9011, 9683, 10399, 11095, 11679]}, "edge": {"target": [], "time": []}}, "mouseover": {"state": {"target": ["0", "12", "12", "13", "14", "0", "23", "23", "24", "25", "1", "2", "3", "4", "6", "11", "8", "8", "3"], "time": [2920, 3068, 3239, 4113, 5001, 5810, 5915, 6148, 6938, 7752, 8865, 9453, 10170, 10863, 11554, 12203, 12450, 13303, 15352]}, "edge": {"target": [], "time": []}}, "mouseout": {"state": {"target": ["0", "0", "12", "12", "13", "14", "13", "12", "0", "23", "23", "24", "25", "1", "2", "3", "4", "6", "4", "11", "8", "8", "3", "1"], "time": [783, 3054, 3096, 3887, 4906, 5654, 5701, 5756, 5860, 5999, 6783, 7563, 8499, 9347, 9918, 10748, 11397, 11949, 12105, 12366, 13082, 15338, 15735, 21337]}, "edge": {"target": [], "time": []}}}, "displayed_time": "19.95", "trialTime": 22336, "trial_type": "mouselab-mdp", "trial_index": 10, "time_elapsed": 470104, "internal_node_id": "0.0-6.0-1.0-1.0"}}, {"uniqueid": "w17360819:a66402186", "current_trial": 11, "dateTime": 1693565138086, "trialdata": {"revealed_states": [], "clicked_states": [], "num_clicks_accrued": [0, 0, 0, 0, 0, 0, 0, 0, 0, 0, 0, 0, 0], "stateRewards": ["", 2, -4, 4, 9, 69, 9, -75, 12, -86, 66, 25, -1, 3, 2, -13, -88, -3, 1, 4, -69, 49, -84, 2, -1, 4, 2, -18, -81, -52, -15, -69, -54, 25], "withholdReward": false, "trial_id": "mdp_trial_3", "block": "test", "trialIndex": 4, "score": -76, "costs": 0, "simulationMode": [null, null, null, null, null], "rewards": [-1, 3, 2, 4, -84], "path": ["0", "0", "12", "13", "14", "19", "22"], "rt": [7531, 1022, 743, 782, 1359], "actions": ["right", "right", "right", "down", "left"], "actionTimes": [10113, 11675, 12971, 14330, 16221], "queries": {"click": {"state": {"target": [], "time": []}, "edge": {"target": [], "time": []}}, "mouseover": {"state": {"target": ["0"], "time": [3942]}, "edge": {"target": [], "time": []}}, "mouseout": {"state": {"target": ["0", "0"], "time": [969, 8317]}, "edge": {"target": [], "time": []}}}, "displayed_time": "16.78", "trialTime": 18356, "trial_type": "mouselab-mdp", "trial_index": 11, "time_elapsed": 490060, "internal_node_id": "0.0-6.0-1.0-2.0"}}, {"uniqueid": "w17360819:a66402186", "current_trial": 12, "dateTime": 1693565158399, "trialdata": {"revealed_states": [], "clicked_states": ["12", "13", "1", "23", "24", "2", "3", "4", "14", "15"], "num_clicks_accrued": [0, 0, 0, 0, 0, 0, 0, 0, 0, 0, 0, 0, 0], "stateRewards": ["", 1, -2, -8, -13, 4, 34, -84, -4, -49, 88, -70, -1, 3, -4, 10, -77, 13, -34, 15, -21, -16, 27, 1, -2, 8, -8, -6, 38, -26, 6, -15, 66, -3], "withholdReward": false, "trial_id": "mdp_trial_4", "block": "test", "trialIndex": 5, "score": -74.3, "costs": -5.3, "simulationMode": [null, null, null, null, null], "rewards": [-1, 3, -4, 10, -77], "path": ["0", "0", "12", "13", "14", "15", "16"], "rt": [9022, 216, 334, 232, 305], "actions": ["right", "right", "right", "up", "up"], "actionTimes": [11619, 12368, 13272, 14043, 14885], "queries": {"click": {"state": {"target": ["12", "13", "1", "23", "24", "2", "3", "4", "14", "15"], "time": [3485, 4416, 5432, 6108, 6924, 7867, 8735, 9308, 10122, 10787]}, "edge": {"target": [], "time": []}}, "mouseover": {"state": {"target": ["12", "13", "23", "1", "23", "24", "7", "2", "3", "4", "7", "14", "15"], "time": [3187, 4119, 4835, 5191, 5796, 6739, 7421, 7693, 8575, 9076, 9621, 10022, 10643]}, "edge": {"target": [], "time": []}}, "mouseout": {"state": {"target": ["0", "12", "13", "12", "23", "1", "23", "24", "7", "2", "3", "4", "7", "14", "15", "15", "15", "13"], "time": [3150, 4068, 4763, 4820, 5102, 5706, 6688, 7344, 7476, 7984, 9025, 9539, 9690, 10540, 11000, 11171, 16611, 16811]}, "edge": {"target": [], "time": []}}}, "displayed_time": "16.62", "trialTime": 18522, "trial_type": "mouselab-mdp", "trial_index": 12, "time_elapsed": 510377, "internal_node_id": "0.0-6.0-1.0-3.0"}}, {"uniqueid": "w17360819:a66402186", "current_trial": 13, "dateTime": 1693565178726, "trialdata": {"revealed_states": [], "clicked_states": ["12", "13", "14", "23", "24", "25", "1", "2", "3", "4", "6"], "num_clicks_accrued": [0, 0, 0, 0, 0, 0, 0, 0, 0, 0, 0, 0, 0], "stateRewards": ["", -1, 4, -8, 12, 14, 69, -8, 5, -72, -14, 56, -1, -1, -1, 9, 67, 19, 11, -9, -88, -58, 3, 2, -4, -8, 4, 62, 77, -74, 5, -31, 65, 88], "withholdReward": false, "trial_id": "mdp_trial_5", "block": "test", "trialIndex": 6, "score": 69.15, "costs": -6.85, "simulationMode": [null, null, null, null, null, null], "rewards": [-1, 4, -8, 12, 69], "path": ["0", "0", "1", "2", "3", "4", "6"], "rt": [9625, 1057, 263, 221, 198, 140], "actions": ["up", "up", "up", "up", "right", "right"], "actionTimes": [12276, 13353, 14185, 14961, 15682, 16384], "queries": {"click": {"state": {"target": ["12", "13", "14", "23", "24", "25", "1", "2", "3", "4", "6"], "time": [3498, 4105, 4653, 5686, 6281, 6837, 7691, 8265, 9027, 9898, 10386]}, "edge": {"target": [], "time": []}}, "mouseover": {"state": {"target": ["0", "12", "13", "14", "23", "24", "25", "1", "1", "2", "3", "4", "6"], "time": [3142, 3302, 3967, 4548, 5334, 6057, 6701, 7300, 7472, 8000, 8657, 9609, 10192]}, "edge": {"target": [], "time": []}}, "mouseout": {"state": {"target": ["0", "12", "12", "13", "14", "13", "12", "23", "24", "25", "1", "1", "2", "3", "4", "6", "6"], "time": [3261, 3621, 3865, 4470, 5017, 5239, 5321, 5936, 6557, 7056, 7393, 7821, 8438, 9425, 10141, 10665, 13142]}, "edge": {"target": [], "time": []}}}, "displayed_time": "16.92", "trialTime": 18544, "trial_type": "mouselab-mdp", "trial_index": 13, "time_elapsed": 530702, "internal_node_id": "0.0-6.0-1.0-4.0"}}, {"uniqueid": "w17360819:a66402186", "current_trial": 14, "dateTime": 1693565201853, "trialdata": {"revealed_states": [], "clicked_states": ["23", "24", "25", "1", "2", "3", "8", "11"], "num_clicks_accrued": [0, 0, 0, 0, 0, 0, 0, 0, 0, 0, 0, 0, 0], "stateRewards": ["", 2, -4, 7, 3, 23, -42, 4, 7, -81, -33, 7, -2, -4, 5, -1, 50, -57, -14, -13, -14, 44, 55, -2, -2, 5, -2, 33, 1, 57, -13, -7, 58, 87], "withholdReward": false, "trial_id": "mdp_trial_6", "block": "test", "trialIndex": 7, "score": 13.200000000000001, "costs": -5.799999999999999, "simulationMode": [null, null, null, null, null], "rewards": [2, -4, 7, 7, 7], "path": ["0", "0", "1", "2", "3", "8", "11"], "rt": [9456, 742, 182, 23, 619], "actions": ["up", "up", "up", "left", "left"], "actionTimes": [13356, 14707, 15451, 16033, 17328], "queries": {"click": {"state": {"target": ["23", "24", "25", "1", "2", "3", "8", "11"], "time": [5391, 6405, 6990, 7868, 8505, 9033, 9569, 10073]}, "edge": {"target": [], "time": []}}, "mouseover": {"state": {"target": ["1", "0", "23", "24", "24", "25", "1", "2", "3", "8", "11", "4"], "time": [4749, 5000, 5150, 5594, 5967, 6811, 7574, 8230, 8761, 9410, 9896, 11063]}, "edge": {"target": [], "time": []}}, "mouseout": {"state": {"target": ["18", "0", "1", "0", "23", "24", "24", "25", "1", "2", "3", "8", "11", "8", "3", "4"], "time": [847, 4378, 4912, 5033, 5535, 5689, 6610, 7148, 8008, 8593, 9116, 9780, 10359, 10488, 10847, 14234]}, "edge": {"target": [], "time": []}}}, "displayed_time": "17.90", "trialTime": 21360, "trial_type": "mouselab-mdp", "trial_index": 14, "time_elapsed": 553831, "internal_node_id": "0.0-6.0-1.0-5.0"}}, {"uniqueid": "w17360819:a66402186", "current_trial": 15, "dateTime": 1693565223170, "trialdata": {"revealed_states": [], "clicked_states": ["12", "13", "14", "19", "21"], "num_clicks_accrued": [0, 0, 0, 0, 0, 0, 0, 0, 0, 0, 0, 0, 0], "stateRewards": ["", 2, 3, 3, 10, 19, -21, 6, 9, 54, 68, 16, 2, 2, -6, -8, 40, -2, -75, -2, -42, 55, 59, -1, 2, 4, -14, 11, -34, -30, -6, 61, -53, 13], "withholdReward": false, "trial_id": "mdp_trial_7", "block": "test", "trialIndex": 8, "score": 46.25, "costs": -4.75, "simulationMode": [null, null, null, null, null], "rewards": [2, 2, -6, -2, 55], "path": ["0", "0", "12", "13", "14", "19", "21"], "rt": [7304, 38, 178, 68, 36], "actions": ["right", "right", "right", "down", "down"], "actionTimes": [10244, 10863, 11600, 12209, 12813], "queries": {"click": {"state": {"target": ["12", "13", "14", "19", "21"], "time": [4139, 4594, 5107, 5831, 6381]}, "edge": {"target": [], "time": []}}, "mouseover": {"state": {"target": ["12", "13", "14", "19", "21", "15", "16", "18"], "time": [3880, 4381, 5033, 5690, 6231, 7126, 7613, 9250]}, "edge": {"target": [], "time": []}}, "mouseout": {"state": {"target": ["18", "0", "12", "13", "14", "19", "21", "14", "15", "16", "18"], "time": [1015, 3532, 4283, 4815, 5527, 6159, 6530, 6877, 7503, 9080, 9332]}, "edge": {"target": [], "time": []}}}, "displayed_time": "16.95", "trialTime": 19513, "trial_type": "mouselab-mdp", "trial_index": 15, "time_elapsed": 575148, "internal_node_id": "0.0-6.0-1.0-6.0"}}, {"uniqueid": "w17360819:a66402186", "current_trial": 16, "dateTime": 1693565246477, "trialdata": {"revealed_states": [], "clicked_states": ["23", "24", "12", "13", "14", "15", "16"], "num_clicks_accrued": [0, 0, 0, 0, 0, 0, 0, 0, 0, 0, 0, 0, 0], "stateRewards": ["", 2, 4, 4, 9, -88, -10, 44, 16, -54, 64, 78, 1, 2, 5, 16, 80, 36, 7, -4, 9, -47, -70, -1, -3, 6, -16, 11, 80, 28, 8, -1, 34, -17], "withholdReward": false, "trial_id": "mdp_trial_8", "block": "test", "trialIndex": 9, "score": 99.15, "costs": -4.85, "simulationMode": [null, null, null, null, null], "rewards": [1, 2, 5, 16, 80], "path": ["0", "0", "12", "13", "14", "15", "16"], "rt": [8199, 550, 171, 535, 57], "actions": ["right", "right", "right", "up", "up"], "actionTimes": [12448, 13561, 14282, 15355, 15960], "queries": {"click": {"state": {"target": ["23", "24", "12", "13", "14", "15", "16"], "time": [5338, 5838, 7000, 7509, 8039, 8760, 9303]}, "edge": {"target": [], "time": []}}, "mouseover": {"state": {"target": ["23", "24", "25", "12", "13", "14", "15", "16"], "time": [5092, 5623, 6102, 6737, 7293, 7888, 8577, 9093]}, "edge": {"target": [], "time": []}}, "mouseout": {"state": {"target": ["12", "23", "24", "25", "12", "13", "14", "15", "16", "15"], "time": [839, 5451, 6058, 6199, 7276, 7739, 8559, 8799, 9546, 9943]}, "edge": {"target": [], "time": []}}}, "displayed_time": "18.25", "trialTime": 21437, "trial_type": "mouselab-mdp", "trial_index": 16, "time_elapsed": 598456, "internal_node_id": "0.0-6.0-1.0-7.0"}}, {"uniqueid": "w17360819:a66402186", "current_trial": 17, "dateTime": 1693565286400, "trialdata": {"revealed_states": [], "clicked_states": ["12", "13", "14", "19", "21", "15", "16", "23", "24", "25", "1", "2", "3", "8", "11", "4", "6", "26", "27"], "num_clicks_accrued": [0, 0, 0, 0, 0, 0, 0, 0, 0, 0, 0, 0, 0], "stateRewards": ["", -1, -2, 8, -6, -79, -6, 87, 9, -5, -66, -38, 2, 2, 5, -6, -82, 74, 85, -8, 67, -30, -15, 1, -2, -2, -2, 87, 64, 49, 7, 2, -38, -9], "withholdReward": false, "trial_id": "mdp_trial_9", "block": "test", "trialIndex": 10, "score": 60.35, "costs": -21.65, "simulationMode": [null, null, null, null, null], "rewards": [1, -2, -2, -2, 87], "path": ["0", "0", "23", "24", "25", "26", "27"], "rt": [29977, 110, 114, 87, 33], "actions": ["left", "left", "left", "up", "up"], "actionTimes": [32713, 33378, 34038, 34659, 35238], "queries": {"click": {"state": {"target": ["12", "13", "14", "19", "21", "15", "16", "23", "24", "25", "1", "2", "3", "8", "11", "4", "6", "26", "27"], "time": [4413, 4922, 5449, 6063, 6686, 9900, 10552, 13767, 14493, 15197, 16149, 17020, 18048, 19149, 19876, 23129, 23865, 28300, 29085]}, "edge": {"target": [], "time": []}}, "mouseover": {"state": {"target": ["12", "13", "14", "19", "21", "15", "16", "18", "23", "23", "24", "25", "1", "2", "3", "3", "8", "11", "4", "6", "7", "2", "26", "27", "26", "27", "25", "30"], "time": [4193, 4756, 5308, 5908, 6588, 7288, 10360, 11176, 12132, 13204, 14242, 14905, 15780, 16885, 17383, 17772, 18906, 19557, 20563, 23745, 24383, 24459, 26380, 27195, 27696, 28863, 30454, 30652]}, "edge": {"target": [], "time": []}}, "mouseout": {"state": {"target": ["14", "12", "12", "12", "13", "14", "19", "21", "15", "16", "16", "18", "23", "23", "24", "25", "1", "2", "3", "3", "8", "11", "4", "6", "7", "2", "26", "27", "26", "27", "26", "25"], "time": [637, 824, 4469, 4662, 5232, 5721, 6406, 6808, 10252, 10678, 10887, 11323, 12754, 14230, 14784, 15412, 16674, 17283, 17546, 18459, 19481, 20213, 23532, 24324, 24446, 24516, 26908, 27459, 28579, 29469, 30339, 30556]}, "edge": {"target": [], "time": []}}}, "displayed_time": "35.83", "trialTime": 37688, "trial_type": "mouselab-mdp", "trial_index": 17, "time_elapsed": 638378, "internal_node_id": "0.0-6.0-1.0-8.0"}}, {"uniqueid": "w17360819:a66402186", "current_trial": 18, "dateTime": 1693565323247, "trialdata": {"revealed_states": [], "clicked_states": ["12", "13", "14", "15", "16", "19", "21", "23", "24", "25", "26", "27", "30", "32", "31", "33"], "num_clicks_accrued": [0, 0, 0, 0, 0, 0, 0, 0, 0, 0, 0, 0, 0], "stateRewards": ["", 2, 3, -2, -8, -8, -41, 74, 15, -23, -80, 1, 1, 3, 3, -15, -63, -78, 67, 13, 75, -41, 86, 2, -2, 6, -3, -8, -49, 50, -6, 83, 74, 80], "withholdReward": false, "trial_id": "mdp_trial_10", "block": "test", "trialIndex": 11, "score": 61.800000000000004, "costs": -21.199999999999996, "simulationMode": [null, null, null, null, null, null], "rewards": [2, -2, 6, -6, 83], "path": ["0", "0", "23", "24", "25", "30", "31"], "rt": [26263, 586, 424, 142, 93, 200], "actions": ["left", "left", "left", "left", "down", "right"], "actionTimes": [28829, 29436, 30410, 31086, 31718, 32463], "queries": {"click": {"state": {"target": ["12", "13", "14", "15", "16", "19", "21", "23", "24", "25", "26", "27", "30", "32", "31", "33"], "time": [3606, 4065, 4642, 5261, 5882, 9737, 10507, 13333, 14352, 14977, 15528, 16017, 19261, 19946, 23011, 26365]}, "edge": {"target": [], "time": []}}, "mouseover": {"state": {"target": ["12", "13", "14", "15", "16", "19", "21", "22", "12", "23", "24", "25", "26", "27", "28", "30", "32", "31", "33", "30"], "time": [3378, 3876, 4471, 5024, 5596, 6850, 10312, 11553, 11679, 11859, 14127, 14825, 15318, 15787, 16438, 17540, 19745, 20295, 23572, 26830]}, "edge": {"target": [], "time": []}}, "mouseout": {"state": {"target": ["30", "30", "0", "12", "13", "14", "15", "16", "16", "14", "19", "21", "22", "12", "23", "24", "25", "26", "27", "28", "25", "30", "32", "31", "33", "30", "30"], "time": [31, 409, 3263, 3770, 4403, 4893, 5386, 5957, 6186, 6499, 10210, 10630, 11615, 11762, 14074, 14762, 15238, 15683, 16275, 17311, 17487, 19640, 20162, 23367, 26735, 28000, 33563]}, "edge": {"target": [], "time": []}}}, "displayed_time": "33.00", "trialTime": 34748, "trial_type": "mouselab-mdp", "trial_index": 18, "time_elapsed": 675222, "internal_node_id": "0.0-6.0-1.0-9.0"}}, {"uniqueid": "w17360819:a66402186", "current_trial": 19, "dateTime": 1693565386383, "trialdata": {"revealed_states": [], "clicked_states": ["1", "2", "3", "4", "6", "7", "9", "8", "23", "24", "25", "30", "32", "26", "27", "28", "29", "12", "13", "14", "19", "21", "15", "16", "17", "20", "22", "18"], "num_clicks_accrued": [0, 0, 0, 0, 0, 0, 0, 0, 0, 0, 0, 0, 0], "stateRewards": ["", 2, -3, 5, -14, -63, -9, -24, -11, -54, -43, 68, 2, -2, -4, 7, -64, 30, 47, 12, -74, 11, 86, 1, -3, 3, 10, -71, -42, -52, -1, -29, -16, 69], "withholdReward": false, "trial_id": "mdp_trial_11", "block": "test", "trialIndex": 12, "score": 53.60000000000001, "costs": -40.39999999999999, "simulationMode": [null, null, null, null, null], "rewards": [2, -2, -4, 12, 86], "path": ["0", "0", "12", "13", "14", "19", "22"], "rt": [53384, 18, 67, 11, 527], "actions": ["right", "right", "right", "down", "left"], "actionTimes": [55895, 56467, 57085, 57627, 58717], "queries": {"click": {"state": {"target": ["1", "2", "3", "4", "6", "7", "9", "8", "23", "24", "25", "30", "32", "26", "27", "28", "29", "12", "13", "14", "19", "21", "15", "16", "17", "20", "22", "18"], "time": [3317, 3895, 4498, 5036, 5595, 8707, 12318, 15230, 16969, 17894, 18504, 19244, 19899, 23015, 23855, 27136, 30270, 33523, 34116, 34678, 35299, 35897, 39024, 39677, 42915, 46078, 49217, 52717]}, "edge": {"target": [], "time": []}}, "mouseover": {"state": {"target": ["1", "2", "3", "4", "6", "7", "4", "5", "9", "9", "8", "10", "28", "24", "23", "24", "25", "30", "32", "26", "27", "28", "26", "29", "26", "12", "13", "14", "19", "21", "15", "16", "17", "15", "18", "14", "20", "19", "22", "14", "18", "15"], "time": [3089, 3671, 4267, 4880, 5452, 6238, 9217, 9555, 10818, 11016, 12890, 16096, 16220, 16507, 16723, 17670, 18343, 18937, 19740, 20775, 23645, 24305, 27526, 27835, 30614, 31182, 33940, 34528, 35100, 35696, 36423, 39548, 40417, 43345, 43461, 43980, 44084, 46522, 46648, 49638, 51830, 53134]}, "edge": {"target": [], "time": []}}, "mouseout": {"state": {"target": ["0", "1", "2", "3", "4", "6", "4", "7", "4", "5", "9", "9", "8", "10", "28", "24", "23", "24", "25", "30", "32", "26", "27", "28", "26", "29", "26", "28", "12", "13", "14", "19", "21", "14", "15", "16", "15", "17", "15", "18", "14", "20", "19", "22", "14", "18", "15"], "time": [2588, 3460, 4068, 4624, 5315, 5866, 6004, 9156, 9271, 10464, 10866, 12795, 15845, 16202, 16376, 16548, 17572, 18179, 18866, 19687, 20065, 23369, 24162, 27513, 27687, 30597, 30665, 30727, 33840, 34399, 34953, 35569, 36106, 36366, 39364, 39914, 40165, 43218, 43443, 43910, 44038, 46500, 46631, 49546, 49766, 53117, 53251]}, "edge": {"target": [], "time": []}}}, "displayed_time": "59.27", "trialTime": 61159, "trial_type": "mouselab-mdp", "trial_index": 19, "time_elapsed": 738363, "internal_node_id": "0.0-6.0-1.0-10.0"}}, {"uniqueid": "w17360819:a66402186", "current_trial": 20, "dateTime": 1693565419745, "trialdata": {"revealed_states": [], "clicked_states": ["12", "13", "14", "19", "22", "21", "20", "15", "16", "17", "18"], "num_clicks_accrued": [0, 0, 0, 0, 0, 0, 0, 0, 0, 0, 0, 0, 0], "stateRewards": ["", 2, -2, 7, -11, -76, -65, -23, 16, -58, 30, 81, 1, 2, 7, 14, 9, 55, -2, 6, 11, -15, 31, -1, -1, -3, 2, 15, 2, 46, 15, 18, 45, -34], "withholdReward": false, "trial_id": "mdp_trial_12", "block": "test", "trialIndex": 13, "score": 61.95, "costs": -17.05, "simulationMode": [null, null, null, null, null], "rewards": [1, 2, 7, 14, 55], "path": ["0", "0", "12", "13", "14", "15", "17"], "rt": [23336, 8, 136, 610, 469], "actions": ["right", "right", "right", "up", "right"], "actionTimes": [25651, 26214, 26932, 28096, 29104], "queries": {"click": {"state": {"target": ["12", "13", "14", "19", "22", "21", "20", "15", "16", "17", "18"], "time": [4012, 4418, 4899, 5421, 5952, 9153, 12294, 15547, 16229, 19353, 22531]}, "edge": {"target": [], "time": []}}, "mouseover": {"state": {"target": ["12", "13", "14", "19", "22", "21", "20", "20", "19", "15", "16", "17", "18"], "time": [3827, 4278, 4713, 5120, 5774, 6373, 9672, 9911, 12756, 14041, 15990, 16874, 19790]}, "edge": {"target": [], "time": []}}, "mouseout": {"state": {"target": ["18", "0", "12", "13", "14", "19", "22", "21", "20", "20", "19", "15", "16", "16", "17", "18", "19"], "time": [703, 3757, 4230, 4646, 4937, 5702, 6186, 9518, 9812, 12698, 12815, 15758, 16313, 16535, 19602, 23061, 30577]}, "edge": {"target": [], "time": []}}}, "displayed_time": "29.66", "trialTime": 31126, "trial_type": "mouselab-mdp", "trial_index": 20, "time_elapsed": 771719, "internal_node_id": "0.0-6.0-1.0-11.0"}}, {"uniqueid": "w17360819:a66402186", "current_trial": 21, "dateTime": 1693565463016, "trialdata": {"revealed_states": [], "clicked_states": ["12", "13", "14", "19", "22", "20", "21", "15", "16", "17", "18", "23", "24", "25", "30", "26"], "num_clicks_accrued": [0, 0, 0, 0, 0, 0, 0, 0, 0, 0, 0, 0, 0], "stateRewards": ["", 1, 1, 6, -14, -40, 37, 16, -13, 33, -68, 49, 2, 4, 3, 6, 55, 27, 32, 10, -65, 20, -87, 2, 1, -6, -5, -42, 12, 29, -8, 16, 76, -33], "withholdReward": false, "trial_id": "mdp_trial_13", "block": "test", "trialIndex": 14, "score": 48.8, "costs": -21.200000000000003, "simulationMode": [null, null, null, null, null], "rewards": [2, 4, 3, 6, 55], "path": ["0", "0", "12", "13", "14", "15", "16"], "rt": [32352, 29, 21, 23, 407], "actions": ["right", "right", "right", "up", "up"], "actionTimes": [36192, 36785, 37367, 37955, 38955], "queries": {"click": {"state": {"target": ["12", "13", "14", "19", "22", "20", "21", "15", "16", "17", "18", "23", "24", "25", "30", "26"], "time": [5035, 5462, 5968, 6470, 7303, 10576, 13697, 16917, 17649, 20839, 23956, 28317, 29256, 29975, 30700, 31683]}, "edge": {"target": [], "time": []}}, "mouseover": {"state": {"target": ["12", "13", "14", "19", "22", "22", "21", "20", "21", "21", "19", "14", "15", "16", "17", "15", "18", "15", "28", "23", "23", "24", "24", "25", "30", "26", "28", "1", "2", "1"], "time": [4594, 5362, 5789, 6194, 6717, 7040, 7978, 9485, 11004, 11326, 14061, 14194, 14400, 17391, 18376, 21242, 21470, 25566, 27411, 27664, 28001, 28635, 29150, 29698, 30442, 31135, 32308, 33059, 35328, 35748]}, "edge": {"target": [], "time": []}}, "mouseout": {"state": {"target": ["12", "0", "12", "13", "14", "19", "22", "22", "19", "21", "20", "21", "21", "19", "14", "15", "16", "17", "15", "18", "15", "28", "23", "23", "24", "24", "25", "30", "26", "28", "1", "2", "1"], "time": [2339, 4528, 5222, 5718, 6115, 6700, 6776, 7553, 7786, 8842, 10888, 11094, 14043, 14125, 14258, 17251, 18134, 21184, 21300, 24453, 25878, 27595, 27792, 28531, 28693, 29506, 30286, 30798, 32143, 32422, 35261, 35676, 36506]}, "edge": {"target": [], "time": []}}}, "displayed_time": "39.49", "trialTime": 41434, "trial_type": "mouselab-mdp", "trial_index": 21, "time_elapsed": 814992, "internal_node_id": "0.0-6.0-1.0-12.0"}}, {"uniqueid": "w17360819:a66402186", "current_trial": 22, "dateTime": 1693565496699, "trialdata": {"revealed_states": [], "clicked_states": ["12", "13", "14", "19", "20", "15", "17", "16", "18", "23", "24", "1", "2", "3", "4", "7"], "num_clicks_accrued": [0, 0, 0, 0, 0, 0, 0, 0, 0, 0, 0, 0, 0], "stateRewards": ["", 1, 1, -3, 2, 22, -25, -11, -5, 50, 49, 3, 1, -1, 8, 14, -85, -30, 57, -6, -39, -16, 59, -2, -1, 5, 5, 59, -16, 8, 4, 67, 56, -9], "withholdReward": false, "trial_id": "mdp_trial_14", "block": "test", "trialIndex": 15, "score": 61.400000000000006, "costs": -17.599999999999998, "simulationMode": [null, null, null, null, null], "rewards": [1, -1, 8, 14, 57], "path": ["0", "0", "12", "13", "14", "15", "18"], "rt": [24572, 463, 185, 29, 11], "actions": ["right", "right", "right", "up", "left"], "actionTimes": [26679, 27716, 28436, 29046, 29630], "queries": {"click": {"state": {"target": ["12", "13", "14", "19", "20", "15", "17", "16", "18", "23", "24", "1", "2", "3", "4", "7"], "time": [3004, 3477, 4083, 4669, 5123, 8651, 9440, 12585, 15758, 19128, 19880, 20936, 21564, 22211, 22866, 23389]}, "edge": {"target": [], "time": []}}, "mouseover": {"state": {"target": ["0", "12", "13", "14", "19", "20", "18", "15", "17", "16", "18", "24", "24", "23", "24", "24", "1", "2", "3", "4", "7", "6"], "time": [2557, 2815, 3359, 3935, 4454, 5021, 6021, 6439, 9137, 10123, 13141, 16326, 16590, 16917, 19348, 19656, 20557, 21305, 22047, 22461, 23157, 23904]}, "edge": {"target": [], "time": []}}, "mouseout": {"state": {"target": ["0", "0", "12", "13", "14", "19", "20", "13", "18", "15", "17", "16", "18", "24", "24", "23", "24", "24", "1", "2", "3", "4", "7", "6"], "time": [870, 2773, 3216, 3759, 4322, 4864, 5370, 5967, 6083, 9034, 9702, 12946, 16047, 16388, 16852, 19295, 19422, 20182, 21106, 21818, 22438, 23062, 23604, 28218]}, "edge": {"target": [], "time": []}}}, "displayed_time": "30.20", "trialTime": 31658, "trial_type": "mouselab-mdp", "trial_index": 22, "time_elapsed": 848677, "internal_node_id": "0.0-6.0-1.0-13.0"}}, {"uniqueid": "w17360819:a66402186", "current_trial": 23, "dateTime": 1693565536689, "trialdata": {"revealed_states": [], "clicked_states": ["23", "24", "1", "2", "12", "13", "3", "4", "8", "11", "9", "14", "15", "19", "22", "21", "20"], "num_clicks_accrued": [0, 0, 0, 0, 0, 0, 0, 0, 0, 0, 0, 0, 0], "stateRewards": ["", -2, 3, -5, -7, 66, 43, -60, -4, -70, -75, 4, -1, 2, 2, -13, 54, 11, -40, -1, 77, 32, 15, -2, 3, -8, -9, -35, 83, -27, 6, -74, -34, 44], "withholdReward": false, "trial_id": "mdp_trial_15", "block": "test", "trialIndex": 16, "score": 59.85, "costs": -19.15, "simulationMode": [null, null, null, null, null], "rewards": [-1, 2, 2, -1, 77], "path": ["0", "0", "12", "13", "14", "19", "20"], "rt": [30321, 13, 80, 46, 11], "actions": ["right", "right", "right", "down", "right"], "actionTimes": [32849, 33457, 34130, 34723, 35329], "queries": {"click": {"state": {"target": ["23", "24", "1", "2", "12", "13", "3", "4", "8", "11", "9", "14", "15", "19", "22", "21", "20"], "time": [3840, 4467, 5456, 5975, 6781, 7251, 8781, 9672, 11238, 12098, 15644, 18840, 19494, 22294, 23357, 26493, 29676]}, "edge": {"target": [], "time": []}}, "mouseover": {"state": {"target": ["23", "24", "1", "2", "12", "13", "0", "3", "4", "4", "8", "11", "9", "3", "7", "18", "14", "15", "17", "19", "22", "22", "20", "21", "20"], "time": [3601, 4200, 5193, 5748, 6539, 7078, 7929, 8538, 9007, 9467, 10251, 11851, 12926, 16127, 16398, 16607, 16916, 19258, 19874, 20715, 22965, 23213, 23759, 25418, 26780]}, "edge": {"target": [], "time": []}}, "mouseout": {"state": {"target": ["12", "0", "23", "24", "24", "23", "1", "2", "12", "13", "0", "2", "3", "4", "4", "3", "8", "11", "8", "9", "3", "7", "18", "14", "15", "17", "14", "19", "22", "22", "19", "20", "21", "20"], "time": [981, 3250, 4041, 4692, 4931, 4995, 5530, 6210, 7008, 7573, 8082, 8246, 8993, 9128, 10010, 10098, 11643, 12481, 12633, 15914, 16189, 16461, 16665, 19091, 19725, 20497, 20603, 22948, 23006, 23588, 23697, 25258, 26724, 30031]}, "edge": {"target": [], "time": []}}}, "displayed_time": "35.90", "trialTime": 37836, "trial_type": "mouselab-mdp", "trial_index": 23, "time_elapsed": 888666, "internal_node_id": "0.0-6.0-1.0-14.0"}}, {"uniqueid": "w17360819:a66402186", "current_trial": 24, "dateTime": 1693565576953, "trialdata": {"revealed_states": [], "clicked_states": ["12", "13", "14", "15", "17", "23", "24", "25", "26", "27", "30", "32", "31", "33", "28", "29"], "num_clicks_accrued": [0, 0, 0, 0, 0, 0, 0, 0, 0, 0, 0, 0, 0], "stateRewards": ["", 2, 1, -3, 7, 46, 11, -36, 16, 71, 5, 1, 2, -2, -8, -3, -4, 6, 55, 7, 68, -54, 2, 1, 1, 6, -6, 42, -4, -84, -11, -65, 63, 25], "withholdReward": false, "trial_id": "mdp_trial_16", "block": "test", "trialIndex": 17, "score": 38.2, "costs": -21.799999999999997, "simulationMode": [null, null, null, null, null], "rewards": [1, 1, 6, -11, 63], "path": ["0", "0", "23", "24", "25", "30", "32"], "rt": [30719, 479, 16, 44, 549], "actions": ["left", "left", "left", "down", "down"], "actionTimes": [32918, 33934, 34500, 35096, 36319], "queries": {"click": {"state": {"target": ["12", "13", "14", "15", "17", "23", "24", "25", "26", "27", "30", "32", "31", "33", "28", "29"], "time": [3448, 4088, 4763, 5368, 5954, 9485, 10166, 10967, 11533, 12223, 15904, 16835, 20049, 23229, 26401, 29811]}, "edge": {"target": [], "time": []}}, "mouseover": {"state": {"target": ["12", "13", "14", "15", "17", "19", "0", "23", "24", "25", "26", "27", "30", "32", "31", "30", "33", "33", "28", "26", "29"], "time": [3219, 3901, 4535, 5140, 5752, 6835, 8537, 8602, 9922, 10602, 11269, 11972, 13003, 16649, 17099, 20382, 20535, 20806, 24055, 26887, 27004]}, "edge": {"target": [], "time": []}}, "mouseout": {"state": {"target": ["19", "22", "12", "0", "12", "13", "14", "15", "17", "19", "0", "23", "24", "25", "26", "27", "26", "25", "30", "32", "31", "30", "33", "33", "28", "26", "29"], "time": [370, 470, 669, 2755, 3552, 4133, 4855, 5614, 6279, 8478, 8590, 9801, 10457, 11128, 11747, 12447, 12524, 12779, 16434, 16990, 20366, 20480, 20721, 23561, 26779, 26988, 30308]}, "edge": {"target": [], "time": []}}}, "displayed_time": "36.86", "trialTime": 38216, "trial_type": "mouselab-mdp", "trial_index": 24, "time_elapsed": 928932, "internal_node_id": "0.0-6.0-1.0-15.0"}}, {"uniqueid": "w17360819:a66402186", "current_trial": 25, "dateTime": 1693565602192, "trialdata": {"revealed_states": [], "clicked_states": ["12", "13", "1", "2", "3", "4", "6", "7", "5"], "num_clicks_accrued": [0, 0, 0, 0, 0, 0, 0, 0, 0, 0, 0, 0, 0], "stateRewards": ["", 1, 2, 3, 16, 63, -25, 16, -4, -14, 82, -66, -1, -3, -3, -11, -14, 19, 46, 3, -34, -82, 66, -2, -3, 4, -5, -63, 77, -37, -1, -45, -41, 84], "withholdReward": false, "trial_id": "mdp_trial_17", "block": "test", "trialIndex": 18, "score": 75.85, "costs": -9.15, "simulationMode": [null, null, null, null, null], "rewards": [1, 2, 3, 16, 63], "path": ["0", "0", "1", "2", "3", "4", "5"], "rt": [15327, 442, 147, 54, 124], "actions": ["up", "up", "up", "right", "up"], "actionTimes": [17793, 18854, 19542, 20149, 20787], "queries": {"click": {"state": {"target": ["12", "13", "1", "2", "3", "4", "6", "7", "5"], "time": [3443, 3966, 5005, 5642, 6360, 6906, 7690, 11032, 14357]}, "edge": {"target": [], "time": []}}, "mouseover": {"state": {"target": ["12", "13", "1", "2", "3", "4", "6", "7", "4", "5", "4"], "time": [3148, 3799, 4613, 5228, 6166, 6625, 7429, 8599, 11325, 11469, 14730]}, "edge": {"target": [], "time": []}}, "mouseout": {"state": {"target": ["15", "0", "23", "0", "12", "13", "1", "2", "2", "3", "4", "6", "4", "7", "4", "5", "4"], "time": [678, 760, 789, 2914, 3655, 4336, 5174, 5707, 5946, 6608, 7196, 8141, 8413, 11125, 11393, 14675, 14792]}, "edge": {"target": [], "time": []}}}, "displayed_time": "21.32", "trialTime": 23163, "trial_type": "mouselab-mdp", "trial_index": 25, "time_elapsed": 954171, "internal_node_id": "0.0-6.0-1.0-16.0"}}, {"uniqueid": "w17360819:a66402186", "current_trial": 26, "dateTime": 1693565626961, "trialdata": {"revealed_states": [], "clicked_states": ["23", "24", "25", "26", "28", "27", "29"], "num_clicks_accrued": [0, 0, 0, 0, 0, 0, 0, 0, 0, 0, 0, 0, 0], "stateRewards": ["", -1, -4, -6, -15, 21, -67, -63, 9, 51, 69, -14, -1, 3, 8, -8, 39, 72, 63, 15, 19, 47, 15, 1, 4, 5, 16, -18, 34, 35, -14, -80, 40, 1], "withholdReward": false, "trial_id": "mdp_trial_18", "block": "test", "trialIndex": 19, "score": 51.95, "costs": -9.05, "simulationMode": [null, null, null, null, null], "rewards": [1, 4, 5, 16, 35], "path": ["0", "0", "23", "24", "25", "26", "29"], "rt": [14460, 720, 182, 199, 32], "actions": ["left", "left", "left", "up", "left"], "actionTimes": [16988, 18296, 19014, 19777, 20369], "queries": {"click": {"state": {"target": ["23", "24", "25", "26", "28", "27", "29"], "time": [3671, 4322, 4997, 5838, 6653, 10164, 13343]}, "edge": {"target": [], "time": []}}, "mouseover": {"state": {"target": ["23", "24", "25", "26", "28", "27", "29", "26", "30"], "time": [3347, 4065, 4782, 5497, 6379, 7481, 10686, 13797, 15281]}, "edge": {"target": [], "time": []}}, "mouseout": {"state": {"target": ["1", "0", "23", "24", "25", "26", "28", "27", "29", "26", "30"], "time": [967, 3309, 4017, 4646, 5332, 6082, 6975, 10626, 13729, 13901, 21741]}, "edge": {"target": [], "time": []}}}, "displayed_time": "20.99", "trialTime": 22627, "trial_type": "mouselab-mdp", "trial_index": 26, "time_elapsed": 978936, "internal_node_id": "0.0-6.0-1.0-17.0"}}, {"uniqueid": "w17360819:a66402186", "current_trial": 27, "dateTime": 1693565648546, "trialdata": {"revealed_states": [], "clicked_states": ["12", "13", "14", "1", "2", "23", "24", "25", "26", "27"], "num_clicks_accrued": [0, 0, 0, 0, 0, 0, 0, 0, 0, 0, 0, 0, 0], "stateRewards": ["", 2, -2, -8, 9, -20, 55, -58, 14, 42, 2, 36, 1, -3, -5, 5, -58, 57, 60, 16, 57, 30, -70, -2, 1, 3, 10, 59, 23, 77, -13, -26, 88, -72], "withholdReward": false, "trial_id": "mdp_trial_19", "block": "test", "trialIndex": 20, "score": 65.1, "costs": -5.9, "simulationMode": [null, null, null, null, null], "rewards": [-2, 1, 3, 10, 59], "path": ["0", "0", "23", "24", "25", "26", "27"], "rt": [11438, 12, 805, 37, 61], "actions": ["left", "left", "left", "up", "up"], "actionTimes": [14476, 15087, 16448, 17075, 17705], "queries": {"click": {"state": {"target": ["12", "13", "14", "1", "2", "23", "24", "25", "26", "27"], "time": [4217, 4774, 5404, 6370, 6848, 7907, 8521, 9436, 9981, 10867]}, "edge": {"target": [], "time": []}}, "mouseover": {"state": {"target": ["12", "13", "14", "1", "2", "23", "24", "25", "26", "27", "27", "23", "28"], "time": [3980, 4685, 5313, 6214, 6581, 7535, 8142, 9111, 9838, 10273, 10742, 11387, 13898]}, "edge": {"target": [], "time": []}}, "mouseout": {"state": {"target": ["0", "12", "13", "14", "1", "2", "23", "24", "25", "26", "27", "27", "23"], "time": [3812, 4538, 5153, 5596, 6496, 6924, 8070, 8886, 9585, 10254, 10363, 10994, 13586]}, "edge": {"target": [], "time": []}}}, "displayed_time": "18.24", "trialTime": 19468, "trial_type": "mouselab-mdp", "trial_index": 27, "time_elapsed": 1000522, "internal_node_id": "0.0-6.0-1.0-18.0"}}, {"uniqueid": "w17360819:a66402186", "current_trial": 28, "dateTime": 1693565682008, "trialdata": {"revealed_states": [], "clicked_states": ["1", "2", "3", "12", "13", "23", "24", "25", "14", "15", "16", "17", "18", "19", "21", "20"], "num_clicks_accrued": [0, 0, 0, 0, 0, 0, 0, 0, 0, 0, 0, 0, 0], "stateRewards": ["", 2, -1, 8, -2, -16, 69, -39, -7, -13, -27, -86, 2, -2, 2, 13, -34, -16, -20, -5, 19, 81, 32, -2, -1, 2, -14, 20, 80, 58, 4, 70, 12, 73], "withholdReward": false, "trial_id": "mdp_trial_20", "block": "test", "trialIndex": 21, "score": 61, "costs": -17, "simulationMode": [null, null, null, null, null, null], "rewards": [2, -2, 2, -5, 81], "path": ["0", "0", "12", "13", "14", "19", "21"], "rt": [22051, 2617, 47, 89, 30, 20], "actions": ["right", "right", "right", "right", "down", "down"], "actionTimes": [24405, 27044, 27628, 28261, 28825, 29442], "queries": {"click": {"state": {"target": ["1", "2", "3", "12", "13", "23", "24", "25", "14", "15", "16", "17", "18", "19", "21", "20"], "time": [3167, 3818, 4344, 5773, 6247, 7128, 7681, 8357, 9353, 9833, 10532, 13816, 16946, 20215, 20767, 23914]}, "edge": {"target": [], "time": []}}, "mouseover": {"state": {"target": ["1", "2", "3", "8", "10", "0", "12", "13", "23", "24", "25", "14", "15", "16", "17", "19", "17", "15", "18", "14", "19", "21", "20"], "time": [2976, 3651, 4048, 4765, 5084, 5204, 5282, 6078, 6920, 7490, 8087, 9212, 9649, 10369, 11050, 11726, 13456, 14105, 14231, 17371, 17619, 20623, 21115]}, "edge": {"target": [], "time": []}}, "mouseout": {"state": {"target": ["28", "23", "1", "2", "3", "3", "8", "10", "0", "12", "13", "12", "23", "24", "25", "12", "13", "14", "15", "16", "17", "19", "17", "15", "18", "14", "19", "21", "20"], "time": [634, 784, 3314, 3897, 4416, 4634, 5031, 5147, 5265, 5970, 6585, 6662, 7362, 7944, 8666, 8873, 9055, 9529, 10079, 10810, 11298, 12942, 14044, 14168, 17262, 17427, 20566, 20840, 25187]}, "edge": {"target": [], "time": []}}}, "displayed_time": "30.02", "trialTime": 31208, "trial_type": "mouselab-mdp", "trial_index": 28, "time_elapsed": 1033982, "internal_node_id": "0.0-6.0-1.0-19.0"}}, {"uniqueid": "w17360819:a66402186", "current_trial": 29, "dateTime": 1693565721343, "trialdata": {"revealed_states": [], "clicked_states": ["12", "13", "1", "2", "23", "24", "25", "26", "30", "33", "32", "3", "4", "14", "15", "19", "21", "20"], "num_clicks_accrued": [0, 0, 0, 0, 0, 0, 0, 0, 0, 0, 0, 0, 0], "stateRewards": ["", 1, 1, -6, -2, 7, 77, 3, 16, -16, 66, 31, -1, 3, -8, -6, 33, -50, -48, 7, -60, -66, 36, 2, -3, 3, -7, -12, -61, -79, -4, 8, 74, -70], "withholdReward": false, "trial_id": "mdp_trial_21", "block": "test", "trialIndex": 22, "score": -103.5, "costs": -19.5, "simulationMode": [null, null, null, null, null], "rewards": [2, -3, 3, -7, -79], "path": ["0", "0", "23", "24", "25", "26", "29"], "rt": [29732, 63, 15, 519, 380], "actions": ["left", "left", "left", "up", "left"], "actionTimes": [32080, 32675, 33229, 34289, 35276], "queries": {"click": {"state": {"target": ["12", "13", "1", "2", "23", "24", "25", "26", "30", "33", "32", "3", "4", "14", "15", "19", "21", "20"], "time": [3520, 3963, 5071, 6164, 7116, 8145, 9060, 10272, 11493, 12277, 15763, 19438, 19968, 21376, 21988, 23813, 24795, 28463]}, "edge": {"target": [], "time": []}}, "mouseover": {"state": {"target": ["12", "13", "14", "1", "2", "2", "23", "24", "25", "26", "27", "30", "33", "31", "24", "31", "32", "31", "23", "2", "2", "3", "4", "7", "18", "14", "15", "16", "19", "21", "20", "19", "22"], "time": [3222, 3830, 4232, 4890, 5239, 5633, 6939, 7580, 8721, 9268, 10732, 11136, 12005, 12718, 13837, 14256, 15113, 16085, 16695, 17237, 18726, 19170, 19690, 20586, 20793, 21103, 21723, 22507, 23087, 24545, 26912, 29030, 29152]}, "edge": {"target": [], "time": []}}, "mouseout": {"state": {"target": ["13", "0", "12", "13", "14", "1", "2", "2", "23", "24", "25", "26", "27", "30", "33", "31", "24", "31", "32", "31", "23", "2", "2", "3", "4", "7", "18", "14", "15", "16", "15", "19", "21", "20", "19", "22"], "time": [351, 3126, 3563, 4153, 4462, 5196, 5397, 6514, 7197, 8531, 9120, 10426, 10972, 11795, 12628, 13270, 13945, 14622, 15939, 16637, 16754, 17449, 18906, 19645, 20328, 20673, 20854, 21568, 22204, 22795, 22936, 24366, 26900, 28970, 29094, 29270]}, "edge": {"target": [], "time": []}}}, "displayed_time": "35.81", "trialTime": 37106, "trial_type": "mouselab-mdp", "trial_index": 29, "time_elapsed": 1073322, "internal_node_id": "0.0-6.0-1.0-20.0"}}, {"uniqueid": "w17360819:a66402186", "current_trial": 30, "dateTime": 1693565763518, "trialdata": {"revealed_states": [], "clicked_states": ["12", "13", "1", "23", "24", "25", "30", "26", "27", "28", "29", "2", "3", "4", "14", "19", "32", "31", "33"], "num_clicks_accrued": [0, 0, 0, 0, 0, 0, 0, 0, 0, 0, 0, 0, 0], "stateRewards": ["", -1, -2, -1, -10, -57, 73, -72, -16, 75, -14, -46, -2, -3, -7, -1, -61, -60, 76, -4, 50, 4, 14, 2, 2, -7, 12, -65, -32, 15, -8, -76, -25, -61], "withholdReward": false, "trial_id": "mdp_trial_22", "block": "test", "trialIndex": 23, "score": 1.7500000000000036, "costs": -22.249999999999996, "simulationMode": [null, null, null, null, null], "rewards": [2, 2, -7, 12, 15], "path": ["0", "0", "23", "24", "25", "26", "29"], "rt": [32519, 424, 148, 67, 83], "actions": ["left", "left", "left", "up", "left"], "actionTimes": [34770, 35734, 36451, 37133, 37797], "queries": {"click": {"state": {"target": ["12", "13", "1", "23", "24", "25", "30", "26", "27", "28", "29", "2", "3", "4", "14", "19", "32", "31", "33"], "time": [3331, 3866, 4872, 5799, 6756, 7776, 8569, 9325, 10152, 13433, 16568, 20627, 21254, 21768, 22839, 23503, 25026, 28302, 31527]}, "edge": {"target": [], "time": []}}, "mouseover": {"state": {"target": ["12", "13", "1", "23", "24", "25", "30", "26", "27", "28", "26", "29", "2", "3", "4", "7", "14", "19", "22", "31", "32", "31", "31", "30", "33", "33", "24"], "time": [3038, 3669, 4488, 5420, 6253, 7533, 8317, 9060, 9904, 10482, 13718, 13841, 17777, 21069, 21521, 22209, 22458, 23438, 23868, 24277, 24813, 25307, 25667, 28641, 28769, 31243, 32513]}, "edge": {"target": [], "time": []}}, "mouseout": {"state": {"target": ["0", "12", "13", "1", "23", "23", "24", "25", "30", "26", "27", "28", "26", "29", "2", "3", "4", "7", "14", "19", "22", "31", "32", "31", "31", "30", "33", "33"], "time": [657, 3456, 4037, 5171, 5869, 6102, 7330, 8208, 8897, 9425, 10349, 13697, 13777, 16836, 20766, 21448, 22137, 22300, 23197, 23544, 23944, 24335, 25199, 25407, 28577, 28705, 28833, 32021]}, "edge": {"target": [], "time": []}}}, "displayed_time": "38.36", "trialTime": 39675, "trial_type": "mouselab-mdp", "trial_index": 30, "time_elapsed": 1115494, "internal_node_id": "0.0-6.0-1.0-21.0"}}, {"uniqueid": "w17360819:a66402186", "current_trial": 31, "dateTime": 1693565783202, "trialdata": {"revealed_states": [], "clicked_states": ["1", "2", "3", "4", "5"], "num_clicks_accrued": [0, 0, 0, 0, 0, 0, 0, 0, 0, 0, 0, 0, 0], "stateRewards": ["", -2, -3, 1, -14, 48, -49, 67, -1, -35, -48, 3, -2, 1, -4, -5, 86, -84, 39, 1, 48, 41, -42, -1, -4, 2, -7, 18, -86, 17, 7, -9, 57, -69], "withholdReward": false, "trial_id": "mdp_trial_23", "block": "test", "trialIndex": 24, "score": 25.25, "costs": -4.75, "simulationMode": [null, null, null, null, null], "rewards": [-2, -3, 1, -14, 48], "path": ["0", "0", "1", "2", "3", "4", "5"], "rt": [6982, 40, 114, 28, 35], "actions": ["up", "up", "up", "right", "up"], "actionTimes": [9459, 10045, 10740, 11306, 11893], "queries": {"click": {"state": {"target": ["1", "2", "3", "4", "5"], "time": [3311, 4046, 4710, 5228, 5904]}, "edge": {"target": [], "time": []}}, "mouseover": {"state": {"target": ["1", "2", "3", "4", "5", "7"], "time": [3108, 3529, 4416, 5014, 5679, 7042]}, "edge": {"target": [], "time": []}}, "mouseout": {"state": {"target": ["24", "0", "1", "2", "3", "4", "5", "4", "7", "7"], "time": [507, 2913, 3473, 4183, 4884, 5475, 6089, 6302, 9030, 10175]}, "edge": {"target": [], "time": []}}}, "displayed_time": "16.48", "trialTime": 17562, "trial_type": "mouselab-mdp", "trial_index": 31, "time_elapsed": 1135178, "internal_node_id": "0.0-6.0-1.0-22.0"}}, {"uniqueid": "w17360819:a66402186", "current_trial": 32, "dateTime": 1693565817984, "trialdata": {"revealed_states": [], "clicked_states": ["12", "13", "14", "19", "21", "20", "22", "15", "17", "16", "18"], "num_clicks_accrued": [0, 0, 0, 0, 0, 0, 0, 0, 0, 0, 0, 0, 0], "stateRewards": ["", 1, 2, -3, -5, 66, -50, -47, -5, 1, 28, -27, 1, 1, -1, -6, 37, -25, 56, 1, -82, -66, -40, -1, -4, -7, 15, -61, -23, 26, 10, 14, -56, 29], "withholdReward": false, "trial_id": "mdp_trial_24", "block": "test", "trialIndex": 25, "score": 33.95, "costs": -17.05, "simulationMode": [null, null, null, null, null], "rewards": [1, 1, -1, -6, 56], "path": ["0", "0", "12", "13", "14", "15", "18"], "rt": [25113, 40, 233, 132, 63], "actions": ["right", "right", "right", "up", "left"], "actionTimes": [27524, 28154, 29046, 29746, 30350], "queries": {"click": {"state": {"target": ["12", "13", "14", "19", "21", "20", "22", "15", "17", "16", "18"], "time": [3168, 3756, 4293, 5073, 5839, 9063, 12221, 15466, 17962, 21179, 24304]}, "edge": {"target": [], "time": []}}, "mouseover": {"state": {"target": ["12", "13", "14", "19", "21", "20", "19", "22", "14", "15", "16", "17", "16", "16", "18", "15", "17"], "time": [2976, 3652, 4217, 4891, 5673, 6427, 9322, 9451, 12605, 13106, 15985, 16607, 18373, 18579, 21784, 24854, 25023]}, "edge": {"target": [], "time": []}}, "mouseout": {"state": {"target": ["12", "13", "14", "19", "21", "20", "19", "22", "14", "15", "16", "17", "16", "16", "18", "15", "17"], "time": [3490, 4023, 4771, 5384, 5906, 9264, 9391, 12536, 12671, 15765, 16447, 18170, 18451, 21534, 24835, 24939, 25114]}, "edge": {"target": [], "time": []}}}, "displayed_time": "30.93", "trialTime": 32254, "trial_type": "mouselab-mdp", "trial_index": 32, "time_elapsed": 1169964, "internal_node_id": "0.0-6.0-1.0-23.0"}}, {"uniqueid": "w17360819:a66402186", "current_trial": 33, "dateTime": 1693565844131, "trialdata": {"revealed_states": [], "clicked_states": ["12", "13", "14", "15", "1", "2", "3", "4", "6", "5", "7"], "num_clicks_accrued": [0, 0, 0, 0, 0, 0, 0, 0, 0, 0, 0, 0, 0], "stateRewards": ["", 2, 3, 8, 11, 25, -80, 6, -4, -56, 84, -23, -2, -4, -3, 4, -51, -9, -61, -15, -64, 67, -35, 1, -1, -7, -6, 83, 59, -15, 12, -79, 56, 41], "withholdReward": false, "trial_id": "mdp_trial_25", "block": "test", "trialIndex": 26, "score": 37.35, "costs": -11.65, "simulationMode": [null, null, null, null, null], "rewards": [2, 3, 8, 11, 25], "path": ["0", "0", "1", "2", "3", "4", "5"], "rt": [15953, 368, 91, 561, 58], "actions": ["up", "up", "up", "right", "up"], "actionTimes": [18559, 19483, 20117, 21270, 21889], "queries": {"click": {"state": {"target": ["12", "13", "14", "15", "1", "2", "3", "4", "6", "5", "7"], "time": [3670, 4237, 4800, 5356, 6328, 6762, 7363, 7879, 8414, 11631, 14896]}, "edge": {"target": [], "time": []}}, "mouseover": {"state": {"target": ["12", "13", "14", "15", "18", "1", "2", "3", "4", "6", "5", "4", "7", "6"], "time": [3487, 3914, 4608, 5141, 5602, 6082, 6529, 7161, 7650, 8221, 9171, 11921, 12204, 15775]}, "edge": {"target": [], "time": []}}, "mouseout": {"state": {"target": ["13", "0", "12", "13", "14", "15", "18", "1", "2", "3", "4", "6", "5", "4", "7", "6"], "time": [512, 3159, 3806, 4281, 4945, 5522, 5922, 6413, 6897, 7631, 8146, 8744, 11856, 12038, 15470, 15927]}, "edge": {"target": [], "time": []}}}, "displayed_time": "22.47", "trialTime": 23570, "trial_type": "mouselab-mdp", "trial_index": 33, "time_elapsed": 1196109, "internal_node_id": "0.0-6.0-1.0-24.0"}}, {"uniqueid": "w17360819:a66402186", "current_trial": 34, "dateTime": 1693565871955, "trialdata": {"revealed_states": [], "clicked_states": ["23", "24", "1", "12", "13", "14", "15", "18", "19", "17", "16"], "num_clicks_accrued": [0, 0, 0, 0, 0, 0, 0, 0, 0, 0, 0, 0, 0], "stateRewards": ["", -2, -1, -5, 10, -36, -70, 68, -9, 86, 71, -10, 2, -4, 7, -7, 66, 44, -66, -13, -69, 43, 15, -2, 2, 6, -13, 62, 57, 50, -10, -69, 42, -72], "withholdReward": false, "trial_id": "mdp_trial_26", "block": "test", "trialIndex": 27, "score": 53.55, "costs": -10.45, "simulationMode": [null, null, null, null, null], "rewards": [2, -4, 7, -7, 66], "path": ["0", "0", "12", "13", "14", "15", "16"], "rt": [17419, 95, 187, 64, 27], "actions": ["right", "right", "right", "up", "up"], "actionTimes": [20092, 20739, 21493, 22117, 22713], "queries": {"click": {"state": {"target": ["23", "24", "1", "12", "13", "14", "15", "18", "19", "17", "16"], "time": [4001, 4647, 5161, 5843, 6286, 6855, 7358, 8106, 11477, 13541, 16765]}, "edge": {"target": [], "time": []}}, "mouseover": {"state": {"target": ["0", "23", "24", "1", "12", "13", "14", "15", "18", "19", "17", "16"], "time": [2721, 3705, 4447, 4955, 5764, 6105, 6717, 7178, 7768, 8681, 12972, 14331]}, "edge": {"target": [], "time": []}}, "mouseout": {"state": {"target": ["7", "0", "23", "24", "1", "12", "13", "14", "15", "18", "15", "19", "17", "16", "15"], "time": [651, 3270, 4289, 4878, 5235, 5927, 6328, 6926, 7544, 8298, 8412, 11795, 14008, 17285, 24230]}, "edge": {"target": [], "time": []}}}, "displayed_time": "23.30", "trialTime": 25153, "trial_type": "mouselab-mdp", "trial_index": 34, "time_elapsed": 1223934, "internal_node_id": "0.0-6.0-1.0-25.0"}}, {"uniqueid": "w17360819:a66402186", "current_trial": 35, "dateTime": 1693565910995, "trialdata": {"revealed_states": [], "clicked_states": ["1", "2", "23", "24", "12", "13", "25", "26", "27", "28", "29", "30", "31", "32", "33"], "num_clicks_accrued": [0, 0, 0, 0, 0, 0, 0, 0, 0, 0, 0, 0, 0], "stateRewards": ["", -2, 3, -1, -9, 44, 48, -37, -3, 71, -39, 87, -1, 3, -4, 4, -21, 59, -15, -8, -1, 28, -38, 2, 4, 4, 8, -85, -72, -63, 14, 58, 63, -46], "withholdReward": false, "trial_id": "mdp_trial_27", "block": "test", "trialIndex": 28, "score": 69.75, "costs": -17.25, "simulationMode": [null, null, null, null, null], "rewards": [2, 4, 4, 14, 63], "path": ["0", "0", "23", "24", "25", "30", "32"], "rt": [28491, 213, 384, 281, 16], "actions": ["left", "left", "left", "down", "down"], "actionTimes": [31836, 32599, 33512, 34345, 34922], "queries": {"click": {"state": {"target": ["1", "2", "23", "24", "12", "13", "25", "26", "27", "28", "29", "30", "31", "32", "33"], "time": [5191, 5846, 7565, 8095, 8779, 9179, 10116, 10789, 11880, 15088, 18291, 21444, 22214, 25371, 28729]}, "edge": {"target": [], "time": []}}, "mouseover": {"state": {"target": ["1", "2", "3", "31", "23", "24", "23", "24", "12", "13", "25", "26", "27", "29", "28", "26", "29", "30", "31", "32", "33", "30"], "time": [4940, 5596, 6145, 6474, 7003, 7288, 7417, 7917, 8392, 8983, 9918, 10618, 11690, 12554, 13135, 15407, 15803, 18908, 21918, 22758, 25978, 29389]}, "edge": {"target": [], "time": []}}, "mouseout": {"state": {"target": ["22", "0", "1", "2", "3", "31", "23", "24", "23", "24", "23", "12", "13", "12", "23", "24", "25", "26", "27", "27", "29", "26", "28", "26", "29", "30", "31", "32", "33"], "time": [1490, 4867, 5322, 6003, 6296, 6607, 7075, 7374, 7803, 8273, 8379, 8920, 9307, 9451, 9651, 9856, 10335, 11246, 11987, 12342, 13055, 13120, 15338, 15599, 18586, 21802, 22475, 25718, 29188]}, "edge": {"target": [], "time": []}}}, "displayed_time": "35.51", "trialTime": 36621, "trial_type": "mouselab-mdp", "trial_index": 35, "time_elapsed": 1262970, "internal_node_id": "0.0-6.0-1.0-26.0"}}, {"uniqueid": "w17360819:a66402186", "current_trial": 36, "dateTime": 1693565947007, "trialdata": {"revealed_states": [], "clicked_states": ["12", "13", "1", "2", "23", "24", "3", "8", "4", "5", "6", "7", "9", "10", "11"], "num_clicks_accrued": [0, 0, 0, 0, 0, 0, 0, 0, 0, 0, 0, 0, 0], "stateRewards": ["", 2, 4, -3, 16, -58, 30, -35, 11, -60, 47, 27, -2, -1, -7, -16, 23, -70, 68, -10, -65, -43, -34, -2, 1, 7, 9, -63, 34, -31, -8, -12, -86, 59], "withholdReward": false, "trial_id": "mdp_trial_28", "block": "test", "trialIndex": 29, "score": 43.75, "costs": -17.25, "simulationMode": [null, null, null, null, null], "rewards": [2, 4, -3, 11, 47], "path": ["0", "0", "1", "2", "3", "8", "10"], "rt": [27022, 251, 98, 16, 141], "actions": ["up", "up", "up", "left", "down"], "actionTimes": [29431, 30202, 30845, 31384, 32089], "queries": {"click": {"state": {"target": ["12", "13", "1", "2", "23", "24", "3", "8", "4", "5", "6", "7", "9", "10", "11"], "time": [3797, 4365, 5414, 5850, 6568, 7014, 7833, 8696, 9366, 10604, 13714, 16841, 20004, 23174, 26312]}, "edge": {"target": [], "time": []}}, "mouseover": {"state": {"target": ["12", "13", "1", "1", "2", "23", "24", "3", "8", "4", "5", "6", "7", "2", "8", "9", "8", "10", "11"], "time": [3418, 4188, 4760, 5116, 5684, 6329, 6826, 7641, 8541, 9004, 10417, 11011, 14139, 17322, 17866, 18325, 20650, 21204, 23712]}, "edge": {"target": [], "time": []}}, "mouseout": {"state": {"target": ["30", "31", "23", "0", "12", "13", "1", "1", "2", "23", "24", "2", "3", "8", "4", "3", "3", "5", "6", "7", "2", "8", "9", "8", "10", "11", "11"], "time": [546, 593, 829, 3267, 4077, 4555, 4831, 5573, 6129, 6744, 7134, 7500, 8366, 8885, 9792, 9898, 10044, 10767, 14074, 17259, 17391, 17976, 20434, 20861, 23209, 26351, 28049]}, "edge": {"target": [], "time": []}}}, "displayed_time": "32.66", "trialTime": 33742, "trial_type": "mouselab-mdp", "trial_index": 36, "time_elapsed": 1298982, "internal_node_id": "0.0-6.0-1.0-27.0"}}, {"uniqueid": "w17360819:a66402186", "current_trial": 37, "dateTime": 1693565975974, "trialdata": {"revealed_states": [], "clicked_states": ["12", "1", "13", "18", "14", "19", "15", "20", "21", "22"], "num_clicks_accrued": [0, 0, 0, 0, 0, 0, 0, 0, 0, 0, 0, 0, 0], "stateRewards": ["", 2, 3, 6, -5, -74, -53, 17, -12, 46, 44, 18, -2, 4, 1, -8, 22, -23, -49, 9, -45, 55, 81, 1, -1, -7, -16, -83, -71, -45, 2, 51, 82, 61], "withholdReward": false, "trial_id": "mdp_trial_29", "block": "test", "trialIndex": 30, "score": 80.5, "costs": -12.5, "simulationMode": [null, null, null, null, null], "rewards": [-2, 4, 1, 9, 81], "path": ["0", "0", "12", "13", "14", "19", "22"], "rt": [19283, 308, 123, 16, 30], "actions": ["right", "right", "right", "down", "left"], "actionTimes": [21466, 22330, 22994, 23543, 24151], "queries": {"click": {"state": {"target": ["12", "1", "13", "18", "14", "19", "15", "20", "21", "22"], "time": [3443, 4053, 5102, 5648, 8644, 9734, 10870, 12057, 15250, 18480]}, "edge": {"target": [], "time": []}}, "mouseover": {"state": {"target": ["1", "0", "12", "1", "13", "13", "18", "14", "14", "19", "15", "20", "21", "22"], "time": [2843, 3063, 3344, 3908, 4515, 4839, 5325, 6209, 7203, 9523, 10681, 11877, 12597, 15550]}, "edge": {"target": [], "time": []}}, "mouseout": {"state": {"target": ["23", "0", "1", "0", "12", "1", "13", "13", "18", "14", "14", "19", "19", "15", "14", "19", "20", "21", "22"], "time": [424, 2650, 2992, 3253, 3597, 4235, 4591, 5268, 5946, 6906, 9114, 9841, 10421, 11273, 11569, 11859, 12390, 15430, 18872]}, "edge": {"target": [], "time": []}}}, "displayed_time": "24.69", "trialTime": 26485, "trial_type": "mouselab-mdp", "trial_index": 37, "time_elapsed": 1327950, "internal_node_id": "0.0-6.0-1.0-28.0"}}, {"uniqueid": "w17360819:a66402186", "current_trial": 38, "dateTime": 1693566010627, "trialdata": {"revealed_states": [], "clicked_states": ["12", "13", "14", "19", "15", "16", "17", "18", "1", "2", "23", "24", "25", "30", "26", "28"], "num_clicks_accrued": [0, 0, 0, 0, 0, 0, 0, 0, 0, 0, 0, 0, 0], "stateRewards": ["", -1, 3, 2, 9, 41, 4, -46, -12, -54, -87, -25, 2, 3, -1, 11, -77, 12, -33, -9, -32, 35, 72, 1, 3, -7, 4, 37, 65, -73, 6, 77, -43, 8], "withholdReward": false, "trial_id": "mdp_trial_30", "block": "test", "trialIndex": 31, "score": 49, "costs": -17, "simulationMode": [null, null, null, null, null], "rewards": [1, 3, -7, 4, 65], "path": ["0", "0", "23", "24", "25", "26", "28"], "rt": [25121, 48, 120, 21, 12], "actions": ["left", "left", "left", "up", "right"], "actionTimes": [27947, 28529, 29203, 29767, 30339], "queries": {"click": {"state": {"target": ["12", "13", "14", "19", "15", "16", "17", "18", "1", "2", "23", "24", "25", "30", "26", "28"], "time": [4691, 5175, 5709, 6490, 7366, 8343, 11474, 14796, 18442, 18975, 19992, 20912, 21557, 22217, 23106, 24338]}, "edge": {"target": [], "time": []}}, "mouseover": {"state": {"target": ["1", "1", "12", "12", "13", "14", "19", "15", "16", "17", "15", "18", "0", "23", "1", "2", "23", "24", "25", "30", "26", "28", "28", "27", "13"], "time": [3333, 3582, 3832, 4204, 4928, 5559, 6341, 7259, 8161, 8716, 11710, 12340, 15979, 16209, 18116, 18729, 19773, 20574, 21390, 22020, 22932, 23767, 24063, 24834, 25683]}, "edge": {"target": [], "time": []}}, "mouseout": {"state": {"target": ["20", "0", "1", "1", "12", "12", "13", "14", "19", "15", "16", "17", "15", "18", "0", "23", "1", "2", "23", "24", "25", "30", "26", "28", "28", "27"], "time": [29, 3236, 3420, 3634, 3933, 4862, 5224, 6078, 6784, 7766, 8506, 11692, 11770, 15344, 16093, 18021, 18573, 19167, 20101, 21183, 21931, 22727, 23704, 23821, 24558, 25297]}, "edge": {"target": [], "time": []}}}, "displayed_time": "30.92", "trialTime": 32027, "trial_type": "mouselab-mdp", "trial_index": 38, "time_elapsed": 1362603, "internal_node_id": "0.0-6.0-1.0-29.0"}}, {"uniqueid": "w17360819:a66402186", "current_trial": 39, "dateTime": 1693566041212, "trialdata": {"revealed_states": [], "clicked_states": ["12", "13", "14", "19", "15", "16", "17", "18", "1", "2", "23", "24", "25", "26", "30"], "num_clicks_accrued": [0, 0, 0, 0, 0, 0, 0, 0, 0, 0, 0, 0, 0], "stateRewards": ["", -1, -4, -1, -5, -28, -23, -15, -15, -38, 59, -87, 2, 2, -5, 9, -55, -39, -71, -6, 85, -85, -11, -1, -2, 5, -10, 1, 25, 41, -4, 69, -35, 86], "withholdReward": false, "trial_id": "mdp_trial_31", "block": "test", "trialIndex": 32, "score": -61.85, "costs": -14.85, "simulationMode": [null, null, null, null, null], "rewards": [2, 2, -5, 9, -55], "path": ["0", "0", "12", "13", "14", "15", "16"], "rt": [19534, 353, 87, 526, 79], "actions": ["right", "right", "right", "up", "up"], "actionTimes": [22888, 23786, 24429, 25496, 26128], "queries": {"click": {"state": {"target": ["12", "13", "14", "19", "15", "16", "17", "18", "1", "2", "23", "24", "25", "26", "30"], "time": [4344, 4938, 5522, 6249, 6906, 7630, 10847, 13940, 17598, 18166, 19394, 19904, 20537, 21068, 21995]}, "edge": {"target": [], "time": []}}, "mouseover": {"state": {"target": ["12", "13", "14", "19", "15", "16", "17", "15", "18", "1", "2", "24", "23", "24", "25", "26", "28", "30"], "time": [4073, 4780, 5324, 6001, 6696, 7384, 8018, 11067, 11139, 17307, 18010, 19029, 19288, 19670, 20153, 20822, 21360, 21763]}, "edge": {"target": [], "time": []}}, "mouseout": {"state": {"target": ["13", "12", "0", "12", "13", "14", "19", "14", "15", "16", "17", "15", "18", "1", "2", "24", "23", "24", "25", "26", "28", "25", "30"], "time": [1529, 1588, 3921, 4620, 5191, 5923, 6449, 6632, 7253, 7878, 11048, 11124, 17121, 17784, 18306, 19201, 19555, 20084, 20764, 21343, 21658, 21751, 22363]}, "edge": {"target": [], "time": []}}}, "displayed_time": "26.67", "trialTime": 28020, "trial_type": "mouselab-mdp", "trial_index": 39, "time_elapsed": 1393188, "internal_node_id": "0.0-6.0-1.0-30.0"}}, {"uniqueid": "w17360819:a66402186", "current_trial": 40, "dateTime": 1693566077467, "trialdata": {"revealed_states": [], "clicked_states": ["12", "13", "14", "15", "19", "21", "20", "22", "17", "16", "18"], "num_clicks_accrued": [0, 0, 0, 0, 0, 0, 0, 0, 0, 0, 0, 0, 0], "stateRewards": ["", -1, -3, 1, 13, -64, -29, 12, -4, -33, 50, 56, 2, -3, 4, 11, -64, -58, -55, 12, 47, 38, -25, -2, 2, 5, -15, 85, 7, 84, 10, 8, 57, 26], "withholdReward": false, "trial_id": "mdp_trial_32", "block": "test", "trialIndex": 33, "score": 44.95, "costs": -17.05, "simulationMode": [null, null, null, null, null], "rewards": [2, -3, 4, 12, 47], "path": ["0", "0", "12", "13", "14", "19", "20"], "rt": [26060, 400, 47, 612, 16], "actions": ["right", "right", "right", "down", "right"], "actionTimes": [28648, 29592, 30192, 31385, 31885], "queries": {"click": {"state": {"target": ["12", "13", "14", "15", "19", "21", "20", "22", "17", "16", "18"], "time": [3584, 4731, 5171, 5684, 6470, 7565, 10794, 14560, 18473, 22010, 25540]}, "edge": {"target": [], "time": []}}, "mouseover": {"state": {"target": ["12", "23", "15", "13", "14", "15", "19", "20", "21", "20", "20", "19", "22", "15", "17", "20", "16", "20", "14", "18", "20"], "time": [3405, 4033, 4138, 4585, 4942, 5444, 6276, 7050, 7276, 7796, 9256, 14041, 14249, 17909, 18207, 19587, 21775, 22517, 24786, 25226, 26108]}, "edge": {"target": [], "time": []}}, "mouseout": {"state": {"target": ["19", "22", "12", "0", "0", "12", "23", "15", "13", "14", "15", "14", "19", "19", "20", "21", "20", "20", "19", "22", "15", "17", "20", "16", "20", "14", "18", "20"], "time": [583, 673, 855, 911, 3361, 3856, 4121, 4221, 4890, 5302, 5884, 6164, 6516, 6843, 7166, 7655, 8918, 13636, 14192, 17821, 17966, 19336, 20972, 22295, 24616, 24891, 25777, 32890]}, "edge": {"target": [], "time": []}}}, "displayed_time": "32.45", "trialTime": 33661, "trial_type": "mouselab-mdp", "trial_index": 40, "time_elapsed": 1429442, "internal_node_id": "0.0-6.0-1.0-31.0"}}, {"uniqueid": "w17360819:a66402186", "current_trial": 41, "dateTime": 1693566116385, "trialdata": {"revealed_states": [], "clicked_states": ["12", "13", "14", "1", "2", "3", "4", "8", "6", "5", "7", "9", "10", "11"], "num_clicks_accrued": [0, 0, 0, 0, 0, 0, 0, 0, 0, 0, 0, 0, 0], "stateRewards": ["", 1, 1, 1, 15, -76, 52, -32, 14, -57, 37, 49, 1, -4, -3, 6, 83, -76, 25, 9, 36, -1, -17, -1, 4, 4, -2, -22, -21, 58, -15, -57, 49, -24], "withholdReward": false, "trial_id": "mdp_trial_33", "block": "test", "trialIndex": 34, "score": 51.9, "costs": -18.1, "simulationMode": [null, null, null, null, null], "rewards": [1, 1, 1, 15, 52], "path": ["0", "0", "1", "2", "3", "4", "6"], "rt": [28350, 259, 67, 577, 513], "actions": ["up", "up", "up", "right", "right"], "actionTimes": [30858, 31663, 32295, 33453, 34590], "queries": {"click": {"state": {"target": ["12", "13", "14", "1", "2", "3", "4", "8", "6", "5", "7", "9", "10", "11"], "time": [3310, 3845, 4345, 5409, 5963, 6486, 6964, 7976, 8892, 12897, 16653, 20538, 23976, 27714]}, "edge": {"target": [], "time": []}}, "mouseover": {"state": {"target": ["12", "13", "14", "1", "2", "3", "4", "8", "6", "5", "7", "6", "6", "3", "8", "9", "3", "4", "6", "2", "10", "10", "4", "6", "4", "11", "8", "6"], "time": [3116, 3683, 4255, 5240, 5582, 6243, 6799, 7761, 8724, 9629, 16369, 16823, 17129, 19912, 20082, 20349, 20844, 20930, 21063, 23487, 23596, 23766, 24301, 24430, 27173, 27486, 27898, 28379]}, "edge": {"target": [], "time": []}}, "mouseout": {"state": {"target": ["0", "12", "13", "14", "12", "1", "2", "3", "4", "8", "3", "4", "6", "5", "6", "7", "6", "6", "3", "8", "9", "3", "4", "6", "2", "10", "10", "4", "6", "4", "11", "8"], "time": [3015, 3564, 4110, 4618, 4963, 5530, 6016, 6728, 7255, 8287, 8400, 8661, 9166, 13189, 16121, 16749, 16899, 19863, 19967, 20216, 20774, 20912, 20995, 23398, 23547, 23657, 24125, 24375, 27116, 27244, 27878, 27958]}, "edge": {"target": [], "time": []}}}, "displayed_time": "35.13", "trialTime": 36421, "trial_type": "mouselab-mdp", "trial_index": 41, "time_elapsed": 1468360, "internal_node_id": "0.0-6.0-1.0-32.0"}}, {"uniqueid": "w17360819:a66402186", "current_trial": 42, "dateTime": 1693566146672, "trialdata": {"revealed_states": [], "clicked_states": ["12", "1", "2", "23", "24", "13", "3", "4", "7", "6", "5", "8", "9"], "num_clicks_accrued": [0, 0, 0, 0, 0, 0, 0, 0, 0, 0, 0, 0, 0], "stateRewards": ["", 2, -3, -5, 5, 11, -9, -33, 6, 67, 6, -30, -1, -2, -6, 13, 55, 13, 72, -14, 75, 21, -66, -2, -4, 6, 15, -1, -35, 60, 2, 51, -73, 12], "withholdReward": false, "trial_id": "mdp_trial_34", "block": "test", "trialIndex": 35, "score": 54.05, "costs": -12.950000000000001, "simulationMode": [null, null, null, null, null], "rewards": [2, -3, -5, 6, 67], "path": ["0", "0", "1", "2", "3", "8", "9"], "rt": [21079, 291, 165, 19, 31], "actions": ["up", "up", "up", "left", "up"], "actionTimes": [23588, 24491, 25208, 25783, 26378], "queries": {"click": {"state": {"target": ["12", "1", "2", "23", "24", "13", "3", "4", "7", "6", "5", "8", "9"], "time": [3452, 4086, 4582, 5645, 6036, 7034, 8174, 8550, 9109, 12499, 15613, 18777, 19905]}, "edge": {"target": [], "time": []}}, "mouseover": {"state": {"target": ["12", "1", "2", "23", "24", "12", "13", "3", "4", "7", "6", "6", "18", "6", "5", "8", "9", "10"], "time": [3243, 3888, 4288, 5404, 5820, 6744, 6877, 7958, 8387, 8930, 9286, 9615, 10820, 11950, 13055, 16261, 19340, 20470]}, "edge": {"target": [], "time": []}}, "mouseout": {"state": {"target": ["0", "0", "12", "1", "2", "23", "24", "12", "13", "3", "4", "7", "6", "6", "4", "18", "6", "5", "8", "9", "8"], "time": [656, 3112, 3503, 4194, 4655, 5775, 6303, 6821, 7289, 8333, 8788, 9252, 9446, 10207, 10648, 11014, 12720, 15861, 19074, 20110, 20349]}, "edge": {"target": [], "time": []}}}, "displayed_time": "26.93", "trialTime": 27832, "trial_type": "mouselab-mdp", "trial_index": 42, "time_elapsed": 1498651, "internal_node_id": "0.0-6.0-1.0-33.0"}}, {"uniqueid": "w17360819:a66402186", "current_trial": 43, "dateTime": 1693566186527, "trialdata": {"revealed_states": [], "clicked_states": ["12", "13", "14", "1", "2", "23", "24", "25", "30", "31", "32", "33", "26", "28", "27", "29"], "num_clicks_accrued": [0, 0, 0, 0, 0, 0, 0, 0, 0, 0, 0, 0, 0], "stateRewards": ["", -1, 4, -5, 9, 29, -75, -42, -16, 24, -28, -41, 2, -3, 1, 10, 60, 47, 55, -1, -53, 22, -40, 2, -3, -6, 4, -26, 44, 54, 15, -76, 42, 14], "withholdReward": false, "trial_id": "mdp_trial_35", "block": "test", "trialIndex": 36, "score": 32.8, "costs": -18.2, "simulationMode": [null, null, null, null, null], "rewards": [2, -3, -6, 4, 54], "path": ["0", "0", "23", "24", "25", "26", "29"], "rt": [29778, 172, 442, 45, 84], "actions": ["left", "left", "left", "up", "left"], "actionTimes": [32806, 33552, 34562, 35143, 35783], "queries": {"click": {"state": {"target": ["12", "13", "14", "1", "2", "23", "24", "25", "30", "31", "32", "33", "26", "28", "27", "29"], "time": [3981, 4479, 5155, 6057, 6469, 7446, 7952, 8634, 9209, 10014, 13159, 16412, 19627, 22660, 25931, 29631]}, "edge": {"target": [], "time": []}}, "mouseover": {"state": {"target": ["12", "13", "14", "0", "1", "2", "23", "24", "25", "30", "31", "32", "30", "33", "33", "25", "26", "27", "32", "30", "25", "28", "26", "27", "26", "29", "28"], "time": [3738, 4370, 5001, 5673, 5871, 6212, 7034, 7771, 8411, 9003, 9475, 10609, 13567, 13709, 13978, 18027, 18213, 20104, 20583, 21248, 21319, 21571, 25137, 25619, 26760, 29270, 30376]}, "edge": {"target": [], "time": []}}, "mouseout": {"state": {"target": ["10", "1", "12", "13", "14", "13", "12", "0", "1", "2", "2", "23", "24", "25", "30", "31", "32", "30", "33", "33", "25", "26", "27", "32", "30", "25", "28", "26", "27", "26", "28", "27", "29", "28", "24"], "time": [495, 1217, 4264, 4794, 5303, 5450, 5600, 5752, 6199, 6703, 6888, 7663, 8330, 8926, 9392, 10200, 13501, 13632, 13769, 17959, 18093, 19834, 20298, 21184, 21301, 21381, 23512, 25337, 26202, 26822, 28588, 29005, 30016, 36655, 37036]}, "edge": {"target": [], "time": []}}}, "displayed_time": "36.32", "trialTime": 37335, "trial_type": "mouselab-mdp", "trial_index": 43, "time_elapsed": 1538503, "internal_node_id": "0.0-6.0-1.0-34.0"}}, {"uniqueid": "w17360819:a66402186", "current_trial": 44, "dateTime": 1693566220525, "trialdata": {"revealed_states": [], "clicked_states": ["1", "2", "12", "13", "23", "24", "25", "26", "30", "3", "4", "5", "6", "7", "8", "9"], "num_clicks_accrued": [0, 0, 0, 0, 0, 0, 0, 0, 0, 0, 0, 0, 0], "stateRewards": ["", -1, 2, 6, 11, 21, -21, -21, -6, 48, -71, 88, -1, -3, 3, 7, 64, 2, 9, -4, 37, -67, 72, 2, 2, -8, -8, -10, 71, -40, -3, 73, 80, 47], "withholdReward": false, "trial_id": "mdp_trial_36", "block": "test", "trialIndex": 37, "score": 32, "costs": -17, "simulationMode": [null, null, null, null, null], "rewards": [-1, 2, 6, -6, 48], "path": ["0", "0", "1", "2", "3", "8", "9"], "rt": [24145, 525, 32, 74, 66], "actions": ["up", "up", "up", "left", "up"], "actionTimes": [26435, 27539, 28234, 28858, 29482], "queries": {"click": {"state": {"target": ["1", "2", "12", "13", "23", "24", "25", "26", "30", "3", "4", "5", "6", "7", "8", "9"], "time": [3331, 3901, 4956, 5434, 6148, 6559, 7143, 7750, 8357, 10285, 10790, 11548, 14744, 17939, 21714, 22646]}, "edge": {"target": [], "time": []}}, "mouseover": {"state": {"target": ["0", "1", "2", "3", "12", "13", "23", "24", "25", "26", "30", "31", "31", "1", "2", "3", "4", "5", "6", "7", "4", "3", "8", "5", "8", "3", "9", "11", "10"], "time": [2351, 3086, 3665, 4227, 4820, 5252, 5863, 6311, 6932, 7581, 8130, 8870, 9192, 9770, 9919, 10189, 10647, 11320, 12152, 15330, 18441, 18630, 18759, 20141, 21389, 22140, 22402, 23124, 23719]}, "edge": {"target": [], "time": []}}, "mouseout": {"state": {"target": ["0", "0", "1", "2", "3", "12", "13", "12", "23", "24", "25", "26", "25", "30", "31", "31", "1", "2", "3", "4", "5", "6", "7", "4", "3", "8", "5", "8", "3", "9", "9", "11"], "time": [798, 2861, 3469, 3962, 4489, 5120, 5702, 5782, 6297, 6793, 7433, 7941, 8018, 8610, 8975, 9570, 9817, 9981, 10511, 11103, 11796, 15162, 18211, 18506, 18702, 19659, 21254, 22001, 22209, 22723, 22906, 23650]}, "edge": {"target": [], "time": []}}}, "displayed_time": "30.05", "trialTime": 31243, "trial_type": "mouselab-mdp", "trial_index": 44, "time_elapsed": 1572503, "internal_node_id": "0.0-6.0-1.0-35.0"}}, {"uniqueid": "w17360819:a66402186", "current_trial": 45, "dateTime": 1693566247634, "trialdata": {"revealed_states": [], "clicked_states": ["12", "13", "14", "23", "24", "1", "2", "3", "4", "8", "10", "5", "6"], "num_clicks_accrued": [0, 0, 0, 0, 0, 0, 0, 0, 0, 0, 0, 0, 0], "stateRewards": ["", 1, 1, 7, -11, 80, -20, -53, -14, 3, 31, 27, 2, -1, -8, -10, 33, 41, 86, 9, 78, -37, -13, -1, -2, -6, -8, -80, 75, 4, -16, -49, -74, 24], "withholdReward": false, "trial_id": "mdp_trial_37", "block": "test", "trialIndex": 38, "score": 66.25, "costs": -11.75, "simulationMode": [null, null, null, null, null], "rewards": [1, 1, 7, -11, 80], "path": ["0", "0", "1", "2", "3", "4", "5"], "rt": [17759, 333, 108, 17, 25], "actions": ["up", "up", "up", "right", "up"], "actionTimes": [20185, 21105, 21782, 22371, 22963], "queries": {"click": {"state": {"target": ["12", "13", "14", "23", "24", "1", "2", "3", "4", "8", "10", "5", "6"], "time": [3431, 4064, 4617, 5751, 6383, 6993, 7900, 8548, 9142, 9953, 10539, 13868, 17025]}, "edge": {"target": [], "time": []}}, "mouseover": {"state": {"target": ["12", "13", "14", "23", "24", "1", "2", "2", "3", "4", "8", "10", "9", "5", "6", "7"], "time": [3287, 3983, 4463, 5586, 6116, 6814, 7302, 7696, 8348, 9055, 9708, 10377, 10940, 12122, 14584, 17970]}, "edge": {"target": [], "time": []}}, "mouseout": {"state": {"target": ["10", "1", "0", "12", "13", "14", "23", "24", "1", "2", "2", "3", "4", "8", "10", "8", "9", "5", "5", "6", "7", "16"], "time": [300, 517, 3004, 3646, 4361, 4936, 5950, 6548, 7150, 7549, 8087, 8968, 9367, 10263, 10726, 10816, 11374, 14046, 14332, 17901, 20554, 22324]}, "edge": {"target": [], "time": []}}}, "displayed_time": "23.52", "trialTime": 24551, "trial_type": "mouselab-mdp", "trial_index": 45, "time_elapsed": 1599612, "internal_node_id": "0.0-6.0-1.0-36.0"}}, {"uniqueid": "w17360819:a66402186", "current_trial": 46, "dateTime": 1693566282225, "trialdata": {"revealed_states": [], "clicked_states": ["12", "13", "14", "15", "19", "20", "21", "22", "17", "16", "18"], "num_clicks_accrued": [0, 0, 0, 0, 0, 0, 0, 0, 0, 0, 0, 0, 0], "stateRewards": ["", 1, 3, -2, 15, 51, 15, -19, 11, 67, -45, -73, 2, 4, -2, -13, 36, 9, -28, 10, -30, 31, 16, 1, 2, -1, -16, 14, -22, 36, -1, 88, -5, 45], "withholdReward": false, "trial_id": "mdp_trial_38", "block": "test", "trialIndex": 39, "score": 9.95, "costs": -17.05, "simulationMode": [null, null, null, null, null], "rewards": [2, 4, -2, -13, 36], "path": ["0", "0", "12", "13", "14", "15", "16"], "rt": [24927, 70, 59, 18, 17], "actions": ["right", "right", "right", "up", "up"], "actionTimes": [27662, 28287, 28893, 29475, 30070], "queries": {"click": {"state": {"target": ["12", "13", "14", "15", "19", "20", "21", "22", "17", "16", "18"], "time": [3433, 4066, 4559, 5218, 6288, 6768, 9984, 13160, 16364, 19972, 23269]}, "edge": {"target": [], "time": []}}, "mouseover": {"state": {"target": ["0", "12", "13", "14", "15", "19", "20", "21", "22", "14", "17", "16", "21", "14", "15", "16", "18"], "time": [2786, 3218, 3827, 4419, 5028, 6094, 6583, 7069, 10485, 13921, 14215, 16861, 18024, 18692, 19031, 19494, 20486]}, "edge": {"target": [], "time": []}}, "mouseout": {"state": {"target": ["15", "12", "0", "12", "13", "14", "15", "15", "19", "20", "21", "22", "14", "17", "16", "21", "14", "15", "16", "18", "18", "16", "16"], "time": [634, 872, 3169, 3714, 4274, 4951, 5384, 5839, 6469, 6924, 10104, 13481, 13989, 16515, 17844, 18625, 18761, 19293, 20304, 23311, 23728, 23789, 29315]}, "edge": {"target": [], "time": []}}}, "displayed_time": "30.64", "trialTime": 31912, "trial_type": "mouselab-mdp", "trial_index": 46, "time_elapsed": 1634202, "internal_node_id": "0.0-6.0-1.0-37.0"}}, {"uniqueid": "w17360819:a66402186", "current_trial": 47, "dateTime": 1693566310819, "trialdata": {"revealed_states": [], "clicked_states": ["12", "13", "14", "15", "19", "20", "23", "24", "1", "2", "21", "22"], "num_clicks_accrued": [0, 0, 0, 0, 0, 0, 0, 0, 0, 0, 0, 0, 0], "stateRewards": ["", -2, 2, 3, -7, 76, 63, 21, 15, 35, -8, -44, 1, 1, -2, -12, 23, 24, 76, -9, 46, 66, -49, -2, -1, 7, 12, 40, -71, -45, -6, 38, -49, 46], "withholdReward": false, "trial_id": "mdp_trial_39", "block": "test", "trialIndex": 40, "score": 46.2, "costs": -10.799999999999999, "simulationMode": [null, null, null, null, null], "rewards": [1, 1, -2, -9, 66], "path": ["0", "0", "12", "13", "14", "19", "21"], "rt": [17993, 235, 440, 454, 177], "actions": ["right", "right", "right", "down", "down"], "actionTimes": [20559, 21399, 22385, 23388, 24103], "queries": {"click": {"state": {"target": ["12", "13", "14", "15", "19", "20", "23", "24", "1", "2", "21", "22"], "time": [3753, 4221, 4715, 5375, 6024, 6809, 10276, 11380, 12440, 13079, 13999, 17457]}, "edge": {"target": [], "time": []}}, "mouseover": {"state": {"target": ["0", "12", "13", "14", "15", "19", "20", "23", "23", "23", "24", "1", "2", "22", "21", "22", "20"], "time": [2618, 3527, 3999, 4623, 5203, 5912, 6685, 7719, 8731, 9795, 11157, 12135, 12885, 13583, 13837, 14589, 18033]}, "edge": {"target": [], "time": []}}, "mouseout": {"state": {"target": ["19", "0", "0", "12", "13", "14", "15", "14", "19", "20", "20", "14", "23", "23", "23", "24", "23", "1", "2", "22", "21", "22", "20"], "time": [137, 938, 3260, 3883, 4482, 5120, 5569, 5717, 6171, 6861, 6981, 7300, 8109, 9438, 10944, 11792, 11918, 12626, 13434, 13704, 14278, 17772, 18103]}, "edge": {"target": [], "time": []}}}, "displayed_time": "24.64", "trialTime": 25750, "trial_type": "mouselab-mdp", "trial_index": 47, "time_elapsed": 1662794, "internal_node_id": "0.0-6.0-1.0-38.0"}}, {"uniqueid": "w17360819:a66402186", "current_trial": 48, "dateTime": 1693566354533, "trialdata": {"revealed_states": [], "clicked_states": ["1", "2", "23", "24", "3", "4", "8", "6", "5", "7", "9", "10", "11", "12", "13", "14", "19", "21", "20"], "num_clicks_accrued": [0, 0, 0, 0, 0, 0, 0, 0, 0, 0, 0, 0, 0], "stateRewards": ["", -1, 3, -7, 16, -32, -74, -48, 2, 10, 15, -30, 1, 1, -2, 10, 12, -83, 67, 13, -66, 47, 65, -2, 4, 2, -14, -8, -57, 24, 9, 65, 12, 46], "withholdReward": false, "trial_id": "mdp_trial_40", "block": "test", "trialIndex": 41, "score": 35.95, "costs": -24.05, "simulationMode": [null, null, null, null, null, null], "rewards": [1, 1, -2, 13, 47], "path": ["0", "0", "12", "13", "14", "19", "21"], "rt": [32884, 178, 324, 475, 179, 17], "actions": ["right", "right", "right", "right", "down", "down"], "actionTimes": [35403, 35597, 36636, 37709, 38467, 39025], "queries": {"click": {"state": {"target": ["1", "2", "23", "24", "3", "4", "8", "6", "5", "7", "9", "10", "11", "12", "13", "14", "19", "21", "20"], "time": [3370, 4007, 5310, 5799, 6794, 7175, 7970, 8853, 12014, 15205, 18402, 21612, 25052, 28807, 29266, 29752, 30582, 31724, 34998]}, "edge": {"target": [], "time": []}}, "mouseover": {"state": {"target": ["1", "2", "3", "23", "24", "3", "4", "8", "6", "5", "5", "4", "7", "11", "9", "8", "10", "11", "11", "28", "25", "23", "0", "12", "13", "14", "19", "21", "20"], "time": [3127, 3631, 4398, 5128, 5628, 6625, 7029, 7786, 8676, 9555, 11347, 12468, 12677, 15888, 16217, 18836, 18998, 21949, 22239, 25501, 25924, 28384, 28527, 28661, 29102, 29490, 30377, 31651, 32226]}, "edge": {"target": [], "time": []}}, "mouseout": {"state": {"target": ["22", "0", "1", "2", "3", "23", "24", "3", "4", "3", "8", "4", "6", "5", "5", "4", "7", "11", "9", "8", "10", "11", "11", "28", "25", "23", "0", "12", "13", "14", "19", "21", "20"], "time": [205, 2977, 3450, 4107, 4611, 5475, 6153, 7011, 7420, 7637, 8285, 8557, 9115, 10851, 12394, 12551, 15589, 15951, 18707, 18923, 21772, 22101, 25378, 25570, 28323, 28474, 28591, 28980, 29402, 30299, 30790, 31841, 35389]}, "edge": {"target": [], "time": []}}}, "displayed_time": "39.58", "trialTime": 40607, "trial_type": "mouselab-mdp", "trial_index": 48, "time_elapsed": 1706511, "internal_node_id": "0.0-6.0-1.0-39.0"}}, {"uniqueid": "w17360819:a66402186", "current_trial": 49, "dateTime": 1693566407498, "trialdata": {"rt": 52933, "response": {"Q0": "$-2 to $2", "Q1": "$-16 to $16", "Q2": "$-88 to $88", "Q3": "The cost for clicking on nodes varied between nodes.", "Q4": "Very motivated"}, "question_order": [0, 1, 2, 3, 4], "trial_id": "final_quiz_control", "trial_type": "survey-multi-choice", "trial_index": 49, "time_elapsed": 1759478, "internal_node_id": "0.0-6.0-2.0"}}, {"uniqueid": "w17360819:a66402186", "current_trial": 50, "dateTime": 1693566560319, "trialdata": {"rt": 152766, "response": {"Q0": "clicking on as much nodes as possible and using the path with the most green nodes and high node value was my strategy", "Q1": "yes i did , i started clicking on the far end node rather than the nodes near the center to go for the highest node", "Q2": "because of the time constraint it was not easy to just improve my performance "}, "trial_id": "self_report_control", "trial_type": "survey-text", "trial_index": 50, "time_elapsed": 1912300, "internal_node_id": "0.0-6.0-3.0"}}, {"uniqueid": "w17360819:a66402186", "current_trial": 51, "dateTime": 1693566618035, "trialdata": {"rt": 57687, "response": {"Q0": "Agree", "Q1": "Neither disagree nor agree", "Q2": "Agree", "Q3": "Agree", "Q4": "Agree", "Q5": "Agree", "Q6": "Disagree"}, "question_order": [0, 1, 2, 3, 4, 5, 6], "trial_id": "self_report_2", "trial_type": "survey-multi-choice", "trial_index": 51, "time_elapsed": 1970015, "internal_node_id": "0.0-6.0-4.0"}}, {"uniqueid": "w17360819:a66402186", "current_trial": 52, "dateTime": 1693566645205, "trialdata": {"rt": 27142, "response": {"gender": "male", "age": "23", "colorblind": "0", "effort": "0"}, "trial_type": "survey-html-form", "trial_index": 52, "time_elapsed": 1997185, "internal_node_id": "0.0-6.0-5.0"}}, {"uniqueid": "w17360819:a66402186", "current_trial": 53, "dateTime": 1693566678220, "trialdata": {"rt": 32977, "response": {"Q0": "No everything was easy to understand", "Q1": "No", "Q2": ""}, "trial_type": "survey-text", "trial_index": 53, "time_elapsed": 2030201, "internal_node_id": "0.0-6.0-6.0"}}, {"uniqueid": "w17360819:a66402186", "current_trial": 54, "dateTime": 1693566707072, "trialdata": {"rt": 28832, "stimulus": "<h1>Completion Code Instructions (1/2)</h1>\n<br><br><br><br>\nYou have reached the end of the experiment! The completion code consists of two parts: (1) a code with 2 characters (2) a code with 6 characters. On this page, you will receive the second part of the code. The first part of the completion code will be on the next page.\n<br><br>\nThe second part of your completion code is: <b>EWEK22</b>\n<br><br>\nPlease note this down. Then, press 'Finish HIT' in order to find the first part of your completion code. Once the data has been saved, you will receive this code either in this window or in the original browser window where you started the experiment.\n", "response": 0, "trial_type": "html-button-response", "trial_index": 54, "time_elapsed": 2059052, "internal_node_id": "0.0-6.0-7.0"}}, {"uniqueid": "w17360819:a66402186", "current_trial": 55, "dateTime": 1693566708109, "trialdata": {"success": true, "trial_type": "fullscreen", "trial_index": 55, "time_elapsed": 2060090, "internal_node_id": "0.0-7.0"}}], "questiondata": {"params": {"CODE": "C6DMOQA6", "MIN_TIME": 14, "inspectCost": 1, "startTime": "Fri Sep 01 2023 12:37:23 GMT+0200 (South Africa Standard Time)", "bonusRate": 0.002, "variance": "1_2_4_8_44", "branching": "31123"}}, "eventdata": [{"eventtype": "initialized", "value": null, "timestamp": 1693564642994, "interval": 0}, {"eventtype": "window_resize", "value": [1024, 767], "timestamp": 1693564642995, "interval": 1}, {"eventtype": "window_resize", "value": [1024, 767], "timestamp": 1693564643638, "interval": 643}, {"eventtype": "window_resize", "value": [1920, 1080], "timestamp": 1693564658397, "interval": 14759}, {"eventtype": "window_resize", "value": [1024, 767], "timestamp": 1693566707569, "interval": 2049172}], "useragent": "Mozilla/5.0 (Windows NT 10.0; Win64; x64) AppleWebKit/537.36 (KHTML, like Gecko) Chrome/116.0.0.0 Safari/537.36", "mode": "live", "id": "w17360819:a66402186", "status": "user data saved", "Beginhit": "2023-09-01 10:37:26.552759", "Beginexp": "2023-09-01 10:37:48.331863", "Endhit": "2023-09-01 11:11:59.60988", "psiturkStatus": 3, "browser": "<redacted>", "platform": "windows", "language": "en-US"}