{"condition": 1, "counterbalance": 0, "assignmentId": "a33803546", "workerId": "w12271574", "hitId": "h91683474", "currenttrial": 56, "bonus": 0, "data": [{"uniqueid": "w12271574:a33803546", "current_trial": 0, "dateTime": 1693660641066, "trialdata": {"success": true, "trial_type": "fullscreen", "trial_index": 0, "time_elapsed": 3581, "internal_node_id": "0.0-0.0"}}, {"uniqueid": "w12271574:a33803546", "current_trial": 1, "dateTime": 1693660643808, "trialdata": {"view_history": [{"page_index": 0, "viewing_time": 2740}], "rt": 2740, "trial_id": "exp_instructions_misaligned", "trial_type": "instructions", "trial_index": 1, "time_elapsed": 6323, "internal_node_id": "0.0-1.0"}}, {"uniqueid": "w12271574:a33803546", "current_trial": 2, "dateTime": 1693660847465, "trialdata": {"view_history": [{"page_index": 0, "viewing_time": 45527}, {"page_index": 1, "viewing_time": 67168}, {"page_index": 2, "viewing_time": 13288}, {"page_index": 3, "viewing_time": 77672}], "rt": 203655, "trial_id": "mouselab_instructions_1_misaligned", "trial_type": "instructions", "trial_index": 2, "time_elapsed": 209980, "internal_node_id": "0.0-2.0-1.0"}}, {"uniqueid": "w12271574:a33803546", "current_trial": 3, "dateTime": 1693660908744, "trialdata": {"revealed_states": [], "clicked_states": ["23", "24", "28", "26", "27", "29", "25", "31", "30", "33", "32", "1", "2", "3", "8", "10", "11", "9", "5", "6", "4", "7", "12", "13", "14", "19", "15", "22", "21", "20", "18", "16", "17"], "num_clicks_accrued": [0, 0, 0, 0, 0, 0, 0, 0, 0, 0, 0, 0, 0], "stateRewards": ["", -10, -10, 10, 10, -10, 10, 10, -10, 10, -10, 10, 10, 10, -10, 10, -10, -10, -10, 10, 10, 10, -10, -10, -10, -10, 10, -10, 10, 10, -10, 10, 10, 10], "withholdReward": false, "trial_id": "practice_1", "block": "test", "trialIndex": 0, "score": 17, "costs": -16.5, "simulationMode": [null, null, null, null, null], "rewards": [10, 10, -10, 10, 10], "path": ["0", "0", "12", "13", "14", "19", "20"], "rt": [52032, 412, 173, 56, 93], "actions": ["right", "right", "right", "down", "right"], "actionTimes": [54299, 55212, 55875, 56424, 57012], "queries": {"click": {"state": {"target": ["23", "24", "28", "26", "27", "29", "25", "31", "30", "33", "32", "1", "2", "3", "8", "10", "11", "9", "5", "6", "4", "7", "12", "13", "14", "19", "15", "22", "21", "20", "18", "16", "17"], "time": [5852, 7529, 8578, 11065, 12826, 14578, 16002, 17418, 18922, 20025, 21353, 23545, 24698, 25897, 27273, 28737, 29913, 31154, 32330, 33402, 34482, 35722, 36993, 38018, 39066, 40978, 42098, 43833, 44898, 45970, 47065, 48394, 49569]}, "edge": {"target": [], "time": []}}, "mouseover": {"state": {"target": ["23", "24", "28", "26", "27", "26", "27", "29", "25", "31", "30", "33", "32", "31", "6", "7", "1", "2", "3", "8", "10", "11", "9", "5", "5", "6", "4", "7", "18", "22", "12", "13", "14", "15", "15", "19", "15", "22", "21", "20", "17", "16", "18", "16", "17", "19", "0", "8", "9"], "time": [5425, 6592, 8394, 9328, 10463, 10946, 11647, 13832, 15166, 16651, 17968, 19253, 20304, 21655, 22939, 23039, 23406, 23873, 24941, 26342, 27777, 29445, 30246, 31530, 31880, 32881, 33899, 35083, 36050, 36434, 36769, 37552, 38352, 39637, 40037, 40521, 41438, 42856, 44124, 45308, 46343, 46626, 46910, 47377, 48895, 50612, 52314, 53265, 53298]}, "edge": {"target": [], "time": []}}, "mouseout": {"state": {"target": ["0", "0", "23", "24", "28", "26", "27", "26", "27", "27", "29", "25", "31", "31", "30", "33", "32", "31", "6", "7", "1", "2", "3", "8", "10", "8", "11", "9", "5", "5", "6", "4", "7", "7", "18", "22", "12", "13", "14", "15", "15", "14", "19", "19", "14", "15", "14", "22", "21", "20", "17", "16", "18", "16", "17", "19", "0", "8", "9"], "time": [153, 5258, 6459, 8127, 8703, 10295, 10879, 11079, 12951, 13415, 15083, 16500, 17520, 17768, 19152, 20270, 21605, 21671, 22989, 23107, 23773, 24857, 26259, 27643, 29011, 29111, 30016, 31463, 31580, 32715, 33832, 34900, 35808, 35967, 36168, 36634, 37418, 38336, 39370, 39870, 40154, 40271, 40988, 41088, 41221, 42622, 42756, 44057, 45058, 46056, 46392, 46843, 47227, 48611, 49795, 50646, 53248, 53282, 59303]}, "edge": {"target": [], "time": []}}}, "displayed_time": "57.50", "trialTime": 60436, "trial_type": "mouselab-mdp", "trial_index": 3, "time_elapsed": 271259, "internal_node_id": "0.0-2.0-2.0-0.0"}}, {"uniqueid": "w12271574:a33803546", "current_trial": 4, "dateTime": 1693660929683, "trialdata": {"revealed_states": [], "clicked_states": ["23", "24", "25", "30", "33", "32", "31"], "num_clicks_accrued": [0, 0, 0, 0, 0, 0, 0, 0, 0, 0, 0, 0, 0], "stateRewards": ["", 10, 10, -10, -10, -10, 10, 10, -10, 10, -10, -10, 10, 10, -10, 10, 10, -10, -10, 10, -10, 10, 10, -10, 10, 10, 10, -10, -10, -10, 10, 10, 10, 10], "withholdReward": false, "trial_id": "practice_2", "block": "test", "trialIndex": 1, "score": 30, "costs": -3.5, "simulationMode": [null, null, null, null, null], "rewards": [-10, 10, 10, 10, 10], "path": ["0", "0", "23", "24", "25", "30", "33"], "rt": [12159, 237, 127, 172, 155], "actions": ["left", "left", "left", "down", "left"], "actionTimes": [15422, 16150, 16774, 17436, 18086], "queries": {"click": {"state": {"target": ["23", "24", "25", "30", "33", "32", "31"], "time": [6015, 7390, 8622, 9886, 10935, 12126, 13310]}, "edge": {"target": [], "time": []}}, "mouseover": {"state": {"target": ["23", "24", "25", "30", "33", "32", "31", "31", "22", "19", "20"], "time": [4903, 6387, 7888, 9623, 10457, 11341, 12842, 13126, 13777, 13795, 13827]}, "edge": {"target": [], "time": []}}, "mouseout": {"state": {"target": ["9", "2", "1", "23", "0", "23", "24", "25", "30", "33", "32", "31", "31", "22", "19", "20"], "time": [181, 2252, 2417, 2635, 4437, 6271, 7738, 9456, 10257, 11208, 12459, 12959, 13677, 13793, 13810, 13860]}, "edge": {"target": [], "time": []}}}, "displayed_time": "18.58", "trialTime": 20836, "trial_type": "mouselab-mdp", "trial_index": 4, "time_elapsed": 292197, "internal_node_id": "0.0-2.0-2.0-1.0"}}, {"uniqueid": "w12271574:a33803546", "current_trial": 5, "dateTime": 1693660957145, "trialdata": {"view_history": [{"page_index": 0, "viewing_time": 22061}, {"page_index": 1, "viewing_time": 5400}], "rt": 27461, "trial_id": "mouselab_instructions_2_misaligned", "trial_type": "instructions", "trial_index": 5, "time_elapsed": 319660, "internal_node_id": "0.0-2.0-3.0"}}, {"uniqueid": "w12271574:a33803546", "current_trial": 6, "dateTime": 1693660991226, "trialdata": {"rt": 34078, "response": {"Q0": "The cost for clicking on nodes may vary between nodes.", "Q1": "The better I perform the higher my bonus will be.", "Q2": "No, the amount of cash at each node of the web may be different each time.", "Q3": "To get the highest total score.", "Q4": "Only before moving the spider.", "Q5": "3 seconds"}, "question_order": [0, 1, 2, 3, 4, 5], "correct": {"Q0": "The cost for clicking on nodes may vary between nodes.", "Q1": "The better I perform the higher my bonus will be.", "Q2": "No, the amount of cash at each node of the web may be different each time.", "Q3": "To get the highest total score.", "Q4": "Only before moving the spider.", "Q5": "3 seconds"}, "trial_id": "mouselab_quiz_misaligned", "trial_type": "survey-multi-choice", "trial_index": 6, "time_elapsed": 353741, "internal_node_id": "0.0-2.0-4.0"}}, {"uniqueid": "w12271574:a33803546", "current_trial": 7, "dateTime": 1693660998266, "trialdata": {"rt": 7037, "response": {"Q0": "No"}, "question_order": [0], "trial_id": "repeat_check", "trial_type": "survey-multi-choice", "trial_index": 7, "time_elapsed": 360781, "internal_node_id": "0.0-4.0-0.0"}}, {"uniqueid": "w12271574:a33803546", "current_trial": 8, "dateTime": 1693661019721, "trialdata": {"rt": 21452, "stimulus": "\n<h1> Get ready to start the game! </h1>\n\nThank you for reading the instructions. Get ready start with the 40 rounds of this game.\n<br><br>\nIf you need to take a break, feel free to take one after the end of a round, before continuing to the next one.\n<br><br>\nRemember, the more money the spider gets, the bigger your bonus will be!\n<br><br>\n<div style='text-align: center;'>Press <code>space</code> to begin.</div>\n\n<br><br>\n(If, at any point, the <code>space</code> key does not take you to the next page, click once on the text and try again.)", "response": " ", "trial_id": "mdp_ready", "trial_type": "html-keyboard-response", "trial_index": 8, "time_elapsed": 382236, "internal_node_id": "0.0-6.0-0.0"}}, {"uniqueid": "w12271574:a33803546", "current_trial": 9, "dateTime": 1693661041747, "trialdata": {"revealed_states": [], "clicked_states": ["23", "24", "25", "30", "33", "32"], "num_clicks_accrued": [0, 0, 0, 0, 0, 0, 0, 0, 0, 0, 0, 0, 0], "stateRewards": ["", -2, -3, -6, -7, 9, 16, 65, 5, -41, 20, -25, -1, -4, 1, -11, -49, -4, 71, 1, 39, -62, 52, -2, -3, 7, -9, -28, -70, 84, 8, 24, -58, 82], "withholdReward": false, "trial_id": "mdp_trial_1", "block": "test", "trialIndex": 2, "score": 85.1, "costs": -6.9, "simulationMode": [null, null, null, null, null], "rewards": [-2, -3, 7, 8, 82], "path": ["0", "0", "23", "24", "25", "30", "33"], "rt": [12677, 296, 197, 158, 183], "actions": ["left", "left", "left", "down", "left"], "actionTimes": [15069, 15869, 16570, 17232, 17907], "queries": {"click": {"state": {"target": ["23", "24", "25", "30", "33", "32"], "time": [3433, 5057, 6641, 7960, 9337, 12289]}, "edge": {"target": [], "time": []}}, "mouseover": {"state": {"target": ["23", "24", "25", "30", "33", "31", "32", "31"], "time": [2994, 4279, 5630, 7047, 8599, 9766, 10350, 12802]}, "edge": {"target": [], "time": []}}, "mouseout": {"state": {"target": ["23", "23", "24", "25", "30", "33", "30", "31", "32", "31"], "time": [1893, 3911, 5563, 6948, 8366, 9666, 9733, 9917, 12602, 14888]}, "edge": {"target": [], "time": []}}}, "displayed_time": "18.41", "trialTime": 21718, "trial_type": "mouselab-mdp", "trial_index": 9, "time_elapsed": 404262, "internal_node_id": "0.0-6.0-1.0-0.0"}}, {"uniqueid": "w12271574:a33803546", "current_trial": 10, "dateTime": 1693661079822, "trialdata": {"revealed_states": [], "clicked_states": ["1", "2", "3", "8", "11", "4", "7", "23", "24", "25", "30", "33", "32"], "num_clicks_accrued": [0, 0, 0, 0, 0, 0, 0, 0, 0, 0, 0, 0, 0], "stateRewards": ["", 1, 1, -3, 7, 49, 78, 26, -5, 26, 48, -43, -1, -3, 2, -5, 4, -1, -60, 10, -35, 51, 81, -2, 1, -7, -5, -39, -86, -54, 4, -3, 74, 77], "withholdReward": false, "trial_id": "mdp_trial_2", "block": "test", "trialIndex": 3, "score": 57.65, "costs": -15.35, "simulationMode": [null, null, null, null, null], "rewards": [-2, 1, -7, 4, 77], "path": ["0", "0", "23", "24", "25", "30", "33"], "rt": [26625, 282, 298, 173, 206], "actions": ["left", "left", "left", "down", "left"], "actionTimes": [31705, 32493, 33293, 33968, 34668], "queries": {"click": {"state": {"target": ["1", "2", "3", "8", "11", "4", "7", "23", "24", "25", "30", "33", "32"], "time": [7638, 9118, 10638, 11990, 13430, 16310, 17542, 20414, 22142, 23678, 24870, 26126, 28934]}, "edge": {"target": [], "time": []}}, "mouseover": {"state": {"target": ["23", "1", "0", "1", "2", "3", "8", "11", "3", "4", "7", "1", "23", "24", "28", "25", "30", "33", "32", "31"], "time": [6405, 7073, 7306, 7506, 8190, 9558, 11242, 12910, 14311, 14478, 16930, 18098, 18331, 21083, 22635, 23052, 24336, 25671, 26655, 29274]}, "edge": {"target": [], "time": []}}, "mouseout": {"state": {"target": ["12", "0", "23", "1", "0", "1", "2", "3", "8", "11", "8", "3", "4", "7", "1", "23", "24", "28", "25", "30", "30", "33", "32", "31", "13", "15", "13"], "time": [3118, 6338, 6788, 7106, 7459, 7747, 9391, 11209, 12877, 14195, 14278, 14428, 16697, 18064, 18148, 20833, 22254, 22902, 24153, 25003, 25404, 26471, 29190, 35396, 35812, 35955, 36579]}, "edge": {"target": [], "time": []}}}, "displayed_time": "35.16", "trialTime": 37966, "trial_type": "mouselab-mdp", "trial_index": 10, "time_elapsed": 442337, "internal_node_id": "0.0-6.0-1.0-1.0"}}, {"uniqueid": "w12271574:a33803546", "current_trial": 11, "dateTime": 1693661116187, "trialdata": {"revealed_states": [], "clicked_states": ["12", "13", "14", "15", "18", "16", "17", "19", "22", "21", "20"], "num_clicks_accrued": [0, 0, 0, 0, 0, 0, 0, 0, 0, 0, 0, 0, 0], "stateRewards": ["", 1, 1, 7, -11, 80, -20, -53, -14, 3, 31, 27, 2, -1, -8, -10, 33, 41, 86, 9, 78, -37, -13, -1, -2, -6, -8, -80, 75, 4, -16, -49, -74, 24], "withholdReward": false, "trial_id": "mdp_trial_3", "block": "test", "trialIndex": 4, "score": 51.95, "costs": -17.05, "simulationMode": [null, null, null, null, null, null], "rewards": [2, -1, -8, -10, 86], "path": ["0", "0", "12", "13", "14", "15", "18"], "rt": [24394, 889, 206, 88, 180, 112], "actions": ["right", "right", "right", "right", "up", "left"], "actionTimes": [26049, 26940, 27664, 28262, 28937, 29537], "queries": {"click": {"state": {"target": ["12", "13", "14", "15", "18", "16", "17", "19", "22", "21", "20"], "time": [4228, 5780, 7108, 8556, 9876, 12652, 15461, 18260, 19724, 22620, 25380]}, "edge": {"target": [], "time": []}}, "mouseover": {"state": {"target": ["0", "12", "13", "14", "15", "18", "16", "17", "19", "22", "19", "22", "21", "20"], "time": [3986, 4053, 5070, 6472, 7890, 9274, 10558, 13061, 15946, 16163, 17397, 18832, 20333, 22952]}, "edge": {"target": [], "time": []}}, "mouseout": {"state": {"target": ["13", "12", "0", "0", "12", "13", "14", "15", "18", "16", "17", "19", "22", "19", "22", "21", "20", "20", "14"], "time": [783, 850, 1867, 4003, 4753, 6355, 7556, 9224, 10241, 13010, 15813, 16063, 17280, 18665, 20099, 22885, 25771, 26755, 33442]}, "edge": {"target": [], "time": []}}}, "displayed_time": "30.04", "trialTime": 36250, "trial_type": "mouselab-mdp", "trial_index": 11, "time_elapsed": 478701, "internal_node_id": "0.0-6.0-1.0-2.0"}}, {"uniqueid": "w12271574:a33803546", "current_trial": 12, "dateTime": 1693661175513, "trialdata": {"revealed_states": [], "clicked_states": ["31", "32", "33", "29", "27", "28", "11", "9", "10", "7", "5", "6", "16", "18", "17"], "num_clicks_accrued": [0, 0, 0, 0, 0, 0, 0, 0, 0, 0, 0, 0, 0], "stateRewards": ["", 1, 1, -3, 2, 22, -25, -11, -5, 50, 49, 3, 1, -1, 8, 14, -85, -30, 57, -6, -39, -16, 59, -2, -1, 5, 5, 59, -16, 8, 4, 67, 56, -9], "withholdReward": false, "trial_id": "mdp_trial_4", "block": "test", "trialIndex": 5, "score": 46.75000000000001, "costs": -32.24999999999999, "simulationMode": [null, null, null, null, null], "rewards": [1, -1, 8, 14, 57], "path": ["0", "0", "12", "13", "14", "15", "18"], "rt": [47912, 80, 43, 54, 92], "actions": ["right", "right", "right", "up", "left"], "actionTimes": [52894, 53470, 54032, 54595, 55183], "queries": {"click": {"state": {"target": ["31", "32", "33", "29", "27", "28", "11", "9", "10", "7", "5", "6", "16", "18", "17"], "time": [6979, 9763, 12539, 15595, 18747, 21636, 24923, 28012, 31044, 34028, 37180, 40292, 43348, 46436, 49660]}, "edge": {"target": [], "time": []}}, "mouseover": {"state": {"target": ["31", "32", "30", "33", "30", "30", "25", "26", "29", "27", "28", "0", "10", "11", "9", "8", "10", "2", "7", "4", "5", "6", "18", "15", "17", "17", "16", "18", "15", "17"], "time": [6249, 7834, 10269, 10436, 13155, 13372, 13422, 13455, 13705, 16007, 19277, 22146, 24248, 24464, 25332, 28401, 28568, 31570, 31771, 34473, 34539, 37692, 40711, 40845, 41195, 41378, 42129, 44214, 46766, 46833]}, "edge": {"target": [], "time": []}}, "mouseout": {"state": {"target": ["0", "0", "31", "32", "30", "33", "30", "30", "25", "26", "29", "27", "28", "0", "10", "11", "9", "8", "10", "10", "2", "7", "4", "5", "6", "18", "15", "17", "17", "16", "18", "15", "17", "20"], "time": [527, 5882, 7534, 10203, 10303, 13121, 13188, 13405, 13438, 13605, 15874, 19060, 22129, 23597, 24281, 25232, 28368, 28485, 31304, 31454, 31704, 34439, 34506, 37525, 40578, 40812, 40961, 41245, 42063, 43731, 46733, 46816, 50186, 56274]}, "edge": {"target": [], "time": []}}}, "displayed_time": "55.67", "trialTime": 59207, "trial_type": "mouselab-mdp", "trial_index": 12, "time_elapsed": 538027, "internal_node_id": "0.0-6.0-1.0-3.0"}}, {"uniqueid": "w12271574:a33803546", "current_trial": 13, "dateTime": 1693661203164, "trialdata": {"revealed_states": [], "clicked_states": ["31", "32", "9", "7", "10", "5"], "num_clicks_accrued": [0, 0, 0, 0, 0, 0, 0, 0, 0, 0, 0, 0, 0], "stateRewards": ["", -1, 2, -2, 13, -56, -28, 10, 14, 53, -80, -29, 1, -3, -3, -14, 14, 9, -40, -9, 18, 18, 48, 1, 1, 1, -9, 64, -39, -9, 7, -52, -78, 7], "withholdReward": false, "trial_id": "mdp_trial_5", "block": "test", "trialIndex": 6, "score": 53.1, "costs": -12.9, "simulationMode": [null, null, null, null, null], "rewards": [-1, 2, -2, 14, 53], "path": ["0", "0", "1", "2", "3", "8", "9"], "rt": [20971, 661, 73, 31, 80], "actions": ["up", "up", "up", "left", "up"], "actionTimes": [22422, 23586, 24148, 24673, 25273], "queries": {"click": {"state": {"target": ["31", "32", "9", "7", "10", "5"], "time": [2657, 6040, 9145, 12297, 15521, 18585]}, "edge": {"target": [], "time": []}}, "mouseover": {"state": {"target": ["31", "32", "24", "23", "10", "8", "9", "5", "6", "7", "2", "10", "2", "6", "5", "6"], "time": [2222, 3657, 6509, 6559, 6676, 6893, 7127, 9728, 9962, 10729, 13115, 13214, 15884, 15950, 16284, 19119]}, "edge": {"target": [], "time": []}}, "mouseout": {"state": {"target": ["0", "31", "32", "24", "23", "10", "8", "9", "5", "6", "7", "2", "10", "2", "6", "5", "6"], "time": [1655, 3307, 6359, 6526, 6576, 6759, 7010, 9578, 9829, 10062, 13081, 13181, 15833, 15900, 15967, 19069, 25892]}, "edge": {"target": [], "time": []}}}, "displayed_time": "25.78", "trialTime": 27535, "trial_type": "mouselab-mdp", "trial_index": 13, "time_elapsed": 565678, "internal_node_id": "0.0-6.0-1.0-4.0"}}, {"uniqueid": "w12271574:a33803546", "current_trial": 14, "dateTime": 1693661228202, "trialdata": {"revealed_states": [], "clicked_states": ["20", "22", "21"], "num_clicks_accrued": [0, 0, 0, 0, 0, 0, 0, 0, 0, 0, 0, 0, 0], "stateRewards": ["", 2, -1, 4, -9, -43, 7, 54, -13, 38, -40, -83, -1, 2, -8, -10, 34, -33, 11, -14, -79, 65, 26, 1, 2, 4, 10, 21, 1, 86, 4, -53, 28, -29], "withholdReward": false, "trial_id": "mdp_trial_6", "block": "test", "trialIndex": 7, "score": 37.55, "costs": -6.449999999999999, "simulationMode": [null, null, null, null, null], "rewards": [-1, 2, -8, -14, 65], "path": ["0", "0", "12", "13", "14", "19", "21"], "rt": [12801, 615, 73, 6, 27], "actions": ["right", "right", "right", "down", "down"], "actionTimes": [14656, 15769, 16345, 16845, 17382], "queries": {"click": {"state": {"target": ["20", "22", "21"], "time": [3219, 6723, 10156]}, "edge": {"target": [], "time": []}}, "mouseover": {"state": {"target": ["22", "20", "22", "13", "19", "21", "19", "14", "15", "16"], "time": [2675, 3009, 4427, 7362, 9047, 9114, 10565, 10583, 10632, 10682]}, "edge": {"target": [], "time": []}}, "mouseout": {"state": {"target": ["12", "0", "22", "20", "20", "22", "13", "19", "21", "19", "14", "15", "16", "18"], "time": [1124, 2601, 2708, 3296, 3926, 7279, 7379, 9081, 10532, 10582, 10615, 10665, 13217, 18639]}, "edge": {"target": [], "time": []}}}, "displayed_time": "17.87", "trialTime": 24919, "trial_type": "mouselab-mdp", "trial_index": 14, "time_elapsed": 590717, "internal_node_id": "0.0-6.0-1.0-5.0"}}, {"uniqueid": "w12271574:a33803546", "current_trial": 15, "dateTime": 1693661267940, "trialdata": {"revealed_states": [], "clicked_states": ["27", "32", "16", "21", "33", "17", "29", "31", "22"], "num_clicks_accrued": [0, 0, 0, 0, 0, 0, 0, 0, 0, 0, 0, 0, 0], "stateRewards": ["", -1, 4, -3, 3, 57, -61, 5, -11, 23, -1, 34, -2, -4, -1, -13, 27, 38, -36, 4, -45, 21, 88, 1, -2, -1, 1, -69, -5, -78, -12, -9, 38, -54], "withholdReward": false, "trial_id": "mdp_trial_7", "block": "test", "trialIndex": 8, "score": 65.65, "costs": -19.349999999999998, "simulationMode": [null, null, null, null, null], "rewards": [-2, -4, -1, 4, 88], "path": ["0", "0", "12", "13", "14", "19", "22"], "rt": [33723, 13, 58, 96, 112], "actions": ["right", "right", "right", "down", "left"], "actionTimes": [34819, 35332, 35895, 36482, 37083], "queries": {"click": {"state": {"target": ["27", "32", "16", "21", "33", "17", "29", "31", "22"], "time": [2564, 6108, 9492, 12788, 17812, 20860, 24380, 27748, 31260]}, "edge": {"target": [], "time": []}}, "mouseover": {"state": {"target": ["23", "24", "26", "27", "29", "30", "32", "31", "23", "1", "16", "15", "14", "19", "21", "18", "5", "9", "31", "30", "33", "33", "30", "31", "12", "13", "14", "17", "15", "18", "2", "3", "9", "8", "26", "29", "26", "23", "31", "23", "14", "22", "22", "13", "18", "15", "17", "17", "18", "18"], "time": [1690, 1806, 1906, 2274, 4659, 5593, 5809, 6844, 6944, 7094, 7528, 9896, 9996, 10163, 10563, 13332, 13383, 14900, 15034, 15084, 15284, 17369, 18270, 18437, 18687, 18720, 18738, 19054, 21572, 21640, 21906, 22090, 22724, 23107, 23408, 23491, 24725, 25409, 26126, 28178, 28545, 29346, 31131, 31765, 31831, 32032, 32115, 32749, 33050, 34117]}, "edge": {"target": [], "time": []}}, "mouseout": {"state": {"target": ["0", "23", "24", "26", "27", "29", "30", "32", "31", "23", "1", "16", "15", "14", "19", "21", "18", "5", "9", "31", "30", "33", "33", "30", "31", "12", "13", "14", "17", "15", "18", "2", "3", "9", "8", "26", "29", "26", "23", "31", "23", "14", "22", "22", "13", "18", "15", "17", "17", "18", "18"], "time": [1623, 1756, 1840, 1973, 3358, 5543, 5626, 6560, 6860, 6994, 7178, 9846, 9963, 10096, 10246, 13299, 13349, 13399, 14934, 15050, 15234, 16770, 18170, 18370, 18504, 18703, 18737, 18754, 21473, 21623, 21673, 22040, 22173, 23040, 23124, 23458, 24658, 24776, 25426, 28061, 28211, 28996, 29946, 31330, 31815, 31948, 32082, 32315, 32782, 33666, 37920]}, "edge": {"target": [], "time": []}}}, "displayed_time": "37.57", "trialTime": 39618, "trial_type": "mouselab-mdp", "trial_index": 15, "time_elapsed": 630455, "internal_node_id": "0.0-6.0-1.0-6.0"}}, {"uniqueid": "w12271574:a33803546", "current_trial": 16, "dateTime": 1693661285704, "trialdata": {"revealed_states": [], "clicked_states": [], "num_clicks_accrued": [0, 0, 0, 0, 0, 0, 0, 0, 0, 0, 0, 0, 0], "stateRewards": ["", -1, -2, 8, -6, -79, -6, 87, 9, -5, -66, -38, 2, 2, 5, -6, -82, 74, 85, -8, 67, -30, -15, 1, -2, -2, -2, 87, 64, 49, 7, 2, -38, -9], "withholdReward": false, "trial_id": "mdp_trial_8", "block": "test", "trialIndex": 9, "score": -5, "costs": 0, "simulationMode": [null, null, null, null, null], "rewards": [1, -2, -2, 7, -9], "path": ["0", "0", "23", "24", "25", "30", "33"], "rt": [9924, 533, 49, 48, 44], "actions": ["left", "left", "left", "down", "left"], "actionTimes": [11506, 12544, 13095, 13645, 14207], "queries": {"click": {"state": {"target": [], "time": []}, "edge": {"target": [], "time": []}}, "mouseover": {"state": {"target": ["12", "13", "14", "17", "19", "22"], "time": [3036, 3136, 3286, 3720, 4537, 4904]}, "edge": {"target": [], "time": []}}, "mouseout": {"state": {"target": ["13", "0", "12", "13", "14", "17", "19", "22", "13"], "time": [784, 3003, 3103, 3220, 3608, 4420, 4604, 7890, 16347]}, "edge": {"target": [], "time": []}}}, "displayed_time": "15.58", "trialTime": 17644, "trial_type": "mouselab-mdp", "trial_index": 16, "time_elapsed": 648219, "internal_node_id": "0.0-6.0-1.0-7.0"}}, {"uniqueid": "w12271574:a33803546", "current_trial": 17, "dateTime": 1693661304328, "trialdata": {"revealed_states": [], "clicked_states": ["17", "16"], "num_clicks_accrued": [0, 0, 0, 0, 0, 0, 0, 0, 0, 0, 0, 0, 0], "stateRewards": ["", -2, -4, 4, -11, -63, -60, -7, 2, -14, 81, -43, -1, -1, -5, 7, 10, 69, 40, 8, -83, 52, 60, 1, 2, 5, -5, 16, 64, 14, -3, 29, 7, -51], "withholdReward": false, "trial_id": "mdp_trial_9", "block": "test", "trialIndex": 10, "score": 64.7, "costs": -4.3, "simulationMode": [null, null, null, null, null, null], "rewards": [-1, -1, -5, 7, 69], "path": ["0", "0", "12", "13", "14", "15", "17"], "rt": [6773, 887, 167, 161, 74, 31], "actions": ["right", "right", "right", "right", "up", "right"], "actionTimes": [8581, 9470, 10133, 10795, 11358, 11882], "queries": {"click": {"state": {"target": ["17", "16"], "time": [3323, 6211]}, "edge": {"target": [], "time": []}}, "mouseover": {"state": {"target": ["0", "12", "13", "15", "17", "16", "18"], "time": [2092, 2509, 2742, 2826, 3243, 4193, 7046]}, "edge": {"target": [], "time": []}}, "mouseout": {"state": {"target": ["12", "0", "0", "0", "12", "13", "15", "17", "16", "18", "13", "22"], "time": [707, 1124, 1930, 2208, 2709, 2776, 2992, 3396, 6779, 12384, 12884, 14102]}, "edge": {"target": [], "time": []}}}, "displayed_time": "15.81", "trialTime": 18493, "trial_type": "mouselab-mdp", "trial_index": 17, "time_elapsed": 666843, "internal_node_id": "0.0-6.0-1.0-8.0"}}, {"uniqueid": "w12271574:a33803546", "current_trial": 18, "dateTime": 1693661338168, "trialdata": {"revealed_states": [], "clicked_states": ["28", "27", "29", "33", "32", "31", "22", "21"], "num_clicks_accrued": [0, 0, 0, 0, 0, 0, 0, 0, 0, 0, 0, 0, 0], "stateRewards": ["", -2, 2, 3, -7, 76, 63, 21, 15, 35, -8, -44, 1, 1, -2, -12, 23, 24, 76, -9, 46, 66, -49, -2, -1, 7, 12, 40, -71, -45, -6, 38, -49, 46], "withholdReward": false, "trial_id": "mdp_trial_10", "block": "test", "trialIndex": 11, "score": 39.8, "costs": -17.2, "simulationMode": [null, null, null, null, null], "rewards": [1, 1, -2, -9, 66], "path": ["0", "0", "12", "13", "14", "19", "21"], "rt": [27470, 448, 110, 35, 27], "actions": ["right", "right", "right", "down", "down"], "actionTimes": [28923, 29874, 30486, 31011, 31537], "queries": {"click": {"state": {"target": ["28", "27", "29", "33", "32", "31", "22", "21"], "time": [3158, 6278, 9502, 12534, 15749, 18797, 22182, 25301]}, "edge": {"target": [], "time": []}}, "mouseover": {"state": {"target": ["1", "2", "8", "10", "23", "28", "27", "28", "27", "29", "26", "25", "33", "33", "30", "32", "31", "22", "21", "20"], "time": [2085, 2152, 2335, 2552, 2603, 2752, 2852, 2952, 3453, 6856, 9891, 9975, 10041, 10225, 12994, 13077, 16146, 21050, 22618, 25738]}, "edge": {"target": [], "time": []}}, "mouseout": {"state": {"target": ["12", "0", "1", "2", "8", "10", "23", "28", "27", "28", "27", "29", "26", "25", "33", "33", "30", "32", "31", "22", "21", "20", "14", "13", "7", "3"], "time": [684, 1636, 2119, 2219, 2535, 2569, 2719, 2802, 2936, 3186, 6739, 9858, 9909, 9992, 10059, 12677, 13028, 16063, 19165, 22485, 25621, 32143, 32176, 32193, 32260, 32293]}, "edge": {"target": [], "time": []}}}, "displayed_time": "32.03", "trialTime": 33711, "trial_type": "mouselab-mdp", "trial_index": 18, "time_elapsed": 700683, "internal_node_id": "0.0-6.0-1.0-9.0"}}, {"uniqueid": "w12271574:a33803546", "current_trial": 19, "dateTime": 1693661358019, "trialdata": {"revealed_states": [], "clicked_states": ["10", "7", "11", "6"], "num_clicks_accrued": [0, 0, 0, 0, 0, 0, 0, 0, 0, 0, 0, 0, 0], "stateRewards": ["", 2, -1, 8, -2, -16, 69, -39, -7, -13, -27, -86, 2, -2, 2, 13, -34, -16, -20, -5, 19, 81, 32, -2, -1, 2, -14, 20, 80, 58, 4, 70, 12, 73], "withholdReward": false, "trial_id": "mdp_trial_11", "block": "test", "trialIndex": 12, "score": 67.4, "costs": -8.6, "simulationMode": [null, null, null, null, null], "rewards": [2, -1, 8, -2, 69], "path": ["0", "0", "1", "2", "3", "4", "6"], "rt": [13979, 86, 123, 81, 98], "actions": ["up", "up", "up", "right", "right"], "actionTimes": [15487, 16075, 16712, 17287, 17888], "queries": {"click": {"state": {"target": ["10", "7", "11", "6"], "time": [2720, 5792, 8816, 11888]}, "edge": {"target": [], "time": []}}, "mouseover": {"state": {"target": ["1", "10", "2", "7", "4", "5", "5", "9", "11", "8", "3", "4", "6", "5", "9"], "time": [1993, 2559, 3610, 4144, 6213, 6246, 7430, 7547, 7797, 9199, 9248, 9332, 9598, 12367, 13018]}, "edge": {"target": [], "time": []}}, "mouseout": {"state": {"target": ["3", "2", "1", "1", "10", "2", "7", "4", "5", "5", "9", "11", "8", "3", "4", "6", "5"], "time": [557, 607, 807, 2276, 3510, 3910, 6180, 6229, 6313, 7463, 7563, 9198, 9232, 9298, 9482, 12284, 12651]}, "edge": {"target": [], "time": []}}}, "displayed_time": "18.39", "trialTime": 19725, "trial_type": "mouselab-mdp", "trial_index": 19, "time_elapsed": 720533, "internal_node_id": "0.0-6.0-1.0-10.0"}}, {"uniqueid": "w12271574:a33803546", "current_trial": 20, "dateTime": 1693661374518, "trialdata": {"revealed_states": [], "clicked_states": ["27", "28"], "num_clicks_accrued": [0, 0, 0, 0, 0, 0, 0, 0, 0, 0, 0, 0, 0], "stateRewards": ["", 1, 4, -4, 14, 35, 51, 19, -13, 54, 78, -74, -2, -1, -3, 13, -11, -42, -73, -15, -24, -3, -69, 2, -1, 5, 16, -27, 73, 58, 9, -60, 5, -60], "withholdReward": false, "trial_id": "mdp_trial_12", "block": "test", "trialIndex": 13, "score": 90.7, "costs": -4.3, "simulationMode": [null, null, null, null, null], "rewards": [2, -1, 5, 16, 73], "path": ["0", "0", "23", "24", "25", "26", "28"], "rt": [9081, 45, 99, 125, 132], "actions": ["left", "left", "left", "up", "right"], "actionTimes": [10076, 10613, 11201, 11827, 12451], "queries": {"click": {"state": {"target": ["27", "28"], "time": [3216, 6392]}, "edge": {"target": [], "time": []}}, "mouseover": {"state": {"target": ["1", "28", "27", "28", "26", "29"], "time": [1510, 2226, 2427, 5262, 6964, 7214]}, "edge": {"target": [], "time": []}}, "mouseout": {"state": {"target": ["9", "2", "1", "1", "28", "27", "28", "26"], "time": [525, 575, 658, 2076, 2277, 5196, 6897, 7081]}, "edge": {"target": [], "time": []}}}, "displayed_time": "14.99", "trialTime": 16375, "trial_type": "mouselab-mdp", "trial_index": 20, "time_elapsed": 737033, "internal_node_id": "0.0-6.0-1.0-11.0"}}, {"uniqueid": "w12271574:a33803546", "current_trial": 21, "dateTime": 1693661398694, "trialdata": {"revealed_states": [], "clicked_states": ["28", "31", "33", "23", "24", "25", "30"], "num_clicks_accrued": [0, 0, 0, 0, 0, 0, 0, 0, 0, 0, 0, 0, 0], "stateRewards": ["", -2, 3, -1, -9, 44, 48, -37, -3, 71, -39, 87, -1, 3, -4, 4, -21, 59, -15, -8, -1, 28, -38, 2, 4, 4, 8, -85, -72, -63, 14, 58, 63, -46], "withholdReward": false, "trial_id": "mdp_trial_13", "block": "test", "trialIndex": 14, "score": 72.95, "costs": -9.049999999999999, "simulationMode": [null, null, null, null, null], "rewards": [2, 4, 4, 14, 58], "path": ["0", "0", "23", "24", "25", "30", "31"], "rt": [17856, 138, 165, 124, 93], "actions": ["left", "left", "left", "down", "right"], "actionTimes": [19491, 20130, 20792, 21417, 22004], "queries": {"click": {"state": {"target": ["28", "31", "33", "23", "24", "25", "30"], "time": [3454, 6470, 10198, 14262, 15677, 17158, 18246]}, "edge": {"target": [], "time": []}}, "mouseover": {"state": {"target": ["23", "28", "24", "31", "30", "33", "32", "32", "30", "24", "23", "24", "25", "30"], "time": [2326, 2860, 4027, 4278, 9182, 9249, 10566, 11134, 11634, 11701, 13886, 15254, 16288, 17906]}, "edge": {"target": [], "time": []}}, "mouseout": {"state": {"target": ["29", "26", "28", "23", "23", "28", "24", "31", "31", "30", "33", "32", "32", "30", "24", "23", "24", "25", "30"], "time": [408, 475, 675, 825, 2510, 3961, 4178, 6997, 7280, 9215, 10483, 10800, 11567, 11651, 13852, 14536, 16071, 17489, 18506]}, "edge": {"target": [], "time": []}}}, "displayed_time": "22.49", "trialTime": 24054, "trial_type": "mouselab-mdp", "trial_index": 21, "time_elapsed": 761209, "internal_node_id": "0.0-6.0-1.0-12.0"}}, {"uniqueid": "w12271574:a33803546", "current_trial": 22, "dateTime": 1693661422394, "trialdata": {"revealed_states": [], "clicked_states": ["7", "6", "5", "1", "2", "3", "4"], "num_clicks_accrued": [0, 0, 0, 0, 0, 0, 0, 0, 0, 0, 0, 0, 0], "stateRewards": ["", 2, 3, -3, 4, 72, -28, 34, -12, 57, -64, -15, 2, 1, -4, -15, 2, 49, 31, -1, -42, -58, 31, -2, 1, -2, -13, -75, -19, -22, -6, 61, 10, -56], "withholdReward": false, "trial_id": "mdp_trial_14", "block": "test", "trialIndex": 15, "score": 68.95, "costs": -9.049999999999999, "simulationMode": [null, null, null, null, null], "rewards": [2, 3, -3, 4, 72], "path": ["0", "0", "1", "2", "3", "4", "5"], "rt": [15435, 110, 185, 151, 238], "actions": ["up", "up", "up", "right", "up"], "actionTimes": [17827, 18428, 19103, 19753, 20490], "queries": {"click": {"state": {"target": ["7", "6", "5", "1", "2", "3", "4"], "time": [3621, 6973, 10133, 13893, 14652, 15580, 16519]}, "edge": {"target": [], "time": []}}, "mouseover": {"state": {"target": ["1", "2", "3", "7", "6", "5", "9", "2", "1", "2", "3", "4"], "time": [2553, 2603, 2653, 3287, 4671, 7507, 10659, 13579, 13729, 14396, 15163, 16181]}, "edge": {"target": [], "time": []}}, "mouseout": {"state": {"target": ["31", "0", "12", "0", "1", "2", "3", "7", "6", "5", "9", "2", "1", "2", "3", "4", "4"], "time": [618, 684, 834, 1251, 2586, 2637, 3087, 3707, 7357, 10510, 13479, 13645, 14146, 14947, 15964, 17315, 21819]}, "edge": {"target": [], "time": []}}}, "displayed_time": "20.99", "trialTime": 23577, "trial_type": "mouselab-mdp", "trial_index": 22, "time_elapsed": 784909, "internal_node_id": "0.0-6.0-1.0-13.0"}}, {"uniqueid": "w12271574:a33803546", "current_trial": 23, "dateTime": 1693661455033, "trialdata": {"revealed_states": [], "clicked_states": ["31", "32", "33", "29", "27", "28", "23", "24", "25", "26"], "num_clicks_accrued": [0, 0, 0, 0, 0, 0, 0, 0, 0, 0, 0, 0, 0], "stateRewards": ["", 2, -2, 7, -11, -76, -65, -23, 16, -58, 30, 81, 1, 2, 7, 14, 9, 55, -2, 6, 11, -15, 31, -1, -1, -3, 2, 15, 2, 46, 15, 18, 45, -34], "withholdReward": false, "trial_id": "mdp_trial_15", "block": "test", "trialIndex": 16, "score": 27.5, "costs": -15.5, "simulationMode": [null, null, null, null, null], "rewards": [-1, -1, -3, 2, 46], "path": ["0", "0", "23", "24", "25", "26", "29"], "rt": [26743, 87, 87, 103, 103], "actions": ["left", "left", "left", "up", "left"], "actionTimes": [27836, 28412, 29012, 29612, 30212], "queries": {"click": {"state": {"target": ["31", "32", "33", "29", "27", "28", "23", "24", "25", "26"], "time": [2956, 6188, 9228, 12348, 15836, 19020, 22324, 23364, 24724, 26173]}, "edge": {"target": [], "time": []}}, "mouseover": {"state": {"target": ["23", "31", "31", "32", "33", "25", "26", "29", "26", "28", "26", "29", "27", "28", "29", "26", "23", "24", "25", "26", "29"], "time": [2267, 2350, 2684, 3902, 6721, 9757, 9991, 10474, 10891, 11175, 11809, 11925, 12759, 16196, 19816, 20600, 20983, 22818, 24103, 25487, 26888]}, "edge": {"target": [], "time": []}}, "mouseout": {"state": {"target": ["0", "23", "31", "31", "32", "33", "25", "26", "29", "26", "28", "26", "29", "27", "28", "29", "26", "23", "24", "25", "26", "29", "24"], "time": [2234, 2300, 2401, 3335, 6537, 9673, 9890, 10274, 10875, 11025, 11775, 11858, 12626, 16113, 19482, 20483, 20716, 22685, 23886, 25304, 26822, 30642, 30942]}, "edge": {"target": [], "time": []}}}, "displayed_time": "30.71", "trialTime": 32511, "trial_type": "mouselab-mdp", "trial_index": 23, "time_elapsed": 817548, "internal_node_id": "0.0-6.0-1.0-14.0"}}, {"uniqueid": "w12271574:a33803546", "current_trial": 24, "dateTime": 1693661491010, "trialdata": {"revealed_states": [], "clicked_states": ["6", "5", "9", "11", "10", "7", "27", "29", "23", "24", "25", "26"], "num_clicks_accrued": [0, 0, 0, 0, 0, 0, 0, 0, 0, 0, 0, 0, 0], "stateRewards": ["", -2, 2, -2, -7, -50, -62, -45, 7, 36, -24, -72, -1, -1, 8, -1, -67, 20, -52, 2, 35, -50, 80, -1, 1, 6, -6, -70, 6, 88, 8, -47, 74, -19], "withholdReward": false, "trial_id": "mdp_trial_16", "block": "test", "trialIndex": 17, "score": 68.2, "costs": -19.8, "simulationMode": [null, null, null, null, null], "rewards": [-1, 1, 6, -6, 88], "path": ["0", "0", "23", "24", "25", "26", "29"], "rt": [30377, 441, 108, 58, 95], "actions": ["left", "left", "left", "up", "left"], "actionTimes": [31419, 32370, 32970, 33520, 34108], "queries": {"click": {"state": {"target": ["6", "5", "9", "11", "10", "7", "27", "29", "23", "24", "25", "26"], "time": [2866, 6131, 9235, 12403, 15482, 18595, 22241, 25418, 29346, 29888, 30426, 30938]}, "edge": {"target": [], "time": []}}, "mouseover": {"state": {"target": ["12", "15", "16", "6", "7", "4", "5", "9", "11", "10", "2", "7", "23", "24", "25", "26", "27", "27", "26", "25", "26", "29", "26", "28", "24", "23", "24", "25", "26"], "time": [1668, 1768, 1919, 2669, 3620, 3837, 4087, 7340, 10142, 13128, 15814, 16464, 19700, 19817, 19933, 21618, 21718, 22175, 22537, 22602, 23703, 24371, 25671, 25755, 28941, 29158, 29692, 30276, 30692]}, "edge": {"target": [], "time": []}}, "mouseout": {"state": {"target": ["0", "12", "15", "16", "6", "7", "4", "5", "9", "11", "10", "2", "7", "23", "24", "25", "26", "27", "27", "26", "25", "26", "27", "29", "26", "28", "24", "23", "24", "25", "26"], "time": [1655, 1701, 1785, 2452, 3220, 3787, 3954, 6456, 9808, 12811, 15747, 16231, 18933, 19767, 19917, 20734, 21652, 21902, 22536, 22586, 23536, 23737, 24037, 25638, 25722, 28857, 29108, 29575, 30142, 30542, 31210]}, "edge": {"target": [], "time": []}}}, "displayed_time": "34.60", "trialTime": 35846, "trial_type": "mouselab-mdp", "trial_index": 24, "time_elapsed": 853525, "internal_node_id": "0.0-6.0-1.0-15.0"}}, {"uniqueid": "w12271574:a33803546", "current_trial": 25, "dateTime": 1693661515098, "trialdata": {"revealed_states": [], "clicked_states": ["31", "32", "33", "28", "23", "24", "25", "26"], "num_clicks_accrued": [0, 0, 0, 0, 0, 0, 0, 0, 0, 0, 0, 0, 0], "stateRewards": ["", 2, -4, -8, -15, 71, -43, -41, 7, -17, 20, 67, -1, -1, -4, 6, 37, -24, -47, 9, 34, 57, 45, 1, 2, -4, -5, -23, 88, -5, 13, -40, 43, 44], "withholdReward": false, "trial_id": "mdp_trial_17", "block": "test", "trialIndex": 18, "score": 70.8, "costs": -11.2, "simulationMode": [null, null, null, null, null], "rewards": [1, 2, -4, -5, 88], "path": ["0", "0", "23", "24", "25", "26", "28"], "rt": [17695, 110, 118, 250, 275], "actions": ["left", "left", "left", "up", "right"], "actionTimes": [19556, 20170, 20795, 21544, 22320], "queries": {"click": {"state": {"target": ["31", "32", "33", "28", "23", "24", "25", "26"], "time": [3126, 6183, 9494, 13222, 17126, 17745, 18358, 18997]}, "edge": {"target": [], "time": []}}, "mouseover": {"state": {"target": ["0", "31", "32", "33", "29", "26", "28", "27", "27", "26", "24", "23", "24", "25", "26"], "time": [2261, 2611, 4029, 6598, 10334, 12869, 13103, 13670, 14003, 16672, 16755, 16922, 17423, 18057, 18657]}, "edge": {"target": [], "time": []}}, "mouseout": {"state": {"target": ["23", "0", "0", "31", "32", "33", "29", "26", "28", "27", "27", "26", "24", "23", "24", "25", "26"], "time": [876, 1699, 2294, 3529, 6531, 10067, 12852, 12919, 13520, 13786, 16622, 16689, 16856, 17339, 17973, 18591, 19241]}, "edge": {"target": [], "time": []}}}, "displayed_time": "22.81", "trialTime": 23945, "trial_type": "mouselab-mdp", "trial_index": 25, "time_elapsed": 877612, "internal_node_id": "0.0-6.0-1.0-16.0"}}, {"uniqueid": "w12271574:a33803546", "current_trial": 26, "dateTime": 1693661551887, "trialdata": {"revealed_states": [], "clicked_states": ["22", "21", "20", "17", "16", "18", "32", "33", "23", "24", "25", "30"], "num_clicks_accrued": [0, 0, 0, 0, 0, 0, 0, 0, 0, 0, 0, 0, 0], "stateRewards": ["", -2, 2, -1, -6, 22, 6, 6, -5, 70, -42, 65, 1, 3, 5, -6, -67, -9, 3, 14, 7, -62, -13, -2, 4, 1, 16, 42, -21, -52, -8, 32, 53, 81], "withholdReward": false, "trial_id": "mdp_trial_18", "block": "test", "trialIndex": 19, "score": 56.2, "costs": -19.8, "simulationMode": [null, null, null, null, null], "rewards": [-2, 4, 1, -8, 81], "path": ["0", "0", "23", "24", "25", "30", "33"], "rt": [31171, 62, 158, 41, 128], "actions": ["left", "left", "left", "down", "left"], "actionTimes": [33230, 33806, 34468, 35018, 35656], "queries": {"click": {"state": {"target": ["22", "21", "20", "17", "16", "18", "32", "33", "23", "24", "25", "30"], "time": [4197, 7261, 10261, 13381, 16389, 19541, 23029, 26725, 30645, 31452, 32124, 32805]}, "edge": {"target": [], "time": []}}, "mouseover": {"state": {"target": ["22", "21", "20", "17", "16", "18", "6", "7", "1", "23", "31", "32", "32", "32", "33", "30", "31", "23", "24", "25", "30", "30"], "time": [3683, 4701, 8003, 10706, 14042, 17044, 20147, 20747, 22215, 22298, 22332, 22350, 22682, 22882, 23450, 26969, 27086, 30290, 30956, 31890, 32374, 32624]}, "edge": {"target": [], "time": []}}, "mouseout": {"state": {"target": ["23", "0", "22", "21", "20", "17", "16", "18", "6", "7", "1", "23", "31", "32", "32", "32", "33", "30", "31", "23", "24", "25", "30", "30"], "time": [664, 3500, 4501, 7587, 10539, 13658, 16877, 19813, 20514, 22048, 22248, 22315, 22349, 22366, 22699, 23266, 26953, 27019, 30188, 30839, 31773, 32357, 32440, 36143]}, "edge": {"target": [], "time": []}}}, "displayed_time": "36.15", "trialTime": 36669, "trial_type": "mouselab-mdp", "trial_index": 26, "time_elapsed": 914401, "internal_node_id": "0.0-6.0-1.0-17.0"}}, {"uniqueid": "w12271574:a33803546", "current_trial": 27, "dateTime": 1693661570625, "trialdata": {"revealed_states": [], "clicked_states": ["31", "32", "33", "23", "24", "25", "30"], "num_clicks_accrued": [0, 0, 0, 0, 0, 0, 0, 0, 0, 0, 0, 0, 0], "stateRewards": ["", -1, -4, -1, -5, -28, -23, -15, -15, -38, 59, -87, 2, 2, -5, 9, -55, -39, -71, -6, 85, -85, -11, -1, -2, 5, -10, 1, 25, 41, -4, 69, -35, 86], "withholdReward": false, "trial_id": "mdp_trial_19", "block": "test", "trialIndex": 20, "score": 74.95, "costs": -9.049999999999999, "simulationMode": [null, null, null, null, null], "rewards": [-1, -2, 5, -4, 86], "path": ["0", "0", "23", "24", "25", "30", "33"], "rt": [13831, 88, 64, 47, 84], "actions": ["left", "left", "left", "down", "left"], "actionTimes": [15138, 15739, 16315, 16865, 17451], "queries": {"click": {"state": {"target": ["31", "32", "33", "23", "24", "25", "30"], "time": [2924, 5933, 8982, 13053, 13604, 14165, 14703]}, "edge": {"target": [], "time": []}}, "mouseover": {"state": {"target": ["23", "31", "32", "33", "29", "26", "23", "24", "25", "30"], "time": [1954, 2771, 3472, 6408, 9326, 12629, 12863, 13363, 13980, 14514]}, "edge": {"target": [], "time": []}}, "mouseout": {"state": {"target": ["31", "0", "23", "31", "32", "33", "29", "26", "23", "24", "25", "30"], "time": [252, 1483, 2671, 3272, 6291, 9193, 12579, 12679, 13149, 13674, 14414, 14731]}, "edge": {"target": [], "time": []}}}, "displayed_time": "17.95", "trialTime": 18615, "trial_type": "mouselab-mdp", "trial_index": 27, "time_elapsed": 933139, "internal_node_id": "0.0-6.0-1.0-18.0"}}, {"uniqueid": "w12271574:a33803546", "current_trial": 28, "dateTime": 1693661589162, "trialdata": {"revealed_states": [], "clicked_states": ["28", "27", "29", "23", "24", "25", "26"], "num_clicks_accrued": [0, 0, 0, 0, 0, 0, 0, 0, 0, 0, 0, 0, 0], "stateRewards": ["", -1, 1, 8, -8, -49, 62, -78, 16, 28, -81, 78, -2, -3, -1, -4, 67, 49, -2, -13, -16, -39, 83, 1, -4, 4, -5, -20, 7, 84, 7, -32, -59, 19], "withholdReward": false, "trial_id": "mdp_trial_20", "block": "test", "trialIndex": 21, "score": 70.95, "costs": -9.049999999999999, "simulationMode": [null, null, null, null, null], "rewards": [1, -4, 4, -5, 84], "path": ["0", "0", "23", "24", "25", "26", "29"], "rt": [14088, 32, 69, 91, 81], "actions": ["left", "left", "left", "up", "left"], "actionTimes": [15070, 15618, 16204, 16792, 17366], "queries": {"click": {"state": {"target": ["28", "27", "29", "23", "24", "25", "26"], "time": [2577, 5721, 8825, 12865, 13488, 14065, 14604]}, "edge": {"target": [], "time": []}}, "mouseover": {"state": {"target": ["0", "23", "24", "28", "27", "29", "33", "25", "24", "23", "24", "24", "25", "26"], "time": [1238, 1688, 1806, 1988, 3289, 6408, 9561, 12280, 12496, 12663, 13114, 13397, 13931, 14382]}, "edge": {"target": [], "time": []}}, "mouseout": {"state": {"target": ["31", "0", "0", "23", "24", "28", "27", "29", "33", "25", "24", "23", "24", "24", "25"], "time": [186, 319, 1637, 1771, 1888, 2839, 6191, 9278, 12263, 12413, 12597, 13030, 13181, 13714, 14214]}, "edge": {"target": [], "time": []}}}, "displayed_time": "17.87", "trialTime": 18404, "trial_type": "mouselab-mdp", "trial_index": 28, "time_elapsed": 951676, "internal_node_id": "0.0-6.0-1.0-19.0"}}, {"uniqueid": "w12271574:a33803546", "current_trial": 29, "dateTime": 1693661605037, "trialdata": {"revealed_states": [], "clicked_states": ["31", "32", "23", "24", "25", "30"], "num_clicks_accrued": [0, 0, 0, 0, 0, 0, 0, 0, 0, 0, 0, 0, 0], "stateRewards": ["", 1, -4, -6, -1, -21, 17, -72, 10, 77, 67, -46, -1, 4, -2, 14, -66, -49, -45, -15, -52, 23, -67, 2, -2, -2, 15, -3, 45, -64, 5, -44, 83, 61], "withholdReward": false, "trial_id": "mdp_trial_21", "block": "test", "trialIndex": 22, "score": 79.1, "costs": -6.8999999999999995, "simulationMode": [null, null, null, null, null], "rewards": [2, -2, -2, 5, 83], "path": ["0", "0", "23", "24", "25", "30", "32"], "rt": [11197, 19, 86, 89, 43], "actions": ["left", "left", "left", "down", "down"], "actionTimes": [12163, 12689, 13289, 13876, 14414], "queries": {"click": {"state": {"target": ["31", "32", "23", "24", "25", "30"], "time": [2762, 5842, 9984, 10592, 11155, 11697]}, "edge": {"target": [], "time": []}}, "mouseover": {"state": {"target": ["23", "28", "24", "31", "32", "33", "30", "23", "23", "24", "25", "30"], "time": [1575, 1842, 2492, 2576, 3610, 6396, 9481, 9598, 9898, 10399, 10983, 11400]}, "edge": {"target": [], "time": []}}, "mouseout": {"state": {"target": ["26", "23", "28", "24", "31", "31", "32", "33", "30", "23", "23", "24", "25", "30"], "time": [190, 1608, 2476, 2526, 2871, 3376, 6212, 9465, 9533, 9699, 10249, 10816, 11383, 14903]}, "edge": {"target": [], "time": []}}}, "displayed_time": "14.97", "trialTime": 15751, "trial_type": "mouselab-mdp", "trial_index": 29, "time_elapsed": 967552, "internal_node_id": "0.0-6.0-1.0-20.0"}}, {"uniqueid": "w12271574:a33803546", "current_trial": 30, "dateTime": 1693661634613, "trialdata": {"revealed_states": [], "clicked_states": ["28", "27", "29", "33", "32", "31", "23", "24", "25", "30"], "num_clicks_accrued": [0, 0, 0, 0, 0, 0, 0, 0, 0, 0, 0, 0, 0], "stateRewards": ["", 2, -1, 5, 8, 75, -35, -77, 1, -9, -81, -58, 1, 2, -7, 5, 77, -16, 19, 16, -10, -18, 40, -2, 3, 7, -5, 64, 1, -62, 10, 27, 10, 65], "withholdReward": false, "trial_id": "mdp_trial_22", "block": "test", "trialIndex": 23, "score": 67.5, "costs": -15.5, "simulationMode": [null, null, null, null, null], "rewards": [-2, 3, 7, 10, 65], "path": ["0", "0", "23", "24", "25", "30", "33"], "rt": [24558, 108, 108, 45, 80], "actions": ["left", "left", "left", "down", "left"], "actionTimes": [25701, 26315, 26915, 27452, 28039], "queries": {"click": {"state": {"target": ["28", "27", "29", "33", "32", "31", "23", "24", "25", "30"], "time": [2314, 5514, 9074, 12154, 15186, 18418, 22314, 23426, 24417, 25018]}, "edge": {"target": [], "time": []}}, "mouseover": {"state": {"target": ["0", "23", "28", "27", "29", "33", "33", "32", "31", "23", "24", "25", "30", "31"], "time": [1634, 1801, 2185, 2585, 6088, 9474, 9691, 12627, 16230, 18865, 22902, 24219, 24903, 25337]}, "edge": {"target": [], "time": []}}, "mouseout": {"state": {"target": ["23", "0", "23", "28", "27", "29", "33", "33", "32", "31", "23", "24", "25", "30", "31"], "time": [500, 1668, 2051, 2502, 5905, 9391, 9525, 12443, 15429, 18665, 22551, 24019, 24720, 25119, 29174]}, "edge": {"target": [], "time": []}}}, "displayed_time": "28.54", "trialTime": 29440, "trial_type": "mouselab-mdp", "trial_index": 30, "time_elapsed": 997128, "internal_node_id": "0.0-6.0-1.0-21.0"}}, {"uniqueid": "w12271574:a33803546", "current_trial": 31, "dateTime": 1693661706940, "trialdata": {"revealed_states": [], "clicked_states": ["23", "28", "27", "29", "33", "32", "31", "22", "21", "20", "17", "16", "18", "7", "6", "5", "9", "11", "10", "1", "2", "3", "8"], "num_clicks_accrued": [0, 0, 0, 0, 0, 0, 0, 0, 0, 0, 0, 0, 0], "stateRewards": ["", 2, 1, -3, 7, 46, 11, -36, 16, 71, 5, 1, 2, -2, -8, -3, -4, 6, 55, 7, 68, -54, 2, 1, 1, 6, -6, 42, -4, -84, -11, -65, 63, 25], "withholdReward": false, "trial_id": "mdp_trial_23", "block": "test", "trialIndex": 24, "score": 45.95000000000001, "costs": -41.04999999999999, "simulationMode": [null, null, null, null, null], "rewards": [2, 1, -3, 16, 71], "path": ["0", "0", "1", "2", "3", "8", "9"], "rt": [62713, 33, 46, 70, 242], "actions": ["up", "up", "up", "left", "up"], "actionTimes": [68502, 69051, 69613, 70188, 70926], "queries": {"click": {"state": {"target": ["23", "28", "27", "29", "33", "32", "31", "22", "21", "20", "17", "16", "18", "7", "6", "5", "9", "11", "10", "1", "2", "3", "8"], "time": [6618, 8371, 11363, 14435, 17562, 20875, 24131, 27819, 30963, 33972, 37242, 40506, 43627, 46828, 49949, 53068, 56236, 59692, 62811, 65948, 66652, 67235, 67853]}, "edge": {"target": [], "time": []}}, "mouseover": {"state": {"target": ["23", "24", "28", "28", "27", "26", "29", "33", "33", "32", "31", "22", "22", "21", "21", "20", "17", "17", "16", "16", "18", "7", "7", "6", "5", "9", "11", "10", "2", "1", "2", "3", "8"], "time": [6446, 7146, 7197, 7463, 9298, 11733, 11950, 15753, 16254, 18072, 21325, 24544, 26029, 28130, 28947, 31400, 34419, 34719, 38288, 39540, 40991, 43961, 44228, 47280, 50433, 53619, 57238, 60191, 63077, 63377, 66312, 67030, 67730]}, "edge": {"target": [], "time": []}}, "mouseout": {"state": {"target": ["12", "0", "23", "24", "28", "28", "27", "26", "29", "33", "33", "32", "31", "22", "22", "21", "21", "20", "17", "17", "16", "16", "18", "7", "7", "6", "5", "9", "11", "10", "2", "1", "2", "3", "8", "2", "12"], "time": [5261, 6095, 6846, 7196, 7230, 9131, 11667, 11767, 14819, 15770, 17905, 21108, 24360, 24560, 28047, 28264, 31216, 34269, 34486, 38022, 38856, 40874, 43877, 44028, 47030, 50183, 53285, 56671, 59941, 63026, 63177, 66146, 66880, 67513, 68331, 69515, 71984]}, "edge": {"target": [], "time": []}}}, "displayed_time": "71.42", "trialTime": 72201, "trial_type": "mouselab-mdp", "trial_index": 31, "time_elapsed": 1069455, "internal_node_id": "0.0-6.0-1.0-22.0"}}, {"uniqueid": "w12271574:a33803546", "current_trial": 32, "dateTime": 1693661723004, "trialdata": {"revealed_states": [], "clicked_states": ["9", "11", "1", "2", "3", "8"], "num_clicks_accrued": [0, 0, 0, 0, 0, 0, 0, 0, 0, 0, 0, 0, 0], "stateRewards": ["", 1, 2, -5, 14, 54, -14, -25, 16, -5, -87, 78, -1, 1, 3, -3, 52, 53, 53, -10, 73, -69, -48, 2, 3, 1, 8, -62, -7, 85, 7, 82, 52, -28], "withholdReward": false, "trial_id": "mdp_trial_24", "block": "test", "trialIndex": 25, "score": 85.1, "costs": -6.8999999999999995, "simulationMode": [null, null, null, null, null], "rewards": [1, 2, -5, 16, 78], "path": ["0", "0", "1", "2", "3", "8", "11"], "rt": [10881, 41, 117, 66, 70], "actions": ["up", "up", "up", "left", "left"], "actionTimes": [11990, 12540, 13165, 13715, 14303], "queries": {"click": {"state": {"target": ["9", "11", "1", "2", "3", "8"], "time": [2760, 5840, 10160, 10687, 11175, 11606]}, "edge": {"target": [], "time": []}}, "mouseover": {"state": {"target": ["10", "8", "9", "11", "27", "10", "1", "2", "3", "8"], "time": [1838, 1871, 2105, 3606, 6992, 9744, 9995, 10462, 10945, 11479]}, "edge": {"target": [], "time": []}}, "mouseout": {"state": {"target": ["1", "0", "10", "8", "9", "11", "27", "10", "1", "2", "3"], "time": [603, 1138, 1854, 2021, 3122, 6341, 9661, 9795, 10269, 10879, 11363]}, "edge": {"target": [], "time": []}}}, "displayed_time": "15.11", "trialTime": 15916, "trial_type": "mouselab-mdp", "trial_index": 32, "time_elapsed": 1085519, "internal_node_id": "0.0-6.0-1.0-23.0"}}, {"uniqueid": "w12271574:a33803546", "current_trial": 33, "dateTime": 1693661754842, "trialdata": {"revealed_states": [], "clicked_states": ["5", "9", "1", "2", "3", "4", "8"], "num_clicks_accrued": [0, 0, 0, 0, 0, 0, 0, 0, 0, 0, 0, 0, 0], "stateRewards": ["", -2, -1, -2, -15, 87, 57, 29, -10, 77, -80, -7, 1, -3, 6, 14, -11, 87, -59, 4, -71, 16, -11, 2, 2, -7, 2, -47, 61, 50, 14, -20, 17, 81], "withholdReward": false, "trial_id": "mdp_trial_25", "block": "test", "trialIndex": 26, "score": 58.55, "costs": -8.45, "simulationMode": [null, null, null, null, null], "rewards": [-2, -1, -2, -15, 87], "path": ["0", "0", "1", "2", "3", "4", "5"], "rt": [15827, 75, 8, 10928, 52], "actions": ["up", "up", "up", "right", "up"], "actionTimes": [17209, 17785, 18285, 29723, 30272], "queries": {"click": {"state": {"target": ["5", "9", "1", "2", "3", "4", "8"], "time": [3223, 6280, 10104, 11063, 11599, 12062, 13903]}, "edge": {"target": [], "time": []}}, "mouseover": {"state": {"target": ["1", "5", "9", "7", "1", "2", "3", "4", "8", "2", "7", "4", "5", "4", "7"], "time": [2195, 2546, 4014, 6966, 7450, 10402, 11437, 11853, 13805, 14473, 15773, 15807, 16324, 16524, 16857]}, "edge": {"target": [], "time": []}}, "mouseout": {"state": {"target": ["8", "1", "0", "1", "5", "9", "7", "1", "2", "3", "4", "3", "8", "2", "7", "4", "5", "4", "7", "4", "5"], "time": [627, 677, 1582, 2229, 3397, 6766, 7100, 10213, 11320, 11820, 13538, 13622, 14422, 14573, 15790, 15823, 16374, 16624, 18676, 19134, 20828]}, "edge": {"target": [], "time": []}}}, "displayed_time": "30.79", "trialTime": 31698, "trial_type": "mouselab-mdp", "trial_index": 33, "time_elapsed": 1117357, "internal_node_id": "0.0-6.0-1.0-24.0"}}, {"uniqueid": "w12271574:a33803546", "current_trial": 34, "dateTime": 1693661774192, "trialdata": {"revealed_states": [], "clicked_states": ["5", "9", "11", "1", "2", "3", "8"], "num_clicks_accrued": [0, 0, 0, 0, 0, 0, 0, 0, 0, 0, 0, 0, 0], "stateRewards": ["", -1, -3, -6, -2, -7, 80, -45, -3, -38, -72, 76, 2, 1, 7, 4, -62, 14, -74, 14, -87, -21, -88, -2, 1, -7, -10, 66, 56, -76, 10, -29, -72, -70], "withholdReward": false, "trial_id": "mdp_trial_26", "block": "test", "trialIndex": 27, "score": 53.95, "costs": -9.049999999999999, "simulationMode": [null, null, null, null, null], "rewards": [-1, -3, -6, -3, 76], "path": ["0", "0", "1", "2", "3", "8", "11"], "rt": [14058, 9, 4, 13, 409], "actions": ["up", "up", "up", "left", "left"], "actionTimes": [15140, 15665, 16177, 16702, 17615], "queries": {"click": {"state": {"target": ["5", "9", "11", "1", "2", "3", "8"], "time": [1930, 5033, 8090, 12881, 13457, 13945, 14476]}, "edge": {"target": [], "time": []}}, "mouseover": {"state": {"target": ["1", "2", "3", "5", "5", "9", "8", "11", "27", "3", "8", "2", "1", "2", "3", "8"], "time": [1242, 1275, 1293, 1342, 1692, 2559, 5395, 5629, 8548, 11901, 12101, 12584, 12634, 13151, 13769, 14319]}, "edge": {"target": [], "time": []}}, "mouseout": {"state": {"target": ["4", "7", "0", "1", "2", "3", "5", "5", "9", "8", "11", "27", "3", "8", "2", "1", "2", "3", "8"], "time": [557, 590, 1216, 1258, 1291, 1308, 1358, 2226, 5362, 5412, 8414, 11767, 12007, 12551, 12601, 13035, 13585, 14135, 14686]}, "edge": {"target": [], "time": []}}}, "displayed_time": "18.11", "trialTime": 19202, "trial_type": "mouselab-mdp", "trial_index": 34, "time_elapsed": 1136707, "internal_node_id": "0.0-6.0-1.0-25.0"}}, {"uniqueid": "w12271574:a33803546", "current_trial": 35, "dateTime": 1693661810542, "trialdata": {"revealed_states": [], "clicked_states": ["5", "9", "11", "27", "7", "10", "28", "23", "24", "25", "26", "1", "2", "3", "4"], "num_clicks_accrued": [0, 0, 0, 0, 0, 0, 0, 0, 0, 0, 0, 0, 0], "stateRewards": ["", -2, 3, -5, -7, 66, 43, -60, -4, -70, -75, 4, -1, 2, 2, -13, 54, 11, -40, -1, 77, 32, 15, -2, 3, -8, -9, -35, 83, -27, 6, -74, -34, 44], "withholdReward": false, "trial_id": "mdp_trial_27", "block": "test", "trialIndex": 28, "score": 46.75, "costs": -20.250000000000004, "simulationMode": [null, null, null, null, null], "rewards": [-2, 3, -8, -9, 83], "path": ["0", "0", "23", "24", "25", "26", "28"], "rt": [30669, 31, 93, 392, 58], "actions": ["left", "left", "left", "up", "right"], "actionTimes": [32240, 32766, 33379, 34278, 34828], "queries": {"click": {"state": {"target": ["5", "9", "11", "27", "7", "10", "28", "23", "24", "25", "26", "1", "2", "3", "4"], "time": [2772, 5789, 9085, 12261, 15340, 18428, 21565, 25715, 26244, 26820, 27371, 28956, 29671, 30288, 31091]}, "edge": {"target": [], "time": []}}, "mouseover": {"state": {"target": ["1", "2", "3", "5", "9", "11", "26", "27", "10", "2", "7", "2", "10", "24", "28", "26", "29", "23", "24", "25", "26", "28", "2", "1", "2", "3", "4", "7"], "time": [2193, 2226, 2259, 2676, 3294, 6413, 9399, 9615, 13636, 13836, 14086, 16004, 16204, 19090, 20208, 21876, 22043, 25478, 26029, 26646, 27079, 28130, 28214, 28748, 29148, 29915, 30583, 31483]}, "edge": {"target": [], "time": []}}, "mouseout": {"state": {"target": ["2", "0", "0", "1", "2", "3", "5", "9", "11", "26", "27", "10", "2", "7", "2", "10", "24", "28", "26", "29", "23", "24", "25", "26", "28", "2", "1", "2", "3", "4", "7"], "time": [474, 1142, 2146, 2209, 2243, 2343, 2960, 6296, 9366, 9432, 13452, 13802, 14019, 15954, 16154, 18757, 20008, 21826, 21993, 25129, 25845, 26334, 26946, 27546, 28147, 28230, 29065, 29832, 30515, 31383, 31517]}, "edge": {"target": [], "time": []}}}, "displayed_time": "35.34", "trialTime": 36203, "trial_type": "mouselab-mdp", "trial_index": 35, "time_elapsed": 1173056, "internal_node_id": "0.0-6.0-1.0-26.0"}}, {"uniqueid": "w12271574:a33803546", "current_trial": 36, "dateTime": 1693661831405, "trialdata": {"revealed_states": [], "clicked_states": ["28", "27", "29", "23", "24", "25", "26"], "num_clicks_accrued": [0, 0, 0, 0, 0, 0, 0, 0, 0, 0, 0, 0, 0], "stateRewards": ["", -1, 3, 2, 9, 41, 4, -46, -12, -54, -87, -25, 2, 3, -1, 11, -77, 12, -33, -9, -32, 35, 72, 1, 3, -7, 4, 37, 65, -73, 6, 77, -43, 8], "withholdReward": false, "trial_id": "mdp_trial_28", "block": "test", "trialIndex": 29, "score": 56.95, "costs": -9.049999999999999, "simulationMode": [null, null, null, null, null], "rewards": [1, 3, -7, 4, 65], "path": ["0", "0", "23", "24", "25", "26", "28"], "rt": [15245, 18, 3, 109, 604], "actions": ["left", "left", "left", "up", "right"], "actionTimes": [16084, 16597, 17098, 17722, 18834], "queries": {"click": {"state": {"target": ["28", "27", "29", "23", "24", "25", "26"], "time": [2184, 5559, 8895, 13216, 13815, 14359, 14927]}, "edge": {"target": [], "time": []}}, "mouseover": {"state": {"target": ["23", "28", "27", "27", "29", "33", "25", "24", "23", "23", "24", "25", "26"], "time": [1565, 2015, 2632, 2983, 6035, 9705, 12124, 12341, 12674, 13141, 13608, 14125, 14659]}, "edge": {"target": [], "time": []}}, "mouseout": {"state": {"target": ["0", "23", "28", "27", "27", "29", "33", "25", "24", "23", "23", "24", "25", "26", "24", "23", "0"], "time": [1531, 1598, 2466, 2899, 5969, 9355, 9889, 12157, 12658, 12741, 13491, 14059, 14576, 15193, 15443, 15543, 20414]}, "edge": {"target": [], "time": []}}}, "displayed_time": "19.33", "trialTime": 20710, "trial_type": "mouselab-mdp", "trial_index": 36, "time_elapsed": 1193920, "internal_node_id": "0.0-6.0-1.0-27.0"}}, {"uniqueid": "w12271574:a33803546", "current_trial": 37, "dateTime": 1693661871607, "trialdata": {"revealed_states": [], "clicked_states": ["5", "9", "11", "27", "6", "7", "18", "16", "17", "12", "13", "14", "15"], "num_clicks_accrued": [0, 0, 0, 0, 0, 0, 0, 0, 0, 0, 0, 0, 0], "stateRewards": ["", -2, 1, -7, 9, 8, 25, 61, -7, -17, 69, -81, 1, 4, -4, -11, 16, 67, 44, 3, 6, -45, -54, -2, 3, 6, -11, -15, 32, -47, 3, -39, -6, -88], "withholdReward": false, "trial_id": "mdp_trial_29", "block": "test", "trialIndex": 30, "score": 35.05, "costs": -21.95, "simulationMode": [null, null, null, null, null], "rewards": [1, 4, -4, -11, 67], "path": ["0", "0", "12", "13", "14", "15", "17"], "rt": [35382, 18, 352, 64, 21], "actions": ["right", "right", "right", "up", "right"], "actionTimes": [36327, 36852, 37703, 38265, 38789], "queries": {"click": {"state": {"target": ["5", "9", "11", "27", "6", "7", "18", "16", "17", "12", "13", "14", "15"], "time": [2537, 5697, 8713, 11729, 14817, 17874, 21186, 24641, 27865, 32321, 32961, 33634, 34273]}, "edge": {"target": [], "time": []}}, "mouseover": {"state": {"target": ["0", "23", "28", "27", "8", "9", "5", "5", "9", "11", "11", "27", "29", "29", "26", "10", "2", "6", "7", "18", "16", "12", "13", "14", "17", "14", "22", "13", "12", "0", "12", "13", "14", "15", "7", "1"], "time": [1019, 1102, 1169, 1436, 1853, 2070, 2170, 2420, 3087, 6207, 6590, 9326, 12094, 12862, 12895, 12962, 12996, 13246, 15448, 19167, 22203, 26006, 26774, 26857, 26957, 28125, 28275, 31595, 31812, 32079, 32179, 32646, 33413, 34047, 35448, 35815]}, "edge": {"target": [], "time": []}}, "mouseout": {"state": {"target": ["0", "23", "28", "27", "8", "9", "5", "5", "9", "11", "11", "27", "29", "29", "26", "10", "2", "6", "7", "18", "16", "18", "12", "13", "14", "17", "14", "22", "13", "12", "0", "12", "13", "14", "15", "15", "15", "7", "1"], "time": [1069, 1119, 1269, 1770, 2037, 2087, 2220, 2754, 6040, 6440, 9159, 12078, 12111, 12879, 12929, 12979, 13013, 15164, 18650, 21503, 25156, 25306, 26206, 26823, 26908, 28108, 28175, 31445, 31661, 31845, 32145, 32529, 33246, 33930, 34343, 34430, 35381, 35615, 36215]}, "edge": {"target": [], "time": []}}}, "displayed_time": "39.29", "trialTime": 40065, "trial_type": "mouselab-mdp", "trial_index": 37, "time_elapsed": 1234122, "internal_node_id": "0.0-6.0-1.0-28.0"}}, {"uniqueid": "w12271574:a33803546", "current_trial": 38, "dateTime": 1693661911259, "trialdata": {"revealed_states": [], "clicked_states": ["32", "33", "31", "29", "28", "27", "9", "11", "10", "1", "2", "3", "8"], "num_clicks_accrued": [0, 0, 0, 0, 0, 0, 0, 0, 0, 0, 0, 0, 0], "stateRewards": ["", 2, 3, -1, 16, -78, -11, 46, 2, -20, 79, -67, 2, 3, 2, 11, -83, -42, -58, -11, -67, -22, 55, 2, -1, -1, -16, -83, -82, 23, -11, -29, 13, 13], "withholdReward": false, "trial_id": "mdp_trial_30", "block": "test", "trialIndex": 31, "score": 63.05, "costs": -21.95, "simulationMode": [null, null, null, null, null], "rewards": [2, 3, -1, 2, 79], "path": ["0", "0", "1", "2", "3", "8", "10"], "rt": [33813, 249, 158, 103, 78], "actions": ["up", "up", "up", "left", "down"], "actionTimes": [34877, 35615, 36291, 36903, 37478], "queries": {"click": {"state": {"target": ["32", "33", "31", "29", "28", "27", "9", "11", "10", "1", "2", "3", "8"], "time": [2170, 5458, 8802, 12234, 15362, 18521, 21714, 24841, 27961, 31961, 32609, 33257, 33786]}, "edge": {"target": [], "time": []}}, "mouseover": {"state": {"target": ["23", "31", "30", "32", "32", "33", "33", "30", "31", "24", "29", "26", "28", "27", "8", "9", "11", "10", "3", "5", "2", "1", "2", "3", "8"], "time": [1486, 1505, 1521, 1569, 1853, 2838, 3388, 5740, 6024, 9259, 9743, 12746, 13029, 15782, 19001, 20168, 22371, 25290, 28575, 29192, 31661, 31761, 32345, 32979, 33513]}, "edge": {"target": [], "time": []}}, "mouseout": {"state": {"target": ["1", "1", "23", "31", "30", "32", "32", "33", "33", "30", "31", "24", "29", "26", "28", "27", "8", "9", "11", "10", "3", "5", "2", "1", "2", "3", "8"], "time": [469, 735, 1503, 1520, 1536, 1637, 2487, 2988, 5706, 5807, 9209, 9277, 12712, 12929, 15631, 18834, 20069, 22087, 25139, 28259, 28759, 31528, 31711, 32162, 32796, 33462, 34063]}, "edge": {"target": [], "time": []}}}, "displayed_time": "37.97", "trialTime": 39517, "trial_type": "mouselab-mdp", "trial_index": 38, "time_elapsed": 1273774, "internal_node_id": "0.0-6.0-1.0-29.0"}}, {"uniqueid": "w12271574:a33803546", "current_trial": 39, "dateTime": 1693661930845, "trialdata": {"revealed_states": [], "clicked_states": ["22", "21", "20", "12", "13", "14", "19"], "num_clicks_accrued": [0, 0, 0, 0, 0, 0, 0, 0, 0, 0, 0, 0, 0], "stateRewards": ["", -1, 3, -5, -2, -13, -9, -34, -7, -81, 32, 35, -2, -2, 1, -14, -32, 81, 7, 4, 82, 56, -8, -1, 3, -8, 6, -24, -24, -53, 2, 38, 61, 54], "withholdReward": false, "trial_id": "mdp_trial_31", "block": "test", "trialIndex": 32, "score": 73.95, "costs": -9.049999999999999, "simulationMode": [null, null, null, null, null], "rewards": [-2, -2, 1, 4, 82], "path": ["0", "0", "12", "13", "14", "19", "20"], "rt": [14318, 4, 37, 28, 395], "actions": ["right", "right", "right", "down", "right"], "actionTimes": [15384, 15897, 16447, 16972, 17860], "queries": {"click": {"state": {"target": ["22", "21", "20", "12", "13", "14", "19"], "time": [3121, 6194, 9241, 13122, 13600, 14016, 14457]}, "edge": {"target": [], "time": []}}, "mouseover": {"state": {"target": ["1", "2", "7", "18", "19", "22", "21", "20", "17", "17", "13", "12", "13", "14", "19"], "time": [1580, 1614, 1780, 2014, 2247, 2931, 3882, 6851, 9686, 9904, 12889, 12939, 13423, 13923, 14374]}, "edge": {"target": [], "time": []}}, "mouseout": {"state": {"target": ["0", "1", "2", "7", "18", "19", "22", "21", "20", "17", "17", "13", "12", "13", "14", "19"], "time": [1544, 1597, 1763, 1797, 2047, 2314, 3615, 6568, 9603, 9753, 12739, 12906, 13373, 13823, 14257, 14550]}, "edge": {"target": [], "time": []}}}, "displayed_time": "18.36", "trialTime": 19447, "trial_type": "mouselab-mdp", "trial_index": 39, "time_elapsed": 1293360, "internal_node_id": "0.0-6.0-1.0-30.0"}}, {"uniqueid": "w12271574:a33803546", "current_trial": 40, "dateTime": 1693661952295, "trialdata": {"revealed_states": [], "clicked_states": ["31", "32", "33", "23", "24", "25", "30"], "num_clicks_accrued": [0, 0, 0, 0, 0, 0, 0, 0, 0, 0, 0, 0, 0], "stateRewards": ["", -1, 2, -6, 6, -82, -19, -39, -16, -83, 11, -33, -2, -2, 4, -6, -82, -1, -19, -6, -10, -67, -41, -2, 1, -7, 16, -23, -78, -52, 14, 31, -71, 74], "withholdReward": false, "trial_id": "mdp_trial_32", "block": "test", "trialIndex": 33, "score": 70.95, "costs": -9.049999999999999, "simulationMode": [null, null, null, null, null], "rewards": [-2, 1, -7, 14, 74], "path": ["0", "0", "23", "24", "25", "30", "33"], "rt": [14666, 271, 63, 584, 74], "actions": ["left", "left", "left", "down", "left"], "actionTimes": [15648, 16411, 16986, 18073, 18649], "queries": {"click": {"state": {"target": ["31", "32", "33", "23", "24", "25", "30"], "time": [2614, 5847, 8950, 12958, 13375, 13845, 14261]}, "edge": {"target": [], "time": []}}, "mouseover": {"state": {"target": ["23", "24", "30", "31", "32", "32", "33", "29", "24", "23", "24", "25", "30", "31"], "time": [2059, 2160, 2259, 2443, 3161, 5646, 6263, 9415, 12484, 12684, 13185, 13652, 14119, 14586]}, "edge": {"target": [], "time": []}}, "mouseout": {"state": {"target": ["12", "23", "24", "30", "31", "31", "32", "32", "33", "29", "24", "23", "24", "25", "30", "31", "12", "18", "15"], "time": [458, 2126, 2209, 2393, 2710, 2993, 5396, 6146, 9282, 12401, 12601, 13118, 13619, 14070, 14553, 14620, 19624, 19740, 20875]}, "edge": {"target": [], "time": []}}}, "displayed_time": "19.14", "trialTime": 21310, "trial_type": "mouselab-mdp", "trial_index": 40, "time_elapsed": 1314810, "internal_node_id": "0.0-6.0-1.0-31.0"}}, {"uniqueid": "w12271574:a33803546", "current_trial": 41, "dateTime": 1693661988835, "trialdata": {"revealed_states": [], "clicked_states": ["31", "32", "33", "29", "27", "28", "10", "11", "9", "1", "2", "3", "8"], "num_clicks_accrued": [0, 0, 0, 0, 0, 0, 0, 0, 0, 0, 0, 0, 0], "stateRewards": ["", -2, 3, -1, 2, -72, 63, 20, -1, 62, -66, 39, -2, 3, -6, 14, 22, 47, 1, 8, -49, -1, -41, 2, 2, -6, -16, -64, -60, -34, 16, 54, 22, -7], "withholdReward": false, "trial_id": "mdp_trial_33", "block": "test", "trialIndex": 34, "score": 39.05, "costs": -21.95, "simulationMode": [null, null, null, null, null], "rewards": [-2, 3, -1, -1, 62], "path": ["0", "0", "1", "2", "3", "8", "9"], "rt": [31842, 35, 36, 3, 68], "actions": ["up", "up", "up", "left", "up"], "actionTimes": [32961, 33510, 34060, 34587, 35160], "queries": {"click": {"state": {"target": ["31", "32", "33", "29", "27", "28", "10", "11", "9", "1", "2", "3", "8"], "time": [2447, 5215, 8414, 11518, 14606, 17639, 20607, 23654, 26599, 30831, 31335, 31951, 32479]}, "edge": {"target": [], "time": []}}, "mouseover": {"state": {"target": ["23", "32", "31", "32", "32", "33", "29", "27", "28", "10", "11", "9", "5", "4", "2", "1", "2", "3", "8"], "time": [1946, 2013, 2284, 2797, 3197, 6000, 9169, 12021, 15191, 18076, 21279, 23998, 27585, 30053, 30370, 30620, 31138, 31722, 32388]}, "edge": {"target": [], "time": []}}, "mouseout": {"state": {"target": ["15", "15", "12", "0", "23", "32", "31", "32", "32", "33", "29", "27", "28", "10", "11", "9", "5", "4", "2", "1", "2", "3", "8", "8"], "time": [378, 595, 828, 1829, 1963, 2147, 2730, 3064, 5784, 8718, 11821, 14990, 17943, 21045, 23915, 27134, 29987, 30104, 30503, 30948, 31505, 32222, 32564, 32689]}, "edge": {"target": [], "time": []}}}, "displayed_time": "35.66", "trialTime": 36387, "trial_type": "mouselab-mdp", "trial_index": 41, "time_elapsed": 1351350, "internal_node_id": "0.0-6.0-1.0-32.0"}}, {"uniqueid": "w12271574:a33803546", "current_trial": 42, "dateTime": 1693662013398, "trialdata": {"revealed_states": [], "clicked_states": ["31", "32", "33", "29", "23", "24", "25", "30"], "num_clicks_accrued": [0, 0, 0, 0, 0, 0, 0, 0, 0, 0, 0, 0, 0], "stateRewards": ["", -2, -4, -2, -13, -15, 87, -19, -6, -80, 30, 12, 1, 1, -8, 2, 55, 56, 15, 11, -68, -7, 55, -2, 3, -3, -3, 48, 62, 4, 1, -3, 69, -33], "withholdReward": false, "trial_id": "mdp_trial_34", "block": "test", "trialIndex": 35, "score": 56.8, "costs": -11.2, "simulationMode": [null, null, null, null, null], "rewards": [-2, 3, -3, 1, 69], "path": ["0", "0", "23", "24", "25", "30", "32"], "rt": [19675, 70, 129, 36, 65], "actions": ["left", "left", "left", "down", "down"], "actionTimes": [21036, 21622, 22247, 22772, 23334], "queries": {"click": {"state": {"target": ["31", "32", "33", "29", "23", "24", "25", "30"], "time": [2864, 5952, 9215, 13072, 16744, 17311, 18487, 20159]}, "edge": {"target": [], "time": []}}, "mouseover": {"state": {"target": ["23", "31", "32", "33", "30", "24", "23", "24", "29", "29", "27", "28", "24", "23", "24", "25", "30", "31"], "time": [1783, 2725, 3351, 6387, 9657, 10057, 10607, 12710, 12759, 12976, 13426, 16395, 16429, 16595, 17146, 17797, 19014, 20432]}, "edge": {"target": [], "time": []}}, "mouseout": {"state": {"target": ["2", "1", "0", "0", "23", "31", "32", "33", "30", "24", "23", "24", "29", "29", "27", "28", "24", "23", "24", "25", "30", "30"], "time": [582, 682, 765, 1015, 1817, 3134, 6238, 9556, 9790, 10274, 12709, 12725, 12792, 13309, 16362, 16412, 16445, 16996, 17629, 18881, 20230, 20416]}, "edge": {"target": [], "time": []}}}, "displayed_time": "23.84", "trialTime": 24422, "trial_type": "mouselab-mdp", "trial_index": 42, "time_elapsed": 1375912, "internal_node_id": "0.0-6.0-1.0-33.0"}}, {"uniqueid": "w12271574:a33803546", "current_trial": 43, "dateTime": 1693662037111, "trialdata": {"revealed_states": [], "clicked_states": ["31", "32", "33", "29", "23", "25", "26"], "num_clicks_accrued": [0, 0, 0, 0, 0, 0, 0, 0, 0, 0, 0, 0, 0], "stateRewards": ["", -2, -3, -3, 9, 79, 67, 22, -15, -56, 27, -85, -2, 4, -4, -15, -20, -32, 60, 15, 71, 57, 17, 1, 2, -8, 15, -37, -81, 82, 15, 21, -3, 2], "withholdReward": false, "trial_id": "mdp_trial_35", "block": "test", "trialIndex": 36, "score": 81.15, "costs": -10.85, "simulationMode": [null, null, null, null, null], "rewards": [1, 2, -8, 15, 82], "path": ["0", "0", "23", "24", "25", "26", "29"], "rt": [18975, 176, 85, 151, 76], "actions": ["left", "left", "left", "up", "left"], "actionTimes": [19689, 20379, 20953, 21604, 22178], "queries": {"click": {"state": {"target": ["31", "32", "33", "29", "23", "25", "26"], "time": [1735, 4952, 8263, 11375, 16311, 17734, 19110]}, "edge": {"target": [], "time": []}}, "mouseover": {"state": {"target": ["0", "23", "31", "31", "32", "33", "29", "27", "24", "23", "28", "23", "24", "25", "26", "24"], "time": [1110, 1284, 1401, 1618, 2085, 5371, 8624, 11860, 15079, 15379, 15679, 16046, 16614, 16980, 18148, 19549]}, "edge": {"target": [], "time": []}}, "mouseout": {"state": {"target": ["31", "0", "0", "23", "31", "31", "32", "33", "29", "27", "24", "23", "28", "23", "24", "25", "26", "24"], "time": [116, 233, 1167, 1317, 1434, 1968, 5237, 8514, 11676, 14762, 15196, 15613, 15846, 16384, 16797, 18032, 19349, 19583]}, "edge": {"target": [], "time": []}}}, "displayed_time": "22.67", "trialTime": 23567, "trial_type": "mouselab-mdp", "trial_index": 43, "time_elapsed": 1399626, "internal_node_id": "0.0-6.0-1.0-34.0"}}, {"uniqueid": "w12271574:a33803546", "current_trial": 44, "dateTime": 1693662052985, "trialdata": {"revealed_states": [], "clicked_states": ["31", "30"], "num_clicks_accrued": [0, 0, 0, 0, 0, 0, 0, 0, 0, 0, 0, 0, 0], "stateRewards": ["", 1, 1, 1, -3, -7, -1, -41, -10, 20, -72, -63, 1, -4, -2, 2, -66, 30, -84, -2, 49, 23, 71, -1, -4, 4, -12, 67, 5, 18, -16, 88, 56, -5], "withholdReward": false, "trial_id": "mdp_trial_36", "block": "test", "trialIndex": 37, "score": 67.3, "costs": -3.7, "simulationMode": [null, null, null, null, null], "rewards": [-1, -4, 4, -16, 88], "path": ["0", "0", "23", "24", "25", "30", "31"], "rt": [6683, 383, 75, 32, 75], "actions": ["left", "left", "left", "down", "right"], "actionTimes": [7621, 8520, 9095, 9620, 10195], "queries": {"click": {"state": {"target": ["31", "30"], "time": [2091, 7138]}, "edge": {"target": [], "time": []}}, "mouseover": {"state": {"target": ["23", "31", "32", "30", "25", "30"], "time": [1546, 1830, 2696, 5666, 6150, 6750]}, "edge": {"target": [], "time": []}}, "mouseout": {"state": {"target": ["0", "0", "23", "31", "32", "30", "25", "30", "31", "22", "14", "15", "16"], "time": [561, 1413, 1696, 2496, 5632, 5682, 6233, 7484, 11921, 12004, 12922, 13088, 13155]}, "edge": {"target": [], "time": []}}}, "displayed_time": "14.94", "trialTime": 15732, "trial_type": "mouselab-mdp", "trial_index": 44, "time_elapsed": 1415500, "internal_node_id": "0.0-6.0-1.0-35.0"}}, {"uniqueid": "w12271574:a33803546", "current_trial": 45, "dateTime": 1693662076273, "trialdata": {"revealed_states": [], "clicked_states": ["31", "32", "33", "29", "27"], "num_clicks_accrued": [0, 0, 0, 0, 0, 0, 0, 0, 0, 0, 0, 0, 0], "stateRewards": ["", -1, -4, -1, -11, 43, 69, 39, 4, 17, -20, -82, -2, -1, 4, 8, -79, 24, -79, 11, 36, 64, 41, 2, 4, -1, 11, -79, -47, 75, -3, 63, -36, -19], "withholdReward": false, "trial_id": "mdp_trial_37", "block": "test", "trialIndex": 38, "score": 80.25, "costs": -10.75, "simulationMode": [null, null, null, null, null], "rewards": [2, 4, -1, 11, 75], "path": ["0", "0", "23", "24", "25", "26", "29"], "rt": [17801, 80, 33, 58, 45], "actions": ["left", "left", "left", "up", "left"], "actionTimes": [18771, 19348, 19884, 20459, 20996], "queries": {"click": {"state": {"target": ["31", "32", "33", "29", "27"], "time": [3024, 6384, 9432, 12496, 15585]}, "edge": {"target": [], "time": []}}, "mouseover": {"state": {"target": ["23", "24", "25", "26", "27", "25", "30", "31", "32", "33", "29", "27", "26", "25", "30", "24", "24"], "time": [1484, 1551, 1718, 1768, 1868, 2253, 2285, 2552, 3486, 6873, 9775, 12927, 16464, 16514, 16664, 16881, 17765]}, "edge": {"target": [], "time": []}}, "mouseout": {"state": {"target": ["16", "18", "0", "23", "24", "25", "26", "27", "25", "30", "31", "32", "33", "29", "27", "26", "25", "30", "24", "24"], "time": [184, 367, 1415, 1518, 1635, 1735, 1835, 2035, 2269, 2302, 3236, 6689, 9658, 12761, 16430, 16497, 16580, 16680, 16948, 18015]}, "edge": {"target": [], "time": []}}}, "displayed_time": "21.50", "trialTime": 23147, "trial_type": "mouselab-mdp", "trial_index": 45, "time_elapsed": 1438788, "internal_node_id": "0.0-6.0-1.0-36.0"}}, {"uniqueid": "w12271574:a33803546", "current_trial": 46, "dateTime": 1693662092374, "trialdata": {"revealed_states": [], "clicked_states": ["31"], "num_clicks_accrued": [0, 0, 0, 0, 0, 0, 0, 0, 0, 0, 0, 0, 0], "stateRewards": ["", -1, -1, 7, -15, -43, -21, -84, -9, -45, -66, 2, 1, -2, 2, 8, -27, 44, -52, -5, -84, 11, 53, 1, 4, -4, 16, 83, -82, -15, -16, 68, -43, 81], "withholdReward": false, "trial_id": "mdp_trial_38", "block": "test", "trialIndex": 39, "score": 50.85, "costs": -2.15, "simulationMode": [null, null, null, null, null], "rewards": [1, 4, -4, -16, 68], "path": ["0", "0", "23", "24", "25", "30", "31"], "rt": [5533, 57, 65, 11, 44], "actions": ["left", "left", "left", "down", "right"], "actionTimes": [7093, 7645, 8220, 8732, 9282], "queries": {"click": {"state": {"target": ["31"], "time": [2669]}, "edge": {"target": [], "time": []}}, "mouseover": {"state": {"target": ["23", "24", "31", "31", "32", "30"], "time": [2081, 2131, 2281, 2415, 3098, 6852]}, "edge": {"target": [], "time": []}}, "mouseout": {"state": {"target": ["0", "23", "24", "31", "31", "32", "30", "31"], "time": [2048, 2114, 2181, 2364, 2948, 6785, 11989, 12056]}, "edge": {"target": [], "time": []}}}, "displayed_time": "15.56", "trialTime": 15957, "trial_type": "mouselab-mdp", "trial_index": 46, "time_elapsed": 1454889, "internal_node_id": "0.0-6.0-1.0-37.0"}}, {"uniqueid": "w12271574:a33803546", "current_trial": 47, "dateTime": 1693662109136, "trialdata": {"revealed_states": [], "clicked_states": ["31", "32"], "num_clicks_accrued": [0, 0, 0, 0, 0, 0, 0, 0, 0, 0, 0, 0, 0], "stateRewards": ["", -2, -4, 6, 14, -34, 49, 36, -8, -3, 32, -4, 1, -2, 1, -8, -20, -71, -57, -7, -86, -62, -16, -2, -3, -5, 11, 23, -21, 53, 5, -5, 85, 73], "withholdReward": false, "trial_id": "mdp_trial_39", "block": "test", "trialIndex": 40, "score": 75.7, "costs": -4.3, "simulationMode": [null, null, null, null, null], "rewards": [-2, -3, -5, 5, 85], "path": ["0", "0", "23", "24", "25", "30", "32"], "rt": [9495, 3, 46, 432, 73], "actions": ["left", "left", "left", "down", "down"], "actionTimes": [10530, 11047, 11606, 12543, 13119], "queries": {"click": {"state": {"target": ["31", "32"], "time": [2207, 5551]}, "edge": {"target": [], "time": []}}, "mouseover": {"state": {"target": ["23", "31", "32", "32", "33", "30"], "time": [1384, 1800, 2685, 4253, 7556, 9374]}, "edge": {"target": [], "time": []}}, "mouseout": {"state": {"target": ["0", "23", "31", "32", "32", "33", "30", "23", "23"], "time": [1317, 1467, 2501, 2835, 5775, 8942, 9774, 14662, 14862]}, "edge": {"target": [], "time": []}}}, "displayed_time": "15.04", "trialTime": 16593, "trial_type": "mouselab-mdp", "trial_index": 47, "time_elapsed": 1471651, "internal_node_id": "0.0-6.0-1.0-38.0"}}, {"uniqueid": "w12271574:a33803546", "current_trial": 48, "dateTime": 1693662131613, "trialdata": {"revealed_states": [], "clicked_states": ["9", "7", "29", "31"], "num_clicks_accrued": [0, 0, 0, 0, 0, 0, 0, 0, 0, 0, 0, 0, 0], "stateRewards": ["", -2, 4, -5, -12, 85, -24, -18, -15, -78, -22, 26, -1, -1, 2, 14, -45, 52, -23, 7, -33, 24, -6, -2, -4, 5, -7, -16, 36, -39, 5, 71, -87, -23], "withholdReward": false, "trial_id": "mdp_trial_40", "block": "test", "trialIndex": 41, "score": 66.4, "costs": -8.6, "simulationMode": [null, null, null, null, null], "rewards": [-2, -4, 5, 5, 71], "path": ["0", "0", "23", "24", "25", "30", "31"], "rt": [17249, 418, 38, 38, 37], "actions": ["left", "left", "left", "down", "right"], "actionTimes": [18319, 19232, 19769, 20320, 20869], "queries": {"click": {"state": {"target": ["9", "7", "29", "31"], "time": [3826, 6946, 10258, 13386]}, "edge": {"target": [], "time": []}}, "mouseover": {"state": {"target": ["0", "31", "8", "9", "3", "7", "4", "5", "3", "10", "26", "29", "32", "31", "23", "1", "16", "16", "18"], "time": [1198, 1799, 2916, 3283, 4489, 5135, 7236, 7487, 7987, 8137, 8504, 8724, 11656, 11840, 14076, 14175, 14643, 15043, 16895]}, "edge": {"target": [], "time": []}}, "mouseout": {"state": {"target": ["0", "0", "31", "8", "9", "3", "7", "4", "5", "3", "10", "26", "29", "32", "31", "23", "1", "16", "16", "18", "31"], "time": [764, 1264, 2833, 3100, 4201, 4751, 7186, 7336, 7804, 8054, 8321, 8587, 11140, 11723, 13992, 14125, 14192, 14759, 16878, 16911, 17695]}, "edge": {"target": [], "time": []}}}, "displayed_time": "21.38", "trialTime": 22319, "trial_type": "mouselab-mdp", "trial_index": 48, "time_elapsed": 1494128, "internal_node_id": "0.0-6.0-1.0-39.0"}}, {"uniqueid": "w12271574:a33803546", "current_trial": 49, "dateTime": 1693662206637, "trialdata": {"rt": 75021, "response": {"Q0": "$-2 to $2", "Q1": "$-16 to $16", "Q2": "$-88 to $88", "Q3": "The cost for clicking on nodes varied between nodes.", "Q4": "Slightly motivated"}, "question_order": [0, 1, 2, 3, 4], "trial_id": "final_quiz_control", "trial_type": "survey-multi-choice", "trial_index": 49, "time_elapsed": 1569151, "internal_node_id": "0.0-6.0-2.0"}}, {"uniqueid": "w12271574:a33803546", "current_trial": 50, "dateTime": 1693662482380, "trialdata": {"rt": 275739, "response": {"Q0": "Inspected the values of end point nodes with the aim of finding a high value node to guide the spider too.", "Q1": "Made slight variations on inspecting some of the intermediary nodes from the spiders starting position to an end point node.", "Q2": "Accruing costs from utilising the node inspector whilst searching for an end point node with a high value attribute."}, "trial_id": "self_report_control", "trial_type": "survey-text", "trial_index": 50, "time_elapsed": 1844895, "internal_node_id": "0.0-6.0-3.0"}}, {"uniqueid": "w12271574:a33803546", "current_trial": 51, "dateTime": 1693662535765, "trialdata": {"rt": 53381, "response": {"Q0": "Agree", "Q1": "Neither disagree nor agree", "Q2": "Neither disagree nor agree", "Q3": "Agree", "Q4": "Neither disagree nor agree", "Q5": "Agree", "Q6": "Disagree"}, "question_order": [0, 1, 2, 3, 4, 5, 6], "trial_id": "self_report_2", "trial_type": "survey-multi-choice", "trial_index": 51, "time_elapsed": 1898280, "internal_node_id": "0.0-6.0-4.0"}}, {"uniqueid": "w12271574:a33803546", "current_trial": 52, "dateTime": 1693662554269, "trialdata": {"rt": 18501, "response": {"gender": "male", "age": "36", "colorblind": "0", "effort": "0"}, "trial_type": "survey-html-form", "trial_index": 52, "time_elapsed": 1916784, "internal_node_id": "0.0-6.0-5.0"}}, {"uniqueid": "w12271574:a33803546", "current_trial": 53, "dateTime": 1693662572821, "trialdata": {"rt": 18548, "response": {"Q0": "", "Q1": "No", "Q2": ""}, "trial_type": "survey-text", "trial_index": 53, "time_elapsed": 1935336, "internal_node_id": "0.0-6.0-6.0"}}, {"uniqueid": "w12271574:a33803546", "current_trial": 54, "dateTime": 1693662586469, "trialdata": {"rt": 13646, "stimulus": "<h1>Completion Code Instructions (1/2)</h1>\n<br><br><br><br>\nYou have reached the end of the experiment! The completion code consists of two parts: (1) a code with 2 characters (2) a code with 6 characters. On this page, you will receive the second part of the code. The first part of the completion code will be on the next page.\n<br><br>\nThe second part of your completion code is: <b>EWEK22</b>\n<br><br>\nPlease note this down. Then, press 'Next' in order to find the first part of your completion code. Once the data has been saved, you will receive this code either in this window or in the original browser window where you started the experiment.\n <br><br>\n<h2 style='color: red;'>Note: this is <strong>NOT</strong> the full completion code. Copy this down and click 'Next' to get the full completion code on the next page.</h2>", "response": 0, "trial_type": "html-button-response", "trial_index": 54, "time_elapsed": 1948984, "internal_node_id": "0.0-6.0-7.0"}}, {"uniqueid": "w12271574:a33803546", "current_trial": 55, "dateTime": 1693662587472, "trialdata": {"success": true, "trial_type": "fullscreen", "trial_index": 55, "time_elapsed": 1949987, "internal_node_id": "0.0-7.0"}}], "questiondata": {"params": {"CODE": "C6DMOQA6", "MIN_TIME": 14, "inspectCost": 1, "startTime": "Sat Sep 02 2023 14:17:15 GMT+0100 (British Summer Time)", "bonusRate": 0.002, "variance": "1_2_4_8_44", "branching": "31123"}, "final_score": 2420.2}, "eventdata": [{"eventtype": "initialized", "value": null, "timestamp": 1693660635424, "interval": 0}, {"eventtype": "window_resize", "value": [1029, 780], "timestamp": 1693660635424, "interval": 0}, {"eventtype": "window_resize", "value": [1029, 780], "timestamp": 1693660635841, "interval": 417}, {"eventtype": "window_resize", "value": [1968, 1002], "timestamp": 1693660638326, "interval": 2485}, {"eventtype": "window_resize", "value": [1968, 1107], "timestamp": 1693660640278, "interval": 1952}, {"eventtype": "window_resize", "value": [1968, 1002], "timestamp": 1693662586704, "interval": 1946426}], "useragent": "Mozilla/5.0 (Windows NT 10.0; Win64; x64) AppleWebKit/537.36 (KHTML, like Gecko) Chrome/116.0.0.0 Safari/537.36", "mode": "live", "id": "w12271574:a33803546", "status": "user data saved", "Beginhit": "2023-09-02 13:17:12.58175", "Beginexp": "2023-09-02 13:17:21.221999", "Endhit": "2023-09-02 13:49:48.159901", "psiturkStatus": 3, "browser": "<redacted>", "platform": "windows", "language": "en-GB"}