{"condition": 0, "counterbalance": 0, "assignmentId": "a81044237", "workerId": "w67419319", "hitId": "h45807268", "currenttrial": 55, "bonus": 0, "data": [{"uniqueid": "w67419319:a81044237", "current_trial": 0, "dateTime": 1691159694693, "trialdata": {"success": true, "trial_type": "fullscreen", "trial_index": 0, "time_elapsed": 12048, "internal_node_id": "0.0-0.0"}}, {"uniqueid": "w67419319:a81044237", "current_trial": 1, "dateTime": 1691159736236, "trialdata": {"view_history": [{"page_index": 0, "viewing_time": 41529}], "rt": 41531, "trial_id": "exp_instructions_control", "trial_type": "instructions", "trial_index": 1, "time_elapsed": 53592, "internal_node_id": "0.0-1.0"}}, {"uniqueid": "w67419319:a81044237", "current_trial": 2, "dateTime": 1691159745720, "trialdata": {"success": true, "trial_type": "fullscreen", "trial_index": 2, "time_elapsed": 63076, "internal_node_id": "0.0-2.0-0.0"}}, {"uniqueid": "w67419319:a81044237", "current_trial": 3, "dateTime": 1691160248353, "trialdata": {"view_history": [{"page_index": 0, "viewing_time": 144536}, {"page_index": 1, "viewing_time": 263954}, {"page_index": 2, "viewing_time": 44732}, {"page_index": 3, "viewing_time": 49407}], "rt": 502629, "trial_id": "mouselab_instructions_1_control", "trial_type": "instructions", "trial_index": 3, "time_elapsed": 565709, "internal_node_id": "0.0-2.0-1.0"}}, {"uniqueid": "w67419319:a81044237", "current_trial": 4, "dateTime": 1691160275283, "trialdata": {"revealed_states": [], "clicked_states": [], "num_clicks_accrued": [0, 0, 0, 0, 0, 0, 0, 0, 0, 0, 0, 0, 0], "stateRewards": ["", 10, 10, -10, -10, -10, 10, -10, -10, 10, -10, 10, -10, 10, -10, -10, 10, -10, 10, 10, 10, 10, -10, 10, -10, -10, 10, 10, 10, -10, -10, 10, -10, -10], "withholdReward": false, "trial_id": "practice_1", "block": "test", "trialIndex": 0, "score": 13.5, "costs": 0, "simulationMode": [null, null, null, null, null], "rewards": [10, 10, -10, -10, 10], "path": ["0", "0", "1", "2", "3", "8", "9"], "rt": [537, 564, 182, 1840, 2847], "actions": ["up", "up", "up", "left", "up"], "actionTimes": [5676, 8733, 9437, 11775, 15133], "queries": {"click": {"state": {"target": [], "time": []}, "edge": {"target": [], "time": []}}, "mouseover": {"state": {"target": [], "time": []}, "edge": {"target": [], "time": []}}, "mouseout": {"state": {"target": ["1", "31", "23", "0", "1", "2", "3", "3"], "time": [1414, 2113, 2248, 8347, 10531, 10746, 10864, 20539]}, "edge": {"target": [], "time": []}}}, "displayed_time": "15.67", "trialTime": 25371, "trial_type": "mouselab-mdp", "trial_index": 4, "time_elapsed": 592637, "internal_node_id": "0.0-2.0-2.0-0.0"}}, {"uniqueid": "w67419319:a81044237", "current_trial": 5, "dateTime": 1691160302501, "trialdata": {"revealed_states": [], "clicked_states": ["3", "4", "8", "10"], "num_clicks_accrued": [0, 0, 0, 0, 0, 0, 0, 0, 0, 0, 0, 0, 0], "stateRewards": ["", -10, 10, -10, -10, -10, -10, 10, -10, -10, -10, -10, -10, 10, 10, 10, -10, -10, 10, 10, -10, 10, -10, -10, 10, 10, -10, 10, 10, -10, -10, -10, 10, -10], "withholdReward": false, "trial_id": "practice_2", "block": "test", "trialIndex": 1, "score": -28.5, "costs": -2, "simulationMode": [null, null, null, null, null], "rewards": [-10, 10, -10, -10, -10], "path": ["0", "0", "1", "2", "3", "8", "11"], "rt": [8892, 1723, 1994, 853, 168], "actions": ["up", "up", "up", "left", "left"], "actionTimes": [13296, 15526, 18366, 19949, 20627], "queries": {"click": {"state": {"target": ["3", "4", "8", "10"], "time": [6087, 9563, 11010, 12245]}, "edge": {"target": [], "time": []}}, "mouseover": {"state": {"target": ["1", "2", "3", "4", "8", "10"], "time": [5057, 5217, 5495, 7947, 10638, 11671]}, "edge": {"target": [], "time": []}}, "mouseout": {"state": {"target": ["1", "2", "3", "4", "8", "10", "1", "0"], "time": [5107, 5308, 7941, 9938, 11568, 23638, 24039, 24571]}, "edge": {"target": [], "time": []}}}, "displayed_time": "21.18", "trialTime": 25398, "trial_type": "mouselab-mdp", "trial_index": 5, "time_elapsed": 619856, "internal_node_id": "0.0-2.0-2.0-1.0"}}, {"uniqueid": "w67419319:a81044237", "current_trial": 6, "dateTime": 1691160453627, "trialdata": {"view_history": [{"page_index": 0, "viewing_time": 140244}, {"page_index": 1, "viewing_time": 10876}], "rt": 151121, "trial_id": "mouselab_instructions_2_control", "trial_type": "instructions", "trial_index": 6, "time_elapsed": 770983, "internal_node_id": "0.0-2.0-3.0"}}, {"uniqueid": "w67419319:a81044237", "current_trial": 7, "dateTime": 1691160503832, "trialdata": {"rt": 50199, "response": {"Q0": "The cost for clicking on nodes may vary between nodes.", "Q1": "The better I perform the higher my bonus will be.", "Q2": "No, the amount of cash at each node of the web may be different each time.", "Q3": "To get the highest total score.", "Q4": "Only before moving the spider.", "Q5": "3 seconds"}, "question_order": [0, 1, 2, 3, 4, 5], "correct": {"Q0": "The cost for clicking on nodes may vary between nodes.", "Q1": "The better I perform the higher my bonus will be.", "Q2": "No, the amount of cash at each node of the web may be different each time.", "Q3": "To get the highest total score.", "Q4": "Only before moving the spider.", "Q5": "3 seconds"}, "trial_id": "mouselab_quiz_control", "trial_type": "survey-multi-choice", "trial_index": 7, "time_elapsed": 821188, "internal_node_id": "0.0-2.0-4.0"}}, {"uniqueid": "w67419319:a81044237", "current_trial": 8, "dateTime": 1691160574018, "trialdata": {"rt": 70169, "stimulus": "\n<h1> Get ready to start the game! </h1>\n\nThank you for reading the instructions. Get ready start with the 40 rounds of this game.\n<br><br>\nIf you need to take a break, feel free to take one after the end of a round, before continuing to the next one.\n<br><br>\nRemember, the more money the spider gets, the bigger your bonus will be!\n<br><br>\n<div style='text-align: center;'>Press <code>space</code> to begin.</div>\n\n<br><br>\n(If, at any point, the <code>space</code> key does not take you to the next page, click once on the text and try again.)", "response": " ", "trial_id": "mdp_ready", "trial_type": "html-keyboard-response", "trial_index": 8, "time_elapsed": 891374, "internal_node_id": "0.0-4.0-0.0"}}, {"uniqueid": "w67419319:a81044237", "current_trial": 9, "dateTime": 1691160595511, "trialdata": {"revealed_states": [], "clicked_states": ["3", "8", "13", "26"], "num_clicks_accrued": [0, 0, 0, 0, 0, 0, 0, 0, 0, 0, 0, 0, 0], "stateRewards": ["", -1, 1, -6, -1, 80, 23, 2, -11, 73, -81, 59, 1, 3, 5, -1, -26, 28, -3, 16, -59, -13, -50, -2, -2, 2, 15, -50, 86, 17, -4, 37, 35, 44], "withholdReward": false, "trial_id": "mdp_trial_1", "block": "test", "trialIndex": 2, "score": 30.4, "costs": -5.6, "simulationMode": [null, null, null, null, null, null], "rewards": [1, 3, 5, -1, 28], "path": ["0", "0", "12", "13", "14", "15", "17"], "rt": [8468, 2252, 270, 386, 132, 33], "actions": ["left", "right", "right", "right", "up", "right"], "actionTimes": [11711, 13969, 14757, 15656, 16286, 16831], "queries": {"click": {"state": {"target": ["3", "8", "13", "26"], "time": [4377, 7046, 8855, 10754]}, "edge": {"target": [], "time": []}}, "mouseover": {"state": {"target": ["1", "2", "3", "8", "9", "8", "2", "1", "12", "13", "13", "12", "0", "23", "24", "28", "26", "28", "12"], "time": [3310, 3491, 3766, 5052, 5271, 6665, 7599, 7686, 7885, 8151, 8584, 9585, 9646, 9713, 9934, 10162, 10449, 13486, 13848]}, "edge": {"target": [], "time": []}}, "mouseout": {"state": {"target": ["0", "1", "2", "3", "8", "9", "8", "2", "1", "12", "13", "13", "12", "0", "23", "24", "28", "26", "28", "12", "13"], "time": [3275, 3384, 3700, 4901, 5074, 6466, 7249, 7658, 7736, 7905, 8246, 9579, 9622, 9673, 9869, 10064, 10348, 13482, 13500, 13900, 19783]}, "edge": {"target": [], "time": []}}}, "displayed_time": "17.38", "trialTime": 20533, "trial_type": "mouselab-mdp", "trial_index": 9, "time_elapsed": 912866, "internal_node_id": "0.0-4.0-1.0-0.0"}}, {"uniqueid": "w67419319:a81044237", "current_trial": 10, "dateTime": 1691160615945, "trialdata": {"revealed_states": [], "clicked_states": ["26", "33", "5"], "num_clicks_accrued": [0, 0, 0, 0, 0, 0, 0, 0, 0, 0, 0, 0, 0], "stateRewards": ["", -2, -4, -2, 10, -8, -15, -47, 7, -84, 53, 5, -1, 2, -7, 3, 83, 31, 47, -1, 30, -8, 69, 2, -4, -1, 8, -7, 12, -8, -8, -13, 30, -84], "withholdReward": false, "trial_id": "mdp_trial_2", "block": "test", "trialIndex": 3, "score": -17.2, "costs": -4.199999999999999, "simulationMode": [null, null, null, null, null], "rewards": [-2, -4, -2, 10, -15], "path": ["0", "0", "1", "2", "3", "4", "6"], "rt": [10472, 27, 41, 3, 102], "actions": ["up", "up", "up", "right", "right"], "actionTimes": [12108, 12656, 13219, 13776, 14415], "queries": {"click": {"state": {"target": ["26", "33", "5"], "time": [3576, 6398, 9508]}, "edge": {"target": [], "time": []}}, "mouseover": {"state": {"target": ["23", "24", "26", "29", "33", "28", "28", "30", "24", "8", "5", "4", "7", "1"], "time": [2273, 2424, 3208, 4344, 5991, 6931, 7247, 7710, 8107, 8608, 9160, 10104, 10333, 10606]}, "edge": {"target": [], "time": []}}, "mouseout": {"state": {"target": ["13", "1", "0", "23", "24", "26", "29", "33", "28", "28", "30", "24", "8", "5", "4", "7", "1", "0"], "time": [null, 289, 2257, 2290, 2991, 4211, 5307, 6886, 7010, 7281, 8024, 8141, 8706, 10042, 10274, 10430, 10629, 19007]}, "edge": {"target": [], "time": []}}}, "displayed_time": "15.64", "trialTime": 19410, "trial_type": "mouselab-mdp", "trial_index": 10, "time_elapsed": 933301, "internal_node_id": "0.0-4.0-1.0-1.0"}}, {"uniqueid": "w67419319:a81044237", "current_trial": 11, "dateTime": 1691160635694, "trialdata": {"revealed_states": [], "clicked_states": ["28", "29", "27"], "num_clicks_accrued": [0, 0, 0, 0, 0, 0, 0, 0, 0, 0, 0, 0, 0], "stateRewards": ["", -1, -2, -1, -10, -57, 73, -72, -16, 75, -14, -46, -2, -3, -7, -1, -61, -60, 76, -4, 50, 4, 14, 2, 2, -7, 12, -65, -32, 15, -8, -76, -25, -61], "withholdReward": false, "trial_id": "mdp_trial_3", "block": "test", "trialIndex": 4, "score": 19.8, "costs": -4.199999999999999, "simulationMode": [null, null, null, null, null], "rewards": [2, 2, -7, 12, 15], "path": ["0", "0", "23", "24", "25", "26", "29"], "rt": [9992, 160, 142, 58, 76], "actions": ["left", "left", "left", "up", "left"], "actionTimes": [11521, 12186, 12834, 13399, 14004], "queries": {"click": {"state": {"target": ["28", "29", "27"], "time": [3474, 6561, 9372]}, "edge": {"target": [], "time": []}}, "mouseover": {"state": {"target": ["28", "26", "29", "26", "25", "26", "27", "24"], "time": [2303, 4239, 6274, 7478, 8054, 8669, 8837, 10032]}, "edge": {"target": [], "time": []}}, "mouseout": {"state": {"target": ["0", "0", "28", "26", "29", "26", "25", "26", "27", "27", "24"], "time": [423, 2104, 4073, 6104, 7382, 7879, 8619, 8753, 9491, 9939, 10123]}, "edge": {"target": [], "time": []}}}, "displayed_time": "15.54", "trialTime": 18688, "trial_type": "mouselab-mdp", "trial_index": 11, "time_elapsed": 953049, "internal_node_id": "0.0-4.0-1.0-2.0"}}, {"uniqueid": "w67419319:a81044237", "current_trial": 12, "dateTime": 1691160654977, "trialdata": {"revealed_states": [], "clicked_states": ["22"], "num_clicks_accrued": [0, 0, 0, 0, 0, 0, 0, 0, 0, 0, 0, 0, 0], "stateRewards": ["", -2, -1, -6, -14, -55, 78, -13, 11, 14, -71, 59, 2, 2, 6, -6, 9, 38, 14, 7, 85, 11, 68, 1, -4, -1, -3, -63, -85, 9, -2, 63, -86, -10], "withholdReward": false, "trial_id": "mdp_trial_4", "block": "test", "trialIndex": 5, "score": 83.6, "costs": -1.4, "simulationMode": [null, null, null, null, null], "rewards": [2, 2, 6, 7, 68], "path": ["0", "0", "12", "13", "14", "19", "22"], "rt": [4590, 112, 119, 37, 72], "actions": ["right", "right", "right", "down", "left"], "actionTimes": [6821, 7436, 8059, 8593, 9178], "queries": {"click": {"state": {"target": ["22"], "time": [3294]}, "edge": {"target": [], "time": []}}, "mouseover": {"state": {"target": ["22", "19", "21", "12"], "time": [2868, 3984, 4278, 6253]}, "edge": {"target": [], "time": []}}, "mouseout": {"state": {"target": ["0", "0", "22", "22", "19", "21", "12", "0", "0"], "time": [1401, 2520, 3333, 3921, 4188, 5819, 6288, 12285, 16086]}, "edge": {"target": [], "time": []}}}, "displayed_time": "16.23", "trialTime": 18251, "trial_type": "mouselab-mdp", "trial_index": 12, "time_elapsed": 972333, "internal_node_id": "0.0-4.0-1.0-3.0"}}, {"uniqueid": "w67419319:a81044237", "current_trial": 13, "dateTime": 1691160682044, "trialdata": {"revealed_states": [], "clicked_states": ["7", "5", "9", "10", "11", "6"], "num_clicks_accrued": [0, 0, 0, 0, 0, 0, 0, 0, 0, 0, 0, 0, 0], "stateRewards": ["", -1, 2, 5, -6, 13, -64, -47, 8, -79, -80, -33, 1, 2, -2, -16, 56, -71, -10, 3, 29, 44, 85, -1, 4, 5, 4, -36, -56, 19, 8, 52, -13, -2], "withholdReward": false, "trial_id": "mdp_trial_5", "block": "test", "trialIndex": 6, "score": 4.6, "costs": -8.4, "simulationMode": [null, null, null, null, null], "rewards": [-1, 2, 5, -6, 13], "path": ["0", "0", "1", "2", "3", "4", "5"], "rt": [17052, 196, 117, 54, 119], "actions": ["up", "up", "up", "right", "up"], "actionTimes": [19581, 20318, 20943, 21507, 22142], "queries": {"click": {"state": {"target": ["7", "5", "9", "10", "11", "6"], "time": [4255, 8503, 10771, 12785, 15305, 17334]}, "edge": {"target": [], "time": []}}, "mouseover": {"state": {"target": ["7", "4", "5", "9", "8", "10", "1", "2", "11", "3", "4", "6", "7"], "time": [3024, 6788, 8490, 9517, 11383, 11785, 14287, 14762, 14967, 15863, 15934, 16112, 18005]}, "edge": {"target": [], "time": []}}, "mouseout": {"state": {"target": ["0", "1", "7", "4", "5", "9", "8", "10", "10", "1", "2", "11", "3", "4", "6", "7"], "time": [12, 82, 6783, 8485, 9103, 11357, 11541, 13007, 13598, 14749, 14771, 15805, 15891, 16046, 17875, 18182]}, "edge": {"target": [], "time": []}}}, "displayed_time": "22.64", "trialTime": 26033, "trial_type": "mouselab-mdp", "trial_index": 13, "time_elapsed": 999400, "internal_node_id": "0.0-4.0-1.0-4.0"}}, {"uniqueid": "w67419319:a81044237", "current_trial": 14, "dateTime": 1691160704352, "trialdata": {"revealed_states": [], "clicked_states": ["31"], "num_clicks_accrued": [0, 0, 0, 0, 0, 0, 0, 0, 0, 0, 0, 0, 0], "stateRewards": ["", -1, -3, -3, 1, -38, 2, -53, -2, -1, -81, 70, -1, 1, -5, -9, 46, 15, 35, -1, -22, 38, 59, -2, 4, -8, 13, 1, -83, -43, 4, 76, 13, 48], "withholdReward": false, "trial_id": "mdp_trial_6", "block": "test", "trialIndex": 7, "score": 72.6, "costs": -1.4, "simulationMode": [null, null, null, null, null], "rewards": [-2, 4, -8, 4, 76], "path": ["0", "0", "23", "24", "25", "30", "31"], "rt": [3981, 123, 72, 86, 143], "actions": ["left", "left", "left", "down", "right"], "actionTimes": [6267, 6914, 7498, 8104, 8782], "queries": {"click": {"state": {"target": ["31"], "time": [3770]}, "edge": {"target": [], "time": []}}, "mouseover": {"state": {"target": ["23", "24", "30", "31", "30", "33"], "time": [2438, 2520, 2920, 3271, 4293, 4538]}, "edge": {"target": [], "time": []}}, "mouseout": {"state": {"target": ["1", "0", "23", "0", "23", "24", "30", "31", "30", "33", "31"], "time": [102, 152, 1169, 2434, 2455, 2688, 3155, 4263, 4378, 6087, 14350]}, "edge": {"target": [], "time": []}}}, "displayed_time": "16.31", "trialTime": 21329, "trial_type": "mouselab-mdp", "trial_index": 14, "time_elapsed": 1021707, "internal_node_id": "0.0-4.0-1.0-5.0"}}, {"uniqueid": "w67419319:a81044237", "current_trial": 15, "dateTime": 1691160724468, "trialdata": {"revealed_states": [], "clicked_states": ["7", "18"], "num_clicks_accrued": [0, 0, 0, 0, 0, 0, 0, 0, 0, 0, 0, 0, 0], "stateRewards": ["", 1, 1, 7, -11, 80, -20, -53, -14, 3, 31, 27, 2, -1, -8, -10, 33, 41, 86, 9, 78, -37, -13, -1, -2, -6, -8, -80, 75, 4, -16, -49, -74, 24], "withholdReward": false, "trial_id": "mdp_trial_7", "block": "test", "trialIndex": 8, "score": 66.2, "costs": -2.8, "simulationMode": [null, null, null, null, null], "rewards": [2, -1, -8, -10, 86], "path": ["0", "0", "12", "13", "14", "15", "18"], "rt": [6190, 58, 92, 80, 121], "actions": ["right", "right", "right", "up", "left"], "actionTimes": [9310, 9948, 10574, 11172, 11822], "queries": {"click": {"state": {"target": ["7", "18"], "time": [4262, 7020]}, "edge": {"target": [], "time": []}}, "mouseover": {"state": {"target": ["7", "4", "5", "6", "18", "15", "16"], "time": [3846, 4883, 5142, 6312, 6694, 8215, 8395]}, "edge": {"target": [], "time": []}}, "mouseout": {"state": {"target": ["31", "23", "1", "0", "7", "4", "5", "6", "18", "15", "16"], "time": [194, 277, 1543, 3172, 4832, 4995, 6280, 6411, 8116, 8302, 15994]}, "edge": {"target": [], "time": []}}}, "displayed_time": "17.12", "trialTime": 19025, "trial_type": "mouselab-mdp", "trial_index": 15, "time_elapsed": 1041824, "internal_node_id": "0.0-4.0-1.0-6.0"}}, {"uniqueid": "w67419319:a81044237", "current_trial": 16, "dateTime": 1691160743850, "trialdata": {"revealed_states": [], "clicked_states": ["31", "32", "33"], "num_clicks_accrued": [0, 0, 0, 0, 0, 0, 0, 0, 0, 0, 0, 0, 0], "stateRewards": ["", 1, -3, -2, 14, 49, -40, -39, 2, 26, -61, 73, 1, -4, -8, 12, 79, 29, -65, -13, 55, -26, 27, -1, 3, 3, 9, -17, -60, -18, -8, 35, -88, 69], "withholdReward": false, "trial_id": "mdp_trial_8", "block": "test", "trialIndex": 9, "score": 61.8, "costs": -4.199999999999999, "simulationMode": [null, null, null, null, null], "rewards": [-1, 3, 3, -8, 69], "path": ["0", "0", "23", "24", "25", "30", "33"], "rt": [7362, 59, 81, 10, 145], "actions": ["left", "left", "left", "down", "left"], "actionTimes": [9357, 9914, 10519, 11059, 11738], "queries": {"click": {"state": {"target": ["31", "32", "33"], "time": [2840, 5229, 7231]}, "edge": {"target": [], "time": []}}, "mouseover": {"state": {"target": ["23", "31", "32", "33", "30"], "time": [2041, 2308, 3959, 6302, 7992]}, "edge": {"target": [], "time": []}}, "mouseout": {"state": {"target": ["0", "0", "23", "31", "32", "33", "30"], "time": [716, 982, 2068, 3588, 5807, 7969, 8018]}, "edge": {"target": [], "time": []}}}, "displayed_time": "16.01", "trialTime": 18096, "trial_type": "mouselab-mdp", "trial_index": 16, "time_elapsed": 1061205, "internal_node_id": "0.0-4.0-1.0-7.0"}}, {"uniqueid": "w67419319:a81044237", "current_trial": 17, "dateTime": 1691160766112, "trialdata": {"revealed_states": [], "clicked_states": ["28", "27", "29", "32"], "num_clicks_accrued": [0, 0, 0, 0, 0, 0, 0, 0, 0, 0, 0, 0, 0], "stateRewards": ["", 2, 4, 7, -6, -76, -81, 2, 5, -66, -3, 36, -2, -4, 6, -2, -69, 4, -49, -6, 67, 38, -67, 2, 1, 1, 6, -68, -21, 52, -16, -16, 6, -70], "withholdReward": false, "trial_id": "mdp_trial_9", "block": "test", "trialIndex": 10, "score": 56.4, "costs": -5.6, "simulationMode": [null, null, null, null, null, null], "rewards": [2, 1, 1, 6, 52], "path": ["0", "0", "23", "24", "25", "26", "29"], "rt": [9041, 633, 99, 83, 76, 127], "actions": ["left", "left", "left", "left", "up", "left"], "actionTimes": [11684, 12323, 12953, 13568, 14191, 14854], "queries": {"click": {"state": {"target": ["28", "27", "29", "32"], "time": [4637, 7244, 9128, 11012]}, "edge": {"target": [], "time": []}}, "mouseover": {"state": {"target": ["0", "23", "28", "27", "27", "29", "32"], "time": [3228, 3912, 4279, 5432, 6895, 7949, 10432]}, "edge": {"target": [], "time": []}}, "mouseout": {"state": {"target": ["0", "0", "23", "28", "27", "27", "29", "32", "32"], "time": [595, 3778, 4095, 4851, 6445, 7697, 9631, 11212, 15903]}, "edge": {"target": [], "time": []}}}, "displayed_time": "16.64", "trialTime": 21070, "trial_type": "mouselab-mdp", "trial_index": 17, "time_elapsed": 1083467, "internal_node_id": "0.0-4.0-1.0-8.0"}}, {"uniqueid": "w67419319:a81044237", "current_trial": 18, "dateTime": 1691160786078, "trialdata": {"revealed_states": [], "clicked_states": ["18", "16", "17"], "num_clicks_accrued": [0, 0, 0, 0, 0, 0, 0, 0, 0, 0, 0, 0, 0], "stateRewards": ["", 2, -2, 7, -11, -76, -65, -23, 16, -58, 30, 81, 1, 2, 7, 14, 9, 55, -2, 6, 11, -15, 31, -1, -1, -3, 2, 15, 2, 46, 15, 18, 45, -34], "withholdReward": false, "trial_id": "mdp_trial_10", "block": "test", "trialIndex": 11, "score": 74.8, "costs": -4.199999999999999, "simulationMode": [null, null, null, null, null], "rewards": [1, 2, 7, 14, 55], "path": ["0", "0", "12", "13", "14", "15", "17"], "rt": [7022, 82, 83, 59, 107], "actions": ["right", "right", "right", "up", "right"], "actionTimes": [9837, 10415, 11025, 11629, 12259], "queries": {"click": {"state": {"target": ["18", "16", "17"], "time": [3811, 5829, 7861]}, "edge": {"target": [], "time": []}}, "mouseover": {"state": {"target": ["18", "16", "17", "14", "20"], "time": [3380, 4500, 6475, 8544, 8782]}, "edge": {"target": [], "time": []}}, "mouseout": {"state": {"target": ["0", "18", "16", "17", "14", "20", "19", "22"], "time": [2973, 4280, 6323, 8433, 8615, 17511, 17529, 17661]}, "edge": {"target": [], "time": []}}}, "displayed_time": "16.84", "trialTime": 18764, "trial_type": "mouselab-mdp", "trial_index": 18, "time_elapsed": 1103434, "internal_node_id": "0.0-4.0-1.0-9.0"}}, {"uniqueid": "w67419319:a81044237", "current_trial": 19, "dateTime": 1691160809102, "trialdata": {"revealed_states": [], "clicked_states": ["31", "32"], "num_clicks_accrued": [0, 0, 0, 0, 0, 0, 0, 0, 0, 0, 0, 0, 0], "stateRewards": ["", 1, -4, -6, -1, -21, 17, -72, 10, 77, 67, -46, -1, 4, -2, 14, -66, -49, -45, -15, -52, 23, -67, 2, -2, -2, 15, -3, 45, -64, 5, -44, 83, 61], "withholdReward": false, "trial_id": "mdp_trial_11", "block": "test", "trialIndex": 12, "score": 83.2, "costs": -2.8, "simulationMode": [null, null, null, null, null], "rewards": [2, -2, -2, 5, 83], "path": ["0", "0", "23", "24", "25", "30", "32"], "rt": [8086, 19, 82, 779, 4], "actions": ["left", "left", "left", "down", "down"], "actionTimes": [12210, 12750, 13378, 14752, 15265], "queries": {"click": {"state": {"target": ["31", "32"], "time": [5703, 9713]}, "edge": {"target": [], "time": []}}, "mouseover": {"state": {"target": ["23", "24", "31", "32", "33"], "time": [4807, 4857, 5682, 8934, 10311]}, "edge": {"target": [], "time": []}}, "mouseout": {"state": {"target": ["0", "0", "23", "24", "31", "32"], "time": [2854, 4788, 4839, 5289, 5927, 10177]}, "edge": {"target": [], "time": []}}}, "displayed_time": "20.17", "trialTime": 21532, "trial_type": "mouselab-mdp", "trial_index": 19, "time_elapsed": 1126458, "internal_node_id": "0.0-4.0-1.0-10.0"}}, {"uniqueid": "w67419319:a81044237", "current_trial": 20, "dateTime": 1691160829021, "trialdata": {"revealed_states": [], "clicked_states": ["7", "5"], "num_clicks_accrued": [0, 0, 0, 0, 0, 0, 0, 0, 0, 0, 0, 0, 0], "stateRewards": ["", -2, -1, 3, -3, 71, -58, -21, 7, -10, -75, -37, 2, 4, -1, -12, -79, -29, -48, 3, -41, -10, -30, -1, -2, 1, -15, 13, 66, 22, -1, -42, -86, -55], "withholdReward": false, "trial_id": "mdp_trial_12", "block": "test", "trialIndex": 13, "score": 65.2, "costs": -2.8, "simulationMode": [null, null, null, null, null], "rewards": [-2, -1, 3, -3, 71], "path": ["0", "0", "1", "2", "3", "4", "5"], "rt": [6027, 107, 97, 4, 82], "actions": ["up", "up", "up", "right", "up"], "actionTimes": [9075, 9698, 10323, 10828, 11443], "queries": {"click": {"state": {"target": ["7", "5"], "time": [4689, 6668]}, "edge": {"target": [], "time": []}}, "mouseover": {"state": {"target": ["1", "4", "7", "4", "5", "6"], "time": [3930, 4279, 4364, 5216, 5432, 7257]}, "edge": {"target": [], "time": []}}, "mouseout": {"state": {"target": ["33", "30", "31", "1", "4", "7", "4", "5"], "time": [1146, 1178, 1195, 3948, 4298, 5148, 5330, 7152]}, "edge": {"target": [], "time": []}}}, "displayed_time": "17.06", "trialTime": 18493, "trial_type": "mouselab-mdp", "trial_index": 20, "time_elapsed": 1146376, "internal_node_id": "0.0-4.0-1.0-11.0"}}, {"uniqueid": "w67419319:a81044237", "current_trial": 21, "dateTime": 1691160858029, "trialdata": {"revealed_states": [], "clicked_states": ["32", "31", "33", "29", "27"], "num_clicks_accrued": [0, 0, 0, 0, 0, 0, 0, 0, 0, 0, 0, 0, 0], "stateRewards": ["", 2, -1, 4, -9, -43, 7, 54, -13, 38, -40, -83, -1, 2, -8, -10, 34, -33, 11, -14, -79, 65, 26, 1, 2, 4, 10, 21, 1, 86, 4, -53, 28, -29], "withholdReward": false, "trial_id": "mdp_trial_13", "block": "test", "trialIndex": 14, "score": 96, "costs": -7, "simulationMode": [null, null, null, null, null], "rewards": [1, 2, 4, 10, 86], "path": ["0", "0", "23", "24", "25", "26", "29"], "rt": [11331, 65, 47, 47, 11], "actions": ["left", "left", "left", "up", "left"], "actionTimes": [16079, 16653, 17236, 17801, 18331], "queries": {"click": {"state": {"target": ["32", "31", "33", "29", "27"], "time": [5851, 7989, 10370, 12357, 14227]}, "edge": {"target": [], "time": []}}, "mouseover": {"state": {"target": ["31", "32", "31", "30", "33", "29", "27"], "time": [4815, 5416, 6779, 9700, 10016, 11403, 12900]}, "edge": {"target": [], "time": []}}, "mouseout": {"state": {"target": ["6", "7", "1", "23", "0", "31", "32", "31", "31", "30", "33", "29", "27", "27", "29", "25"], "time": [948, 982, 1016, 1098, 4791, 4854, 6399, 8957, 9650, 9866, 10968, 12813, 14441, 15020, 15777, 23132]}, "edge": {"target": [], "time": []}}}, "displayed_time": "18.87", "trialTime": 27583, "trial_type": "mouselab-mdp", "trial_index": 21, "time_elapsed": 1175385, "internal_node_id": "0.0-4.0-1.0-12.0"}}, {"uniqueid": "w67419319:a81044237", "current_trial": 22, "dateTime": 1691160877884, "trialdata": {"revealed_states": [], "clicked_states": ["18", "17", "16"], "num_clicks_accrued": [0, 0, 0, 0, 0, 0, 0, 0, 0, 0, 0, 0, 0], "stateRewards": ["", -2, -1, -4, -15, -14, -67, 32, -3, -59, 63, 31, 2, -1, -7, -15, 71, -66, -27, -3, -54, -39, 72, 2, 1, 1, -13, 77, -40, 35, -9, 35, 75, 57], "withholdReward": false, "trial_id": "mdp_trial_14", "block": "test", "trialIndex": 15, "score": 45.8, "costs": -4.199999999999999, "simulationMode": [null, null, null, null, null], "rewards": [2, -1, -7, -15, 71], "path": ["0", "0", "12", "13", "14", "15", "16"], "rt": [8515, 31, 13, 8, 49], "actions": ["right", "right", "right", "up", "up"], "actionTimes": [11853, 12426, 12975, 13530, 14095], "queries": {"click": {"state": {"target": ["18", "17", "16"], "time": [5586, 7600, 9588]}, "edge": {"target": [], "time": []}}, "mouseover": {"state": {"target": ["12", "13", "14", "15", "18", "15", "17", "16", "15", "14", "19", "22"], "time": [4644, 4727, 4925, 5041, 5227, 6096, 6328, 8346, 10040, 10077, 10231, 10474]}, "edge": {"target": [], "time": []}}, "mouseout": {"state": {"target": ["0", "12", "13", "14", "15", "18", "15", "17", "16", "15", "14", "19"], "time": [4308, 4691, 4841, 4958, 5108, 6066, 6173, 8059, 10013, 10070, 10134, 10334]}, "edge": {"target": [], "time": []}}}, "displayed_time": "17.35", "trialTime": 18564, "trial_type": "mouselab-mdp", "trial_index": 22, "time_elapsed": 1195240, "internal_node_id": "0.0-4.0-1.0-13.0"}}, {"uniqueid": "w67419319:a81044237", "current_trial": 23, "dateTime": 1691160901534, "trialdata": {"revealed_states": [], "clicked_states": ["22", "20", "21", "31", "32", "33"], "num_clicks_accrued": [0, 0, 0, 0, 0, 0, 0, 0, 0, 0, 0, 0, 0], "stateRewards": ["", 2, -4, 4, 9, 69, 9, -75, 12, -86, 66, 25, -1, 3, 2, -13, -88, -3, 1, 4, -69, 49, -84, 2, -1, 4, 2, -18, -81, -52, -15, -69, -54, 25], "withholdReward": false, "trial_id": "mdp_trial_15", "block": "test", "trialIndex": 16, "score": 48.6, "costs": -8.4, "simulationMode": [null, null, null, null, null], "rewards": [-1, 3, 2, 4, 49], "path": ["0", "0", "12", "13", "14", "19", "21"], "rt": [14758, 538, 268, 44, 30], "actions": ["right", "right", "right", "down", "down"], "actionTimes": [17237, 18289, 19069, 19653, 20289], "queries": {"click": {"state": {"target": ["22", "20", "21", "31", "32", "33"], "time": [3898, 5941, 7920, 10125, 12166, 15145]}, "edge": {"target": [], "time": []}}, "mouseover": {"state": {"target": ["22", "19", "20", "21", "31", "32", "33", "31"], "time": [3394, 4415, 4568, 6591, 8893, 10710, 14743, 15879]}, "edge": {"target": [], "time": []}}, "mouseout": {"state": {"target": ["22", "0", "22", "19", "20", "21", "31", "31", "32", "33", "31"], "time": [907, 3299, 4393, 4479, 6411, 8583, 10345, 10602, 14459, 15823, 15960]}, "edge": {"target": [], "time": []}}}, "displayed_time": "20.83", "trialTime": 22296, "trial_type": "mouselab-mdp", "trial_index": 23, "time_elapsed": 1218890, "internal_node_id": "0.0-4.0-1.0-14.0"}}, {"uniqueid": "w67419319:a81044237", "current_trial": 24, "dateTime": 1691160933422, "trialdata": {"revealed_states": [], "clicked_states": ["11"], "num_clicks_accrued": [0, 0, 0, 0, 0, 0, 0, 0, 0, 0, 0, 0, 0], "stateRewards": ["", -1, 2, 6, 11, 21, -21, -21, -6, 48, -71, 88, -1, -3, 3, 7, 64, 2, 9, -4, 37, -67, 72, 2, 2, -8, -8, -10, 71, -40, -3, 73, 80, 47], "withholdReward": false, "trial_id": "mdp_trial_16", "block": "test", "trialIndex": 17, "score": 87.6, "costs": -1.4, "simulationMode": [null, null, null, null, null], "rewards": [-1, 2, 6, -6, 88], "path": ["0", "0", "1", "2", "3", "8", "11"], "rt": [4385, 12, 908, 117, 17], "actions": ["up", "up", "up", "left", "left"], "actionTimes": [19006, 19568, 21203, 21812, 22337], "queries": {"click": {"state": {"target": ["11"], "time": [16148]}, "edge": {"target": [], "time": []}}, "mouseover": {"state": {"target": ["11", "11", "10"], "time": [15329, 15757, 16860]}, "edge": {"target": [], "time": []}}, "mouseout": {"state": {"target": ["0", "11", "11", "10", "8", "10"], "time": [14706, 15374, 16678, 27390, 27591, 27641]}, "edge": {"target": [], "time": []}}}, "displayed_time": "28.63", "trialTime": 30601, "trial_type": "mouselab-mdp", "trial_index": 24, "time_elapsed": 1250778, "internal_node_id": "0.0-4.0-1.0-15.0"}}, {"uniqueid": "w67419319:a81044237", "current_trial": 25, "dateTime": 1691160958379, "trialdata": {"revealed_states": [], "clicked_states": ["29", "27", "28"], "num_clicks_accrued": [0, 0, 0, 0, 0, 0, 0, 0, 0, 0, 0, 0, 0], "stateRewards": ["", -2, -3, 4, 1, 33, -53, 15, 9, -12, 61, -6, -2, 4, 6, -11, 47, -43, -7, -11, 46, 23, -28, -1, -1, 3, -10, 11, 76, -76, 10, 18, -38, 87], "withholdReward": false, "trial_id": "mdp_trial_17", "block": "test", "trialIndex": 18, "score": 62.8, "costs": -4.199999999999999, "simulationMode": [null, null, null, null, null], "rewards": [-1, -1, 3, -10, 76], "path": ["0", "0", "23", "24", "25", "26", "28"], "rt": [7777, 559, 11, 246, 49], "actions": ["left", "left", "left", "up", "right"], "actionTimes": [15573, 16641, 17156, 17941, 18504], "queries": {"click": {"state": {"target": ["29", "27", "28"], "time": [9244, 11223, 13276]}, "edge": {"target": [], "time": []}}, "mouseover": {"state": {"target": ["23", "24", "29", "27", "28", "28", "30", "33"], "time": [8412, 8459, 8881, 10033, 11911, 12347, 14054, 14345]}, "edge": {"target": [], "time": []}}, "mouseout": {"state": {"target": ["1", "0", "23", "24", "29", "27", "28", "28", "30"], "time": [873, 8407, 8440, 8558, 9796, 11898, 12203, 13761, 14195]}, "edge": {"target": [], "time": []}}}, "displayed_time": "21.80", "trialTime": 23376, "trial_type": "mouselab-mdp", "trial_index": 25, "time_elapsed": 1275734, "internal_node_id": "0.0-4.0-1.0-16.0"}}, {"uniqueid": "w67419319:a81044237", "current_trial": 26, "dateTime": 1691160986032, "trialdata": {"revealed_states": [], "clicked_states": ["22"], "num_clicks_accrued": [0, 0, 0, 0, 0, 0, 0, 0, 0, 0, 0, 0, 0], "stateRewards": ["", -1, 3, 2, 9, 41, 4, -46, -12, -54, -87, -25, 2, 3, -1, 11, -77, 12, -33, -9, -32, 35, 72, 1, 3, -7, 4, 37, 65, -73, 6, 77, -43, 8], "withholdReward": false, "trial_id": "mdp_trial_18", "block": "test", "trialIndex": 19, "score": 65.6, "costs": -1.4, "simulationMode": [null, null, null, null, null], "rewards": [2, 3, -1, -9, 72], "path": ["0", "0", "12", "13", "14", "19", "22"], "rt": [3721, 137, 129, 49, 105], "actions": ["right", "right", "right", "down", "left"], "actionTimes": [9644, 10298, 10938, 11507, 12157], "queries": {"click": {"state": {"target": ["22"], "time": [7381]}, "edge": {"target": [], "time": []}}, "mouseover": {"state": {"target": ["22", "19", "20"], "time": [6954, 7953, 8343]}, "edge": {"target": [], "time": []}}, "mouseout": {"state": {"target": ["33", "25", "28", "0", "22", "19"], "time": [3754, 3772, 3836, 6557, 7924, 7996]}, "edge": {"target": [], "time": []}}}, "displayed_time": "19.94", "trialTime": 26111, "trial_type": "mouselab-mdp", "trial_index": 26, "time_elapsed": 1303387, "internal_node_id": "0.0-4.0-1.0-17.0"}}, {"uniqueid": "w67419319:a81044237", "current_trial": 27, "dateTime": 1691161009703, "trialdata": {"revealed_states": [], "clicked_states": ["10", "9", "11", "6"], "num_clicks_accrued": [0, 0, 0, 0, 0, 0, 0, 0, 0, 0, 0, 0, 0], "stateRewards": ["", -2, -3, -3, 9, 79, 67, 22, -15, -56, 27, -85, -2, 4, -4, -15, -20, -32, 60, 15, 71, 57, 17, 1, 2, -8, 15, -37, -81, 82, 15, 21, -3, 2], "withholdReward": false, "trial_id": "mdp_trial_19", "block": "test", "trialIndex": 20, "score": 62.4, "costs": -5.6, "simulationMode": [null, null, null, null, null], "rewards": [-2, -3, -3, 9, 67], "path": ["0", "0", "1", "2", "3", "4", "6"], "rt": [10187, 111, 109, 550, 11], "actions": ["up", "up", "up", "right", "right"], "actionTimes": [13052, 13671, 14286, 15354, 15872], "queries": {"click": {"state": {"target": ["10", "9", "11", "6"], "time": [4508, 6705, 8689, 10713]}, "edge": {"target": [], "time": []}}, "mouseover": {"state": {"target": ["1", "10", "8", "9", "11", "3", "4", "6", "5"], "time": [3748, 4121, 5032, 5177, 7452, 9289, 9360, 9900, 11469]}, "edge": {"target": [], "time": []}}, "mouseout": {"state": {"target": ["20", "19", "12", "0", "1", "10", "8", "9", "11", "3", "4", "6"], "time": [1088, 1137, 1403, 3726, 3789, 4724, 5080, 7210, 9253, 9318, 9574, 11199]}, "edge": {"target": [], "time": []}}}, "displayed_time": "16.87", "trialTime": 22099, "trial_type": "mouselab-mdp", "trial_index": 27, "time_elapsed": 1327058, "internal_node_id": "0.0-4.0-1.0-18.0"}}, {"uniqueid": "w67419319:a81044237", "current_trial": 28, "dateTime": 1691161036445, "trialdata": {"revealed_states": [], "clicked_states": ["32", "31", "33", "27", "28", "29"], "num_clicks_accrued": [0, 0, 0, 0, 0, 0, 0, 0, 0, 0, 0, 0, 0], "stateRewards": ["", 2, -3, 5, 11, -79, 54, 11, -9, -78, 33, 22, -2, -1, 2, 14, 43, 34, 1, 10, 49, -65, 39, -1, 1, -1, 3, -16, -2, 11, 2, 12, 48, -65], "withholdReward": false, "trial_id": "mdp_trial_20", "block": "test", "trialIndex": 21, "score": 40.6, "costs": -8.4, "simulationMode": [null, null, null, null, null], "rewards": [-1, 1, -1, 2, 48], "path": ["0", "0", "23", "24", "25", "30", "32"], "rt": [14803, 575, 16, 50, 95], "actions": ["left", "left", "left", "down", "down"], "actionTimes": [19734, 20816, 21336, 21930, 22546], "queries": {"click": {"state": {"target": ["32", "31", "33", "27", "28", "29"], "time": [6350, 9038, 11187, 13816, 15793, 17771]}, "edge": {"target": [], "time": []}}, "mouseover": {"state": {"target": ["31", "30", "32", "31", "30", "33", "30", "25", "26", "27", "28", "26", "29", "25"], "time": [5109, 5213, 6333, 7853, 9553, 9895, 12539, 12625, 13047, 13362, 14627, 16294, 16479, 18413]}, "edge": {"target": [], "time": []}}, "mouseout": {"state": {"target": ["5", "3", "10", "0", "31", "30", "32", "31", "30", "33", "30", "25", "26", "27", "28", "28", "26", "29"], "time": [2896, 2978, 3345, 5064, 5163, 6328, 7848, 9480, 9702, 12087, 12602, 13030, 13112, 14357, 15829, 16243, 16396, 18349]}, "edge": {"target": [], "time": []}}}, "displayed_time": "23.06", "trialTime": 25118, "trial_type": "mouselab-mdp", "trial_index": 28, "time_elapsed": 1353801, "internal_node_id": "0.0-4.0-1.0-19.0"}}, {"uniqueid": "w67419319:a81044237", "current_trial": 29, "dateTime": 1691161057458, "trialdata": {"revealed_states": [], "clicked_states": ["10"], "num_clicks_accrued": [0, 0, 0, 0, 0, 0, 0, 0, 0, 0, 0, 0, 0], "stateRewards": ["", 2, 3, 8, 11, 25, -80, 6, -4, -56, 84, -23, -2, -4, -3, 4, -51, -9, -61, -15, -64, 67, -35, 1, -1, -7, -6, 83, 59, -15, 12, -79, 56, 41], "withholdReward": false, "trial_id": "mdp_trial_21", "block": "test", "trialIndex": 22, "score": 91.6, "costs": -1.4, "simulationMode": [null, null, null, null, null], "rewards": [2, 3, 8, -4, 84], "path": ["0", "0", "1", "2", "3", "8", "10"], "rt": [4776, 86, 74, 73, 86], "actions": ["up", "up", "up", "left", "down"], "actionTimes": [7460, 8060, 8644, 9251, 9849], "queries": {"click": {"state": {"target": ["10"], "time": [5101]}, "edge": {"target": [], "time": []}}, "mouseover": {"state": {"target": ["12", "1", "2", "10", "8", "9"], "time": [3566, 3915, 4065, 4403, 5745, 5955]}, "edge": {"target": [], "time": []}}, "mouseout": {"state": {"target": ["25", "0", "12", "1", "2", "10", "8"], "time": [515, 3499, 3701, 4016, 4212, 5693, 5834]}, "edge": {"target": [], "time": []}}}, "displayed_time": "16.70", "trialTime": 19535, "trial_type": "mouselab-mdp", "trial_index": 29, "time_elapsed": 1374814, "internal_node_id": "0.0-4.0-1.0-20.0"}}, {"uniqueid": "w67419319:a81044237", "current_trial": 30, "dateTime": 1691161086343, "trialdata": {"revealed_states": [], "clicked_states": ["17", "16", "18", "22", "20", "21"], "num_clicks_accrued": [0, 0, 0, 0, 0, 0, 0, 0, 0, 0, 0, 0, 0], "stateRewards": ["", -1, 2, -6, 6, 43, 78, 78, -2, 55, -29, -17, -2, -4, 1, -15, 13, 7, -79, 8, -28, -68, 36, -1, -3, 3, -16, 84, -18, 87, 10, 32, 13, -81], "withholdReward": false, "trial_id": "mdp_trial_22", "block": "test", "trialIndex": 23, "score": 30.6, "costs": -8.4, "simulationMode": [null, null, null, null, null], "rewards": [-2, -4, 1, 8, 36], "path": ["0", "0", "12", "13", "14", "19", "22"], "rt": [14117, 290, 43, 70, 163], "actions": ["right", "right", "right", "down", "left"], "actionTimes": [17516, 18309, 18864, 19454, 20133], "queries": {"click": {"state": {"target": ["17", "16", "18", "22", "20", "21"], "time": [4808, 6909, 9017, 11086, 13374, 15353]}, "edge": {"target": [], "time": []}}, "mouseover": {"state": {"target": ["18", "15", "17", "16", "18", "14", "22", "19", "20", "21"], "time": [3814, 3982, 4413, 5587, 7684, 9747, 10087, 11589, 11821, 14137]}, "edge": {"target": [], "time": []}}, "mouseout": {"state": {"target": ["9", "8", "0", "18", "15", "17", "16", "18", "14", "22", "19", "20", "21", "12"], "time": [1812, 1829, 2378, 3833, 4014, 5348, 7495, 9599, 9810, 11568, 11675, 13828, 26578, 26916]}, "edge": {"target": [], "time": []}}}, "displayed_time": "20.79", "trialTime": 27268, "trial_type": "mouselab-mdp", "trial_index": 30, "time_elapsed": 1403698, "internal_node_id": "0.0-4.0-1.0-21.0"}}, {"uniqueid": "w67419319:a81044237", "current_trial": 31, "dateTime": 1691161107339, "trialdata": {"revealed_states": [], "clicked_states": ["28", "27", "29", "33"], "num_clicks_accrued": [0, 0, 0, 0, 0, 0, 0, 0, 0, 0, 0, 0, 0], "stateRewards": ["", 2, -3, -8, 14, -7, -51, 73, 2, 36, 36, -43, -1, 3, -4, 1, 6, 87, -65, 15, 61, -42, -83, -1, 3, -2, -7, 30, -48, 35, 13, 26, 60, 78], "withholdReward": false, "trial_id": "mdp_trial_23", "block": "test", "trialIndex": 24, "score": 85.4, "costs": -5.6, "simulationMode": [null, null, null, null, null], "rewards": [-1, 3, -2, 13, 78], "path": ["0", "0", "23", "24", "25", "30", "33"], "rt": [10966, 105, 167, 50, 138], "actions": ["left", "left", "left", "down", "left"], "actionTimes": [13161, 13784, 14494, 15053, 15723], "queries": {"click": {"state": {"target": ["28", "27", "29", "33"], "time": [4217, 6208, 8445, 10642]}, "edge": {"target": [], "time": []}}, "mouseover": {"state": {"target": ["23", "24", "28", "27", "29", "33", "30", "31"], "time": [3361, 3542, 3825, 5005, 6800, 9135, 11165, 11544]}, "edge": {"target": [], "time": []}}, "mouseout": {"state": {"target": ["0", "23", "24", "28", "27", "29", "33", "30"], "time": [3343, 3459, 3692, 4999, 6693, 8913, 11155, 11253]}, "edge": {"target": [], "time": []}}}, "displayed_time": "16.26", "trialTime": 19445, "trial_type": "mouselab-mdp", "trial_index": 31, "time_elapsed": 1424694, "internal_node_id": "0.0-4.0-1.0-22.0"}}, {"uniqueid": "w67419319:a81044237", "current_trial": 32, "dateTime": 1691161129078, "trialdata": {"revealed_states": [], "clicked_states": ["9", "10", "11"], "num_clicks_accrued": [0, 0, 0, 0, 0, 0, 0, 0, 0, 0, 0, 0, 0], "stateRewards": ["", -2, 2, -4, -4, -59, 88, 62, -3, 69, -15, -34, 1, -2, -5, 7, -54, -20, 78, -16, -74, -53, -21, 2, -4, 2, 13, -8, -44, 26, 9, 72, 4, 17], "withholdReward": false, "trial_id": "mdp_trial_24", "block": "test", "trialIndex": 25, "score": 57.8, "costs": -4.199999999999999, "simulationMode": [null, null, null, null, null], "rewards": [-2, 2, -4, -3, 69], "path": ["0", "0", "1", "2", "3", "8", "9"], "rt": [8456, 88, 65, 80, 97], "actions": ["up", "up", "up", "left", "up"], "actionTimes": [12238, 12846, 13416, 14016, 14639], "queries": {"click": {"state": {"target": ["9", "10", "11"], "time": [6207, 8343, 10319]}, "edge": {"target": [], "time": []}}, "mouseover": {"state": {"target": ["1", "2", "3", "8", "9", "8", "10", "11"], "time": [5097, 5125, 5151, 5445, 5845, 7282, 7662, 9029]}, "edge": {"target": [], "time": []}}, "mouseout": {"state": {"target": ["31", "23", "0", "1", "2", "3", "8", "9", "8", "10"], "time": [2144, 2194, 5063, 5115, 5146, 5279, 5579, 7218, 7436, 8554]}, "edge": {"target": [], "time": []}}}, "displayed_time": "17.79", "trialTime": 20355, "trial_type": "mouselab-mdp", "trial_index": 32, "time_elapsed": 1446434, "internal_node_id": "0.0-4.0-1.0-23.0"}}, {"uniqueid": "w67419319:a81044237", "current_trial": 33, "dateTime": 1691161157772, "trialdata": {"revealed_states": [], "clicked_states": ["16", "18", "17", "20", "21", "22"], "num_clicks_accrued": [0, 0, 0, 0, 0, 0, 0, 0, 0, 0, 0, 0, 0], "stateRewards": ["", 1, 2, 3, 16, 63, -25, 16, -4, -14, 82, -66, -1, -3, -3, -11, -14, 19, 46, 3, -34, -82, 66, -2, -3, 4, -5, -63, 77, -37, -1, -45, -41, 84], "withholdReward": false, "trial_id": "mdp_trial_25", "block": "test", "trialIndex": 26, "score": 53.6, "costs": -8.4, "simulationMode": [null, null, null, null, null], "rewards": [-1, -3, -3, 3, 66], "path": ["0", "0", "12", "13", "14", "19", "22"], "rt": [14359, 40, 34, 8, 156], "actions": ["right", "right", "right", "down", "left"], "actionTimes": [17349, 17919, 18636, 19172, 19902], "queries": {"click": {"state": {"target": ["16", "18", "17", "20", "21", "22"], "time": [4694, 6764, 8954, 11087, 13107, 15175]}, "edge": {"target": [], "time": []}}, "mouseover": {"state": {"target": ["1", "7", "16", "18", "15", "17", "14", "19", "20", "21", "22"], "time": [3819, 3901, 4300, 5426, 7299, 7551, 9620, 9942, 10187, 12014, 13687]}, "edge": {"target": [], "time": []}}, "mouseout": {"state": {"target": ["11", "10", "0", "1", "7", "16", "18", "15", "17", "14", "19", "20", "20", "21", "22", "22"], "time": [917, 1001, 3771, 3857, 3983, 5246, 7248, 7421, 9437, 9646, 10075, 11292, 11685, 13563, 16933, 26366]}, "edge": {"target": [], "time": []}}}, "displayed_time": "20.43", "trialTime": 26990, "trial_type": "mouselab-mdp", "trial_index": 33, "time_elapsed": 1475127, "internal_node_id": "0.0-4.0-1.0-24.0"}}, {"uniqueid": "w67419319:a81044237", "current_trial": 34, "dateTime": 1691161181745, "trialdata": {"revealed_states": [], "clicked_states": ["28"], "num_clicks_accrued": [0, 0, 0, 0, 0, 0, 0, 0, 0, 0, 0, 0, 0], "stateRewards": ["", -1, 2, -2, 13, -56, -28, 10, 14, 53, -80, -29, 1, -3, -3, -14, 14, 9, -40, -9, 18, 18, 48, 1, 1, 1, -9, 64, -39, -9, 7, -52, -78, 7], "withholdReward": false, "trial_id": "mdp_trial_26", "block": "test", "trialIndex": 27, "score": -69.4, "costs": -1.4, "simulationMode": [null, null, null, null, null], "rewards": [1, 1, 1, 7, -78], "path": ["0", "0", "23", "24", "25", "30", "32"], "rt": [10717, 212, 358, 74, 99], "actions": ["left", "left", "left", "down", "down"], "actionTimes": [13551, 14261, 15558, 16157, 16767], "queries": {"click": {"state": {"target": ["28"], "time": [4773]}, "edge": {"target": [], "time": []}}, "mouseover": {"state": {"target": ["24", "28", "27", "27", "26", "24"], "time": [3810, 4755, 10914, 12170, 12577, 12828]}, "edge": {"target": [], "time": []}}, "mouseout": {"state": {"target": ["22", "1", "0", "24", "28", "27", "27", "26", "24", "0"], "time": [null, 568, 3697, 4749, 9916, 11789, 12478, 12710, 12873, 20293]}, "edge": {"target": [], "time": []}}}, "displayed_time": "17.27", "trialTime": 21957, "trial_type": "mouselab-mdp", "trial_index": 34, "time_elapsed": 1499100, "internal_node_id": "0.0-4.0-1.0-25.0"}}, {"uniqueid": "w67419319:a81044237", "current_trial": 35, "dateTime": 1691161204247, "trialdata": {"revealed_states": [], "clicked_states": ["11", "9"], "num_clicks_accrued": [0, 0, 0, 0, 0, 0, 0, 0, 0, 0, 0, 0, 0], "stateRewards": ["", -2, -3, -5, 8, 27, 11, 43, -6, -24, -87, 69, -2, 1, 1, 9, 19, 48, -37, 9, -14, 45, 62, 1, 2, 1, 16, -81, -41, 22, 4, -6, -63, 47], "withholdReward": false, "trial_id": "mdp_trial_27", "block": "test", "trialIndex": 28, "score": 50.2, "costs": -2.8, "simulationMode": [null, null, null, null, null], "rewards": [-2, -3, -5, -6, 69], "path": ["0", "0", "1", "2", "3", "8", "11"], "rt": [6447, 117, 147, 58, 94], "actions": ["up", "up", "up", "left", "left"], "actionTimes": [8521, 9151, 9814, 10373, 11048], "queries": {"click": {"state": {"target": ["11", "9"], "time": [4113, 6676]}, "edge": {"target": [], "time": []}}, "mouseover": {"state": {"target": ["11", "11", "9", "8", "10", "23"], "time": [2179, 4094, 4147, 7145, 7291, 7430]}, "edge": {"target": [], "time": []}}, "mouseout": {"state": {"target": ["0", "11", "11", "9", "8", "10"], "time": [2147, 2643, 4143, 7057, 7244, 7354]}, "edge": {"target": [], "time": []}}}, "displayed_time": "16.08", "trialTime": 18757, "trial_type": "mouselab-mdp", "trial_index": 35, "time_elapsed": 1521602, "internal_node_id": "0.0-4.0-1.0-26.0"}}, {"uniqueid": "w67419319:a81044237", "current_trial": 36, "dateTime": 1691161224325, "trialdata": {"revealed_states": [], "clicked_states": ["6"], "num_clicks_accrued": [0, 0, 0, 0, 0, 0, 0, 0, 0, 0, 0, 0, 0], "stateRewards": ["", 1, 2, -3, 6, -88, 74, -45, 7, -46, 40, -77, 1, -4, 4, 3, 22, -25, -59, 8, -83, 19, -60, -1, -1, -1, -8, 26, -29, 64, -7, -88, -51, -55], "withholdReward": false, "trial_id": "mdp_trial_28", "block": "test", "trialIndex": 29, "score": 78.6, "costs": -1.4, "simulationMode": [null, null, null, null, null], "rewards": [1, 2, -3, 6, 74], "path": ["0", "0", "1", "2", "3", "4", "6"], "rt": [3762, 95, 79, 49, 44], "actions": ["up", "up", "up", "right", "right"], "actionTimes": [7018, 7611, 8196, 8760, 9350], "queries": {"click": {"state": {"target": ["6"], "time": [4690]}, "edge": {"target": [], "time": []}}, "mouseover": {"state": {"target": ["6", "7"], "time": [4315, 5625]}, "edge": {"target": [], "time": []}}, "mouseout": {"state": {"target": ["23", "0", "6"], "time": [1193, 3310, 5268]}, "edge": {"target": [], "time": []}}}, "displayed_time": "17.26", "trialTime": 18788, "trial_type": "mouselab-mdp", "trial_index": 36, "time_elapsed": 1541680, "internal_node_id": "0.0-4.0-1.0-27.0"}}, {"uniqueid": "w67419319:a81044237", "current_trial": 37, "dateTime": 1691161252807, "trialdata": {"revealed_states": [], "clicked_states": ["22", "20", "21", "16", "17", "18", "31"], "num_clicks_accrued": [0, 0, 0, 0, 0, 0, 0, 0, 0, 0, 0, 0, 0], "stateRewards": ["", 2, -1, -4, -13, 74, 77, 3, 2, -43, -2, -11, 2, 3, 7, 11, -26, -29, -33, -3, -3, -13, -3, 1, 3, -7, 14, -59, 33, 9, -5, 34, 79, 68], "withholdReward": false, "trial_id": "mdp_trial_29", "block": "test", "trialIndex": 30, "score": 16.2, "costs": -9.8, "simulationMode": [null, null, null, null, null], "rewards": [1, 3, -7, -5, 34], "path": ["0", "0", "23", "24", "25", "30", "31"], "rt": [16864, 98, 173, 52, 155], "actions": ["left", "left", "left", "down", "right"], "actionTimes": [19218, 19825, 20510, 21075, 21757], "queries": {"click": {"state": {"target": ["22", "20", "21", "16", "17", "18", "31"], "time": [3577, 5550, 7992, 10470, 13005, 15092, 17211]}, "edge": {"target": [], "time": []}}, "mouseover": {"state": {"target": ["22", "19", "20", "21", "14", "16", "17", "18", "18", "31", "32"], "time": [2959, 4214, 4565, 6494, 8763, 8880, 11255, 13750, 14242, 16728, 17913]}, "edge": {"target": [], "time": []}}, "mouseout": {"state": {"target": ["7", "0", "22", "19", "20", "21", "14", "16", "17", "18", "18", "31"], "time": [424, 2426, 4158, 4444, 6341, 8572, 8828, 11062, 13696, 13962, 16129, 17739]}, "edge": {"target": [], "time": []}}}, "displayed_time": "22.29", "trialTime": 26885, "trial_type": "mouselab-mdp", "trial_index": 37, "time_elapsed": 1570162, "internal_node_id": "0.0-4.0-1.0-28.0"}}, {"uniqueid": "w67419319:a81044237", "current_trial": 38, "dateTime": 1691161275547, "trialdata": {"revealed_states": [], "clicked_states": ["11", "10"], "num_clicks_accrued": [0, 0, 0, 0, 0, 0, 0, 0, 0, 0, 0, 0, 0], "stateRewards": ["", -2, -4, 4, -11, -63, -60, -7, 2, -14, 81, -43, -1, -1, -5, 7, 10, 69, 40, 8, -83, 52, 60, 1, 2, 5, -5, 16, 64, 14, -3, 29, 7, -51], "withholdReward": false, "trial_id": "mdp_trial_30", "block": "test", "trialIndex": 31, "score": 78.2, "costs": -2.8, "simulationMode": [null, null, null, null, null], "rewards": [-2, -4, 4, 2, 81], "path": ["0", "0", "1", "2", "3", "8", "10"], "rt": [5516, 105, 228, 55, 139], "actions": ["up", "up", "up", "left", "down"], "actionTimes": [10653, 11261, 12001, 12621, 13307], "queries": {"click": {"state": {"target": ["11", "10"], "time": [6321, 8379]}, "edge": {"target": [], "time": []}}, "mouseover": {"state": {"target": ["10", "11", "10", "8", "9"], "time": [5513, 5729, 6934, 8866, 9106]}, "edge": {"target": [], "time": []}}, "mouseout": {"state": {"target": ["32", "0", "10", "11", "10", "8", "9", "8"], "time": [3078, 5466, 5548, 6808, 8817, 8956, 17962, 18412]}, "edge": {"target": [], "time": []}}}, "displayed_time": "19.15", "trialTime": 21283, "trial_type": "mouselab-mdp", "trial_index": 38, "time_elapsed": 1592902, "internal_node_id": "0.0-4.0-1.0-29.0"}}, {"uniqueid": "w67419319:a81044237", "current_trial": 39, "dateTime": 1691161299931, "trialdata": {"revealed_states": [], "clicked_states": ["11", "9", "10"], "num_clicks_accrued": [0, 0, 0, 0, 0, 0, 0, 0, 0, 0, 0, 0, 0], "stateRewards": ["", 2, 3, -6, -5, -3, 55, 40, 11, 61, 11, 51, 2, -4, -6, 9, -25, 29, -15, -6, 7, -77, -2, -2, -4, 1, 14, -43, -1, 56, -12, -54, 41, -74], "withholdReward": false, "trial_id": "mdp_trial_31", "block": "test", "trialIndex": 32, "score": 66.8, "costs": -4.199999999999999, "simulationMode": [null, null, null, null, null], "rewards": [2, 3, -6, 11, 61], "path": ["0", "0", "1", "2", "3", "8", "9"], "rt": [9239, 16, 53, 451, 40], "actions": ["up", "up", "up", "left", "up"], "actionTimes": [12297, 12826, 13429, 14406, 14944], "queries": {"click": {"state": {"target": ["11", "9", "10"], "time": [5443, 7127, 8947]}, "edge": {"target": [], "time": []}}, "mouseover": {"state": {"target": ["27", "11", "11", "9", "8", "10", "2"], "time": [4315, 4584, 5115, 6140, 7821, 8020, 10206]}, "edge": {"target": [], "time": []}}, "mouseout": {"state": {"target": ["2", "1", "0", "0", "27", "11", "11", "9", "8", "10"], "time": [1197, 1215, 1380, 4199, 4449, 4698, 5910, 7689, 7944, 10182]}, "edge": {"target": [], "time": []}}}, "displayed_time": "17.08", "trialTime": 22637, "trial_type": "mouselab-mdp", "trial_index": 39, "time_elapsed": 1617287, "internal_node_id": "0.0-4.0-1.0-30.0"}}, {"uniqueid": "w67419319:a81044237", "current_trial": 40, "dateTime": 1691161332551, "trialdata": {"revealed_states": [], "clicked_states": ["11", "9", "10"], "num_clicks_accrued": [0, 0, 0, 0, 0, 0, 0, 0, 0, 0, 0, 0, 0], "stateRewards": ["", -1, -3, -7, -4, -85, -70, 79, 8, 84, -66, 42, 2, -2, -3, -16, -54, -66, 68, -3, 21, -14, 7, -2, -1, -3, -8, 75, 80, 86, -7, -84, 73, -16], "withholdReward": false, "trial_id": "mdp_trial_32", "block": "test", "trialIndex": 33, "score": 76.8, "costs": -4.199999999999999, "simulationMode": [null, null, null, null, null], "rewards": [-1, -3, -7, 8, 84], "path": ["0", "0", "1", "2", "3", "8", "9"], "rt": [6883, 79, 117, 102, 225], "actions": ["up", "up", "up", "left", "up"], "actionTimes": [22293, 22914, 23549, 24168, 24909], "queries": {"click": {"state": {"target": ["11", "9", "10"], "time": [16474, 18449, 20411]}, "edge": {"target": [], "time": []}}, "mouseover": {"state": {"target": ["10", "11", "9", "8", "10"], "time": [15829, 16077, 17088, 18968, 19299]}, "edge": {"target": [], "time": []}}, "mouseout": {"state": {"target": ["2", "1", "0", "10", "11", "9", "8", "10"], "time": [4710, 5044, 5677, 15877, 16963, 18930, 19090, 21176]}, "edge": {"target": [], "time": []}}}, "displayed_time": "29.39", "trialTime": 30785, "trial_type": "mouselab-mdp", "trial_index": 40, "time_elapsed": 1649906, "internal_node_id": "0.0-4.0-1.0-31.0"}}, {"uniqueid": "w67419319:a81044237", "current_trial": 41, "dateTime": 1691161355483, "trialdata": {"revealed_states": [], "clicked_states": ["31", "32"], "num_clicks_accrued": [0, 0, 0, 0, 0, 0, 0, 0, 0, 0, 0, 0, 0], "stateRewards": ["", -2, -4, -2, -13, -15, 87, -19, -6, -80, 30, 12, 1, 1, -8, 2, 55, 56, 15, 11, -68, -7, 55, -2, 3, -3, -3, 48, 62, 4, 1, -3, 69, -33], "withholdReward": false, "trial_id": "mdp_trial_33", "block": "test", "trialIndex": 34, "score": 65.2, "costs": -2.8, "simulationMode": [null, null, null, null, null], "rewards": [-2, 3, -3, 1, 69], "path": ["0", "0", "23", "24", "25", "30", "32"], "rt": [6591, 59, 94, 249, 102], "actions": ["left", "left", "left", "down", "down"], "actionTimes": [11840, 12461, 13092, 13917, 14560], "queries": {"click": {"state": {"target": ["31", "32"], "time": [7018, 9028]}, "edge": {"target": [], "time": []}}, "mouseover": {"state": {"target": ["23", "30", "31", "32", "33"], "time": [6061, 6228, 6595, 7580, 9930]}, "edge": {"target": [], "time": []}}, "mouseout": {"state": {"target": ["1", "0", "23", "30", "31", "32"], "time": [3660, 5928, 6095, 6411, 7513, 9558]}, "edge": {"target": [], "time": []}}}, "displayed_time": "19.29", "trialTime": 20735, "trial_type": "mouselab-mdp", "trial_index": 41, "time_elapsed": 1672838, "internal_node_id": "0.0-4.0-1.0-32.0"}}, {"uniqueid": "w67419319:a81044237", "current_trial": 42, "dateTime": 1691161376557, "trialdata": {"revealed_states": [], "clicked_states": ["6", "7", "5"], "num_clicks_accrued": [0, 0, 0, 0, 0, 0, 0, 0, 0, 0, 0, 0, 0], "stateRewards": ["", 2, -2, -8, 9, -20, 55, -58, 14, 42, 2, 36, 1, -3, -5, 5, -58, 57, 60, 16, 57, 30, -70, -2, 1, 3, 10, 59, 23, 77, -13, -26, 88, -72], "withholdReward": false, "trial_id": "mdp_trial_34", "block": "test", "trialIndex": 35, "score": 51.8, "costs": -4.199999999999999, "simulationMode": [null, null, null, null, null], "rewards": [2, -2, -8, 9, 55], "path": ["0", "0", "1", "2", "3", "4", "6"], "rt": [7507, 153, 102, 47, 64], "actions": ["up", "up", "up", "right", "right"], "actionTimes": [10805, 11493, 12123, 12683, 13272], "queries": {"click": {"state": {"target": ["6", "7", "5"], "time": [4896, 7018, 8973]}, "edge": {"target": [], "time": []}}, "mouseover": {"state": {"target": ["6", "7", "4", "5"], "time": [4484, 5828, 7622, 7894]}, "edge": {"target": [], "time": []}}, "mouseout": {"state": {"target": ["33", "30", "31", "0", "6", "7", "4"], "time": [950, 986, 1117, 3344, 5488, 7539, 7712]}, "edge": {"target": [], "time": []}}}, "displayed_time": "17.31", "trialTime": 19034, "trial_type": "mouselab-mdp", "trial_index": 42, "time_elapsed": 1693912, "internal_node_id": "0.0-4.0-1.0-33.0"}}, {"uniqueid": "w67419319:a81044237", "current_trial": 43, "dateTime": 1691161401862, "trialdata": {"revealed_states": [], "clicked_states": ["31", "32", "33", "29"], "num_clicks_accrued": [0, 0, 0, 0, 0, 0, 0, 0, 0, 0, 0, 0, 0], "stateRewards": ["", -2, -3, 1, -7, 39, -67, 16, 5, -20, 73, 66, -1, 4, 5, -3, 23, -68, -87, -8, 3, -3, 17, 1, -4, -2, -13, -32, 34, 61, -5, -11, -18, 12], "withholdReward": false, "trial_id": "mdp_trial_35", "block": "test", "trialIndex": 36, "score": 37.4, "costs": -5.6, "simulationMode": [null, null, null, null, null], "rewards": [1, -4, -2, -13, 61], "path": ["0", "0", "23", "24", "25", "26", "29"], "rt": [14245, 284, 83, 88, 46], "actions": ["left", "left", "left", "up", "left"], "actionTimes": [16759, 17553, 18137, 18745, 19274], "queries": {"click": {"state": {"target": ["31", "32", "33", "29"], "time": [5539, 9687, 11768, 13927]}, "edge": {"target": [], "time": []}}, "mouseover": {"state": {"target": ["31", "32", "32", "33", "29", "27"], "time": [3447, 5749, 8655, 10395, 12492, 14425]}, "edge": {"target": [], "time": []}}, "mouseout": {"state": {"target": ["0", "31", "32", "32", "33", "29"], "time": [2553, 5741, 8013, 10181, 12168, 14317]}, "edge": {"target": [], "time": []}}}, "displayed_time": "19.84", "trialTime": 21635, "trial_type": "mouselab-mdp", "trial_index": 43, "time_elapsed": 1719217, "internal_node_id": "0.0-4.0-1.0-34.0"}}, {"uniqueid": "w67419319:a81044237", "current_trial": 44, "dateTime": 1691161422007, "trialdata": {"revealed_states": [], "clicked_states": ["31", "32"], "num_clicks_accrued": [0, 0, 0, 0, 0, 0, 0, 0, 0, 0, 0, 0, 0], "stateRewards": ["", 2, -1, 5, 6, 10, 86, 55, 10, -45, 63, -71, 1, -2, 5, -8, -50, -72, 36, 15, 61, 12, 33, -1, -4, 6, 5, 79, -56, -21, -16, -87, 60, -81], "withholdReward": false, "trial_id": "mdp_trial_36", "block": "test", "trialIndex": 37, "score": 42.2, "costs": -2.8, "simulationMode": [null, null, null, null, null], "rewards": [-1, -4, 6, -16, 60], "path": ["0", "0", "23", "24", "25", "30", "32"], "rt": [6029, 582, 75, 55, 8], "actions": ["left", "left", "left", "down", "down"], "actionTimes": [9051, 10155, 10954, 11519, 12054], "queries": {"click": {"state": {"target": ["31", "32"], "time": [4406, 6415]}, "edge": {"target": [], "time": []}}, "mouseover": {"state": {"target": ["23", "31", "32", "33"], "time": [3766, 3944, 5087, 7072]}, "edge": {"target": [], "time": []}}, "mouseout": {"state": {"target": ["27", "10", "2", "1", "0", "23", "31", "32"], "time": [784, 863, 1013, 1079, 3731, 3816, 4986, 6899]}, "edge": {"target": [], "time": []}}}, "displayed_time": "17.03", "trialTime": 18349, "trial_type": "mouselab-mdp", "trial_index": 44, "time_elapsed": 1739362, "internal_node_id": "0.0-4.0-1.0-35.0"}}, {"uniqueid": "w67419319:a81044237", "current_trial": 45, "dateTime": 1691161453879, "trialdata": {"revealed_states": [], "clicked_states": ["6", "5", "7"], "num_clicks_accrued": [0, 0, 0, 0, 0, 0, 0, 0, 0, 0, 0, 0, 0], "stateRewards": ["", -2, -3, 7, -13, 60, 9, 37, -6, 37, 20, 1, 2, -2, -8, 6, -80, -31, -10, -7, 70, -65, -44, -1, 1, 7, 6, -11, 73, -85, 16, -21, 47, 34], "withholdReward": false, "trial_id": "mdp_trial_37", "block": "test", "trialIndex": 38, "score": 44.8, "costs": -4.199999999999999, "simulationMode": [null, null, null, null, null, null], "rewards": [-2, -3, 7, -13, 60], "path": ["0", "0", "1", "2", "3", "4", "5"], "rt": [17050, 1534, 86, 136, 234, 188], "actions": ["up", "up", "up", "up", "right", "up"], "actionTimes": [20316, 21873, 22020, 23309, 24081, 24814], "queries": {"click": {"state": {"target": ["6", "5", "7"], "time": [5426, 7560, 20271]}, "edge": {"target": [], "time": []}}, "mouseover": {"state": {"target": ["16", "6", "5", "7"], "time": [3446, 5408, 5478, 20223]}, "edge": {"target": [], "time": []}}, "mouseout": {"state": {"target": ["33", "23", "0", "16", "6", "5", "7"], "time": [1213, 1418, 3380, 3466, 5470, 20218, 20301]}, "edge": {"target": [], "time": []}}}, "displayed_time": "28.28", "trialTime": 29875, "trial_type": "mouselab-mdp", "trial_index": 45, "time_elapsed": 1771234, "internal_node_id": "0.0-4.0-1.0-36.0"}}, {"uniqueid": "w67419319:a81044237", "current_trial": 46, "dateTime": 1691161473884, "trialdata": {"revealed_states": [], "clicked_states": ["29", "27", "28"], "num_clicks_accrued": [0, 0, 0, 0, 0, 0, 0, 0, 0, 0, 0, 0, 0], "stateRewards": ["", 1, 4, -4, 14, 35, 51, 19, -13, 54, 78, -74, -2, -1, -3, 13, -11, -42, -73, -15, -24, -3, -69, 2, -1, 5, 16, -27, 73, 58, 9, -60, 5, -60], "withholdReward": false, "trial_id": "mdp_trial_38", "block": "test", "trialIndex": 39, "score": 90.8, "costs": -4.199999999999999, "simulationMode": [null, null, null, null, null], "rewards": [2, -1, 5, 16, 73], "path": ["0", "0", "23", "24", "25", "26", "28"], "rt": [7595, 211, 458, 255, 88], "actions": ["left", "left", "left", "up", "right"], "actionTimes": [9755, 10494, 11499, 12284, 12888], "queries": {"click": {"state": {"target": ["29", "27", "28"], "time": [3469, 5637, 7639]}, "edge": {"target": [], "time": []}}, "mouseover": {"state": {"target": ["28", "26", "29", "27", "28"], "time": [2822, 2875, 3086, 4337, 6272]}, "edge": {"target": [], "time": []}}, "mouseout": {"state": {"target": ["0", "28", "26", "29", "27"], "time": [2754, 2854, 2987, 3993, 6150]}, "edge": {"target": [], "time": []}}}, "displayed_time": "16.16", "trialTime": 17689, "trial_type": "mouselab-mdp", "trial_index": 46, "time_elapsed": 1791239, "internal_node_id": "0.0-4.0-1.0-37.0"}}, {"uniqueid": "w67419319:a81044237", "current_trial": 47, "dateTime": 1691161511646, "trialdata": {"revealed_states": [], "clicked_states": ["22", "21", "20", "17", "16", "18", "31", "32", "33"], "num_clicks_accrued": [0, 0, 0, 0, 0, 0, 0, 0, 0, 0, 0, 0, 0], "stateRewards": ["", 2, -4, 7, 3, 23, -42, 4, 7, -81, -33, 7, -2, -4, 5, -1, 50, -57, -14, -13, -14, 44, 55, -2, -2, 5, -2, 33, 1, 57, -13, -7, 58, 87], "withholdReward": false, "trial_id": "mdp_trial_39", "block": "test", "trialIndex": 40, "score": 62.4, "costs": -12.600000000000001, "simulationMode": [null, null, null, null, null], "rewards": [-2, -2, 5, -13, 87], "path": ["0", "0", "23", "24", "25", "30", "33"], "rt": [23959, 10, 176, 72, 63], "actions": ["left", "left", "left", "down", "left"], "actionTimes": [26607, 27142, 27871, 28475, 29054], "queries": {"click": {"state": {"target": ["22", "21", "20", "17", "16", "18", "31", "32", "33"], "time": [3981, 5784, 7859, 13633, 15708, 17823, 19773, 21811, 23837]}, "edge": {"target": [], "time": []}}, "mouseover": {"state": {"target": ["0", "12", "22", "21", "20", "15", "17", "16", "18", "31", "32", "33"], "time": [2700, 3381, 3557, 4992, 6873, 12845, 13310, 14362, 16478, 18774, 20436, 22519]}, "edge": {"target": [], "time": []}}, "mouseout": {"state": {"target": ["0", "0", "12", "22", "22", "21", "20", "20", "15", "17", "16", "18", "31", "32", "33", "32"], "time": [776, 3362, 3444, 4151, 4800, 6502, 11625, 11910, 12926, 14205, 16163, 18415, 20269, 22279, 24465, 25827]}, "edge": {"target": [], "time": []}}}, "displayed_time": "29.59", "trialTime": 35659, "trial_type": "mouselab-mdp", "trial_index": 47, "time_elapsed": 1829002, "internal_node_id": "0.0-4.0-1.0-38.0"}}, {"uniqueid": "w67419319:a81044237", "current_trial": 48, "dateTime": 1691161541296, "trialdata": {"revealed_states": [], "clicked_states": ["11", "9", "10", "7", "6", "5"], "num_clicks_accrued": [0, 0, 0, 0, 0, 0, 0, 0, 0, 0, 0, 0, 0], "stateRewards": ["", -2, -4, 2, 10, -17, 18, 73, 11, -32, 23, -13, -2, -4, 7, 12, -25, 66, -23, 15, 40, -76, -9, 1, 2, -7, -5, -20, 24, 3, -5, 16, -73, 70], "withholdReward": false, "trial_id": "mdp_trial_40", "block": "test", "trialIndex": 41, "score": 70.6, "costs": -8.4, "simulationMode": [null, null, null, null, null], "rewards": [-2, -4, 2, 10, 73], "path": ["0", "0", "1", "2", "3", "4", "7"], "rt": [16234, 34, 22, 448, 91], "actions": ["up", "up", "up", "right", "down"], "actionTimes": [20344, 21087, 21671, 22701, 23310], "queries": {"click": {"state": {"target": ["11", "9", "10", "7", "6", "5"], "time": [6058, 10213, 12226, 14140, 16235, 18462]}, "edge": {"target": [], "time": []}}, "mouseover": {"state": {"target": ["11", "9", "8", "10", "2", "7", "6", "5"], "time": [5708, 9843, 10685, 10918, 12731, 12840, 14833, 17937]}, "edge": {"target": [], "time": []}}, "mouseout": {"state": {"target": ["23", "0", "11", "9", "8", "10", "2", "7", "6", "5"], "time": [25, 5703, 9189, 10678, 10752, 12442, 12761, 14599, 17770, 26772]}, "edge": {"target": [], "time": []}}}, "displayed_time": "23.82", "trialTime": 27388, "trial_type": "mouselab-mdp", "trial_index": 48, "time_elapsed": 1858651, "internal_node_id": "0.0-4.0-1.0-39.0"}}, {"uniqueid": "w67419319:a81044237", "current_trial": 49, "dateTime": 1691161727160, "trialdata": {"rt": 185536, "response": {"Q0": "$-2 to $2", "Q1": "$-16 to $16", "Q2": "$-16 to $16", "Q3": "The cost was always $1.4.", "Q4": "Slightly motivated"}, "question_order": [0, 1, 2, 3, 4], "trial_id": "final_quiz_control", "trial_type": "survey-multi-choice", "trial_index": 49, "time_elapsed": 2044515, "internal_node_id": "0.0-4.0-2.0"}}, {"uniqueid": "w67419319:a81044237", "current_trial": 50, "dateTime": 1691162882005, "trialdata": {"rt": 1154557, "response": {"Q0": "I saw that the cost of inspecting the nodes was low, so I didn't pay much attention to it. From my inspection, I noticed that $88 was probably the maximum I could earn at the final nodes. So my strategy was to pick a maximum of 5 nodes to inspect, If I found a node that was worth between $55-$88 before inspecting the fifth node then I'd head straight for the highest node, regardless of what the cost was.", "Q1": "Yes, initially I didn't know what was the maximum I could earn for a final node, so I picked randomly and chose whatever node had a positive value. As time went on, I noticed the maximum value I could earn on the final nodes, so I made sure to pick a final node that was close to the maximum value.", "Q2": "It was not difficult."}, "trial_id": "self_report_control", "trial_type": "survey-text", "trial_index": 50, "time_elapsed": 3199360, "internal_node_id": "0.0-4.0-3.0"}}, {"uniqueid": "w67419319:a81044237", "current_trial": 51, "dateTime": 1691162982789, "trialdata": {"rt": 100756, "response": {"gender": "male", "age": "21", "colorblind": "0", "effort": "0"}, "trial_type": "survey-html-form", "trial_index": 51, "time_elapsed": 3300145, "internal_node_id": "0.0-4.0-4.0"}}, {"uniqueid": "w67419319:a81044237", "current_trial": 52, "dateTime": 1691163037996, "trialdata": {"rt": 55187, "response": {"Q0": "No, everything was easy to understand.", "Q1": "No", "Q2": "No comment"}, "trial_type": "survey-text", "trial_index": 52, "time_elapsed": 3355351, "internal_node_id": "0.0-4.0-5.0"}}, {"uniqueid": "w67419319:a81044237", "current_trial": 53, "dateTime": 1691163043267, "trialdata": {"rt": 5141, "stimulus": "Press 'Finish HIT' in order to reach the completion code. Once the data has been saved, you will receive the code either in this window or in the original browser window where you started the experiment.\n", "response": 0, "trial_type": "html-button-response", "trial_index": 53, "time_elapsed": 3360623, "internal_node_id": "0.0-5.0"}}, {"uniqueid": "w67419319:a81044237", "current_trial": 54, "dateTime": 1691163044279, "trialdata": {"success": true, "trial_type": "fullscreen", "trial_index": 54, "time_elapsed": 3361635, "internal_node_id": "0.0-6.0"}}], "questiondata": {"params": {"CODE": "C6DMOQA6", "MIN_TIME": 14, "inspectCost": 1, "startTime": "Fri Aug 04 2023 16:34:37 GMT+0200 (South Africa Standard Time)", "bonusRate": 0.002, "variance": "1_2_4_8_44", "branching": "31123"}, "final_score": 2192.4}, "eventdata": [{"eventtype": "initialized", "value": null, "timestamp": 1691159675055, "interval": 0}, {"eventtype": "window_resize", "value": [1024, 694], "timestamp": 1691159675055, "interval": 0}, {"eventtype": "window_resize", "value": [1024, 694], "timestamp": 1691159677474, "interval": 2419}, {"eventtype": "window_resize", "value": [1366, 768], "timestamp": 1691159694245, "interval": 16771}], "useragent": "Mozilla/5.0 (Windows NT 10.0; Win64; x64) AppleWebKit/537.36 (KHTML, like Gecko) Chrome/115.0.0.0 Safari/537.36", "mode": "live", "id": "w67419319:a81044237", "status": "user data saved", "Beginhit": "2023-08-04 14:34:12.353164", "Beginexp": "2023-08-04 14:34:56.161931", "Endhit": "2023-08-04 15:30:46.382368", "psiturkStatus": 3, "browser": "<redacted>", "platform": "windows", "language": "en-US"}