{"condition": 1, "counterbalance": 0, "assignmentId": "a19390933", "workerId": "w20854806", "hitId": "h38638110", "currenttrial": 62, "bonus": 0, "data": [{"uniqueid": "w20854806:a19390933", "current_trial": 0, "dateTime": 1693481005014, "trialdata": {"success": true, "trial_type": "fullscreen", "trial_index": 0, "time_elapsed": 22912, "internal_node_id": "0.0-0.0"}}, {"uniqueid": "w20854806:a19390933", "current_trial": 1, "dateTime": 1693481032676, "trialdata": {"view_history": [{"page_index": 0, "viewing_time": 27654}], "rt": 27655, "trial_id": "exp_instructions_misaligned", "trial_type": "instructions", "trial_index": 1, "time_elapsed": 50575, "internal_node_id": "0.0-1.0"}}, {"uniqueid": "w20854806:a19390933", "current_trial": 2, "dateTime": 1693481267907, "trialdata": {"view_history": [{"page_index": 0, "viewing_time": 130075}, {"page_index": 1, "viewing_time": 58693}, {"page_index": 2, "viewing_time": 18576}, {"page_index": 3, "viewing_time": 27885}], "rt": 235229, "trial_id": "mouselab_instructions_1_misaligned", "trial_type": "instructions", "trial_index": 2, "time_elapsed": 285806, "internal_node_id": "0.0-2.0-1.0"}}, {"uniqueid": "w20854806:a19390933", "current_trial": 3, "dateTime": 1693481281913, "trialdata": {"revealed_states": [], "clicked_states": [], "num_clicks_accrued": [0, 0, 0, 0, 0, 0, 0, 0, 0, 0, 0, 0, 0], "stateRewards": ["", 10, -10, 10, 10, -10, -10, -10, -10, 10, 10, -10, -10, 10, -10, -10, 10, 10, 10, 10, 10, -10, 10, -10, 10, 10, -10, 10, 10, -10, -10, 10, 10, -10], "withholdReward": false, "trial_id": "practice_1", "block": "test", "trialIndex": 0, "score": 13.5, "costs": 0, "simulationMode": [null, null, null, null, null], "rewards": [10, -10, 10, 10, -10], "path": ["0", "0", "1", "2", "3", "4", "5"], "rt": [1947, 1057, 372, 1616, 1056], "actions": ["up", "up", "up", "right", "up"], "actionTimes": [3563, 5133, 5999, 8109, 9665], "queries": {"click": {"state": {"target": [], "time": []}, "edge": {"target": [], "time": []}}, "mouseover": {"state": {"target": [], "time": []}, "edge": {"target": [], "time": []}}, "mouseout": {"state": {"target": [], "time": []}, "edge": {"target": [], "time": []}}}, "displayed_time": "10.16", "trialTime": 13008, "trial_type": "mouselab-mdp", "trial_index": 3, "time_elapsed": 299812, "internal_node_id": "0.0-2.0-2.0-0.0"}}, {"uniqueid": "w20854806:a19390933", "current_trial": 4, "dateTime": 1693481296833, "trialdata": {"revealed_states": [], "clicked_states": [], "num_clicks_accrued": [0, 0, 0, 0, 0, 0, 0, 0, 0, 0, 0, 0, 0], "stateRewards": ["", -10, 10, -10, 10, -10, -10, 10, -10, -10, 10, -10, 10, 10, 10, -10, 10, 10, 10, -10, 10, -10, 10, 10, 10, 10, -10, -10, 10, 10, -10, -10, -10, -10], "withholdReward": false, "trial_id": "practice_2", "block": "test", "trialIndex": 1, "score": 13.5, "costs": 0, "simulationMode": [null, null, null, null, null], "rewards": [10, 10, 10, -10, -10], "path": ["0", "0", "23", "24", "25", "26", "27"], "rt": [3461, 392, 123, 942, 53], "actions": ["left", "left", "left", "up", "up"], "actionTimes": [8284, 9179, 9797, 11249, 11793], "queries": {"click": {"state": {"target": [], "time": []}, "edge": {"target": [], "time": []}}, "mouseover": {"state": {"target": [], "time": []}, "edge": {"target": [], "time": []}}, "mouseout": {"state": {"target": [], "time": []}, "edge": {"target": [], "time": []}}}, "displayed_time": "12.31", "trialTime": 14740, "trial_type": "mouselab-mdp", "trial_index": 4, "time_elapsed": 314730, "internal_node_id": "0.0-2.0-2.0-1.0"}}, {"uniqueid": "w20854806:a19390933", "current_trial": 5, "dateTime": 1693481330253, "trialdata": {"view_history": [{"page_index": 0, "viewing_time": 23244}, {"page_index": 1, "viewing_time": 10173}], "rt": 33418, "trial_id": "mouselab_instructions_2_misaligned", "trial_type": "instructions", "trial_index": 5, "time_elapsed": 348152, "internal_node_id": "0.0-2.0-3.0"}}, {"uniqueid": "w20854806:a19390933", "current_trial": 6, "dateTime": 1693481371295, "trialdata": {"rt": 41034, "response": {"Q0": "There is no cost for clicking on nodes.", "Q1": "The better I perform the higher my bonus will be.", "Q2": "No, the amount of cash at each node of the web may be different each time.", "Q3": "To get the highest total score.", "Q4": "Only before moving the spider.", "Q5": "3 seconds"}, "question_order": [0, 1, 2, 3, 4, 5], "correct": {"Q0": "The cost for clicking on nodes may vary between nodes.", "Q1": "The better I perform the higher my bonus will be.", "Q2": "No, the amount of cash at each node of the web may be different each time.", "Q3": "To get the highest total score.", "Q4": "Only before moving the spider.", "Q5": "3 seconds"}, "trial_id": "mouselab_quiz_misaligned", "trial_type": "survey-multi-choice", "trial_index": 6, "time_elapsed": 389194, "internal_node_id": "0.0-2.0-4.0"}}, {"uniqueid": "w20854806:a19390933", "current_trial": 7, "dateTime": 1693481381041, "trialdata": {"success": true, "trial_type": "fullscreen", "trial_index": 7, "time_elapsed": 398939, "internal_node_id": "0.0-2.1-0.1-0.1"}}, {"uniqueid": "w20854806:a19390933", "current_trial": 8, "dateTime": 1693481437515, "trialdata": {"view_history": [{"page_index": 0, "viewing_time": 8852}, {"page_index": 1, "viewing_time": 28637}, {"page_index": 2, "viewing_time": 9556}, {"page_index": 3, "viewing_time": 9425}], "rt": 56470, "trial_id": "mouselab_instructions_1_misaligned", "trial_type": "instructions", "trial_index": 8, "time_elapsed": 455414, "internal_node_id": "0.0-2.1-1.1"}}, {"uniqueid": "w20854806:a19390933", "current_trial": 9, "dateTime": 1693481449007, "trialdata": {"revealed_states": [], "clicked_states": [], "num_clicks_accrued": [0, 0, 0, 0, 0, 0, 0, 0, 0, 0, 0, 0, 0], "stateRewards": ["", 10, -10, 10, 10, -10, -10, -10, -10, 10, 10, -10, -10, 10, -10, -10, 10, 10, 10, 10, 10, -10, 10, -10, 10, 10, -10, 10, 10, -10, -10, 10, 10, -10], "withholdReward": false, "trial_id": "practice_1", "block": "test", "trialIndex": 2, "score": 13.5, "costs": 0, "simulationMode": [null, null, null, null, null], "rewards": [10, -10, 10, -10, 10], "path": ["0", "0", "1", "2", "3", "8", "9"], "rt": [1364, 98, 353, 1062, 1612], "actions": ["up", "up", "up", "left", "up"], "actionTimes": [3133, 3745, 4616, 6197, 8309], "queries": {"click": {"state": {"target": [], "time": []}, "edge": {"target": [], "time": []}}, "mouseover": {"state": {"target": [], "time": []}, "edge": {"target": [], "time": []}}, "mouseout": {"state": {"target": [], "time": []}, "edge": {"target": [], "time": []}}}, "displayed_time": "8.83", "trialTime": 11270, "trial_type": "mouselab-mdp", "trial_index": 9, "time_elapsed": 466906, "internal_node_id": "0.0-2.1-2.1-0.1"}}, {"uniqueid": "w20854806:a19390933", "current_trial": 10, "dateTime": 1693481460690, "trialdata": {"revealed_states": [], "clicked_states": [], "num_clicks_accrued": [0, 0, 0, 0, 0, 0, 0, 0, 0, 0, 0, 0, 0], "stateRewards": ["", -10, 10, -10, 10, -10, -10, 10, -10, -10, 10, -10, 10, 10, 10, -10, 10, 10, 10, -10, 10, -10, 10, 10, 10, 10, -10, -10, 10, 10, -10, -10, -10, -10], "withholdReward": false, "trial_id": "practice_2", "block": "test", "trialIndex": 3, "score": 33.5, "costs": 0, "simulationMode": [null, null, null, null, null], "rewards": [10, 10, 10, -10, 10], "path": ["0", "0", "12", "13", "14", "15", "16"], "rt": [1496, 30, 279, 631, 2349], "actions": ["right", "right", "right", "up", "up"], "actionTimes": [3407, 3934, 4716, 5852, 8719], "queries": {"click": {"state": {"target": [], "time": []}, "edge": {"target": [], "time": []}}, "mouseover": {"state": {"target": [], "time": []}, "edge": {"target": [], "time": []}}, "mouseout": {"state": {"target": ["0"], "time": [10675]}, "edge": {"target": [], "time": []}}}, "displayed_time": "9.24", "trialTime": 11508, "trial_type": "mouselab-mdp", "trial_index": 10, "time_elapsed": 478587, "internal_node_id": "0.0-2.1-2.1-1.1"}}, {"uniqueid": "w20854806:a19390933", "current_trial": 11, "dateTime": 1693481472025, "trialdata": {"view_history": [{"page_index": 0, "viewing_time": 9032}, {"page_index": 1, "viewing_time": 2301}], "rt": 11334, "trial_id": "mouselab_instructions_2_misaligned", "trial_type": "instructions", "trial_index": 11, "time_elapsed": 489924, "internal_node_id": "0.0-2.1-3.1"}}, {"uniqueid": "w20854806:a19390933", "current_trial": 12, "dateTime": 1693481502301, "trialdata": {"rt": 30271, "response": {"Q0": "The cost for clicking on nodes may vary between nodes.", "Q1": "The better I perform the higher my bonus will be.", "Q2": "No, the amount of cash at each node of the web may be different each time.", "Q3": "To get the highest total score.", "Q4": "Only before moving the spider.", "Q5": "3 seconds"}, "question_order": [0, 1, 2, 3, 4, 5], "correct": {"Q0": "The cost for clicking on nodes may vary between nodes.", "Q1": "The better I perform the higher my bonus will be.", "Q2": "No, the amount of cash at each node of the web may be different each time.", "Q3": "To get the highest total score.", "Q4": "Only before moving the spider.", "Q5": "3 seconds"}, "trial_id": "mouselab_quiz_misaligned", "trial_type": "survey-multi-choice", "trial_index": 12, "time_elapsed": 520200, "internal_node_id": "0.0-2.1-4.1"}}, {"uniqueid": "w20854806:a19390933", "current_trial": 13, "dateTime": 1693481525484, "trialdata": {"rt": 23174, "response": {"Q0": "No"}, "question_order": [0], "trial_id": "repeat_check", "trial_type": "survey-multi-choice", "trial_index": 13, "time_elapsed": 543383, "internal_node_id": "0.0-4.0-0.0"}}, {"uniqueid": "w20854806:a19390933", "current_trial": 14, "dateTime": 1693481529993, "trialdata": {"rt": 4503, "stimulus": "\n<h1> Get ready to start the game! </h1>\n\nThank you for reading the instructions. Get ready start with the 40 rounds of this game.\n<br><br>\nIf you need to take a break, feel free to take one after the end of a round, before continuing to the next one.\n<br><br>\nRemember, the more money the spider gets, the bigger your bonus will be!\n<br><br>\n<div style='text-align: center;'>Press <code>space</code> to begin.</div>\n\n<br><br>\n(If, at any point, the <code>space</code> key does not take you to the next page, click once on the text and try again.)", "response": " ", "trial_id": "mdp_ready", "trial_type": "html-keyboard-response", "trial_index": 14, "time_elapsed": 547892, "internal_node_id": "0.0-6.0-0.0"}}, {"uniqueid": "w20854806:a19390933", "current_trial": 15, "dateTime": 1693481549021, "trialdata": {"revealed_states": [], "clicked_states": ["1"], "num_clicks_accrued": [0, 0, 0, 0, 0, 0, 0, 0, 0, 0, 0, 0, 0], "stateRewards": ["", -2, -4, 6, 14, -34, 49, 36, -8, -3, 32, -4, 1, -2, 1, -8, -20, -71, -57, -7, -86, -62, -16, -2, -3, -5, 11, 23, -21, 53, 5, -5, 85, 73], "withholdReward": false, "trial_id": "mdp_trial_1", "block": "test", "trialIndex": 4, "score": -92.75, "costs": 0.25, "simulationMode": [null, null, null, null, null], "rewards": [1, -2, 1, -7, -86], "path": ["0", "0", "12", "13", "14", "19", "20"], "rt": [5959, 1454, 844, 1060, 1226], "actions": ["right", "right", "right", "down", "right"], "actionTimes": [8055, 10017, 11373, 12923, 14656], "queries": {"click": {"state": {"target": ["1"], "time": [3482]}, "edge": {"target": [], "time": []}}, "mouseover": {"state": {"target": ["1", "12", "0"], "time": [2963, 4879, 5465]}, "edge": {"target": [], "time": []}}, "mouseout": {"state": {"target": ["0", "1", "12"], "time": [962, 4278, 5244]}, "edge": {"target": [], "time": []}}}, "displayed_time": "16.10", "trialTime": 18831, "trial_type": "mouselab-mdp", "trial_index": 15, "time_elapsed": 566918, "internal_node_id": "0.0-6.0-1.0-0.0"}}, {"uniqueid": "w20854806:a19390933", "current_trial": 16, "dateTime": 1693481570874, "trialdata": {"revealed_states": [], "clicked_states": [], "num_clicks_accrued": [0, 0, 0, 0, 0, 0, 0, 0, 0, 0, 0, 0, 0], "stateRewards": ["", 2, 4, -6, -13, -75, -81, 30, 7, 5, 59, -65, -1, -1, 7, 14, -38, 36, -41, 1, -54, -5, 64, 2, -1, 5, 6, -19, 79, 11, 16, -33, -50, 58], "withholdReward": false, "trial_id": "mdp_trial_2", "block": "test", "trialIndex": 5, "score": 23, "costs": 0, "simulationMode": [null, null, null, null, null], "rewards": [2, -1, 5, 6, 11], "path": ["0", "0", "23", "24", "25", "26", "29"], "rt": [9120, 755, 350, 1571, 1679], "actions": ["left", "left", "left", "up", "left"], "actionTimes": [13082, 14355, 15218, 17305, 19496], "queries": {"click": {"state": {"target": [], "time": []}, "edge": {"target": [], "time": []}}, "mouseover": {"state": {"target": ["1", "2", "2", "1", "23"], "time": [5765, 5815, 6102, 6515, 7970]}, "edge": {"target": [], "time": []}}, "mouseout": {"state": {"target": ["0", "1", "2", "2", "1", "23"], "time": [5739, 5799, 5832, 6151, 7716, 9790]}, "edge": {"target": [], "time": []}}}, "displayed_time": "20.00", "trialTime": 21640, "trial_type": "mouselab-mdp", "trial_index": 16, "time_elapsed": 588772, "internal_node_id": "0.0-6.0-1.0-1.0"}}, {"uniqueid": "w20854806:a19390933", "current_trial": 17, "dateTime": 1693481588662, "trialdata": {"revealed_states": [], "clicked_states": [], "num_clicks_accrued": [0, 0, 0, 0, 0, 0, 0, 0, 0, 0, 0, 0, 0], "stateRewards": ["", -2, -1, -1, 5, -54, -87, 35, 2, -8, 20, -22, 1, 3, 6, 13, -75, -32, -55, -3, 56, 62, -22, -1, -4, -1, -7, -51, 84, 70, 7, -15, 5, 55], "withholdReward": false, "trial_id": "mdp_trial_3", "block": "test", "trialIndex": 6, "score": -86, "costs": 0, "simulationMode": [null, null, null, null, null], "rewards": [-2, -1, -1, 5, -87], "path": ["0", "0", "1", "2", "3", "4", "6"], "rt": [4986, 596, 453, 2287, 343], "actions": ["up", "up", "up", "right", "right"], "actionTimes": [7126, 8222, 9196, 11997, 12853], "queries": {"click": {"state": {"target": [], "time": []}, "edge": {"target": [], "time": []}}, "mouseover": {"state": {"target": [], "time": []}, "edge": {"target": [], "time": []}}, "mouseout": {"state": {"target": ["0"], "time": [1998]}, "edge": {"target": [], "time": []}}}, "displayed_time": "16.14", "trialTime": 17589, "trial_type": "mouselab-mdp", "trial_index": 17, "time_elapsed": 606561, "internal_node_id": "0.0-6.0-1.0-2.0"}}, {"uniqueid": "w20854806:a19390933", "current_trial": 18, "dateTime": 1693481606965, "trialdata": {"revealed_states": [], "clicked_states": ["4"], "num_clicks_accrued": [0, 0, 0, 0, 0, 0, 0, 0, 0, 0, 0, 0, 0], "stateRewards": ["", 1, 4, -4, 14, 35, 51, 19, -13, 54, 78, -74, -2, -1, -3, 13, -11, -42, -73, -15, -24, -3, -69, 2, -1, 5, 16, -27, 73, 58, 9, -60, 5, -60], "withholdReward": false, "trial_id": "mdp_trial_4", "block": "test", "trialIndex": 7, "score": -46.55, "costs": -1.55, "simulationMode": [null, null, null, null, null], "rewards": [-2, -1, -3, -15, -24], "path": ["0", "0", "12", "13", "14", "19", "20"], "rt": [8352, 938, 583, 1165, 941], "actions": ["right", "right", "right", "down", "right"], "actionTimes": [9913, 11364, 12460, 14142, 15584], "queries": {"click": {"state": {"target": ["4"], "time": [3641]}, "edge": {"target": [], "time": []}}, "mouseover": {"state": {"target": ["2", "7", "4", "2", "1", "10", "8", "8"], "time": [2579, 2796, 2908, 5063, 5609, 5741, 5759, 6363]}, "edge": {"target": [], "time": []}}, "mouseout": {"state": {"target": ["0", "2", "7", "4", "2", "1", "10", "8"], "time": [1410, 2713, 2825, 4782, 5576, 5713, 5758, 6075]}, "edge": {"target": [], "time": []}}}, "displayed_time": "16.09", "trialTime": 18090, "trial_type": "mouselab-mdp", "trial_index": 18, "time_elapsed": 624862, "internal_node_id": "0.0-6.0-1.0-3.0"}}, {"uniqueid": "w20854806:a19390933", "current_trial": 19, "dateTime": 1693481624467, "trialdata": {"revealed_states": [], "clicked_states": ["1"], "num_clicks_accrued": [0, 0, 0, 0, 0, 0, 0, 0, 0, 0, 0, 0, 0], "stateRewards": ["", -2, -3, -7, 7, -54, -69, -4, -14, -77, 22, 40, -2, -1, 5, 6, -35, 50, -60, 10, -28, 75, 57, 1, -4, -2, 2, 68, 34, -18, 12, 3, -21, -43], "withholdReward": false, "trial_id": "mdp_trial_5", "block": "test", "trialIndex": 8, "score": -102.75, "costs": 0.25, "simulationMode": [null, null, null, null, null], "rewards": [-2, -3, -7, -14, -77], "path": ["0", "0", "1", "2", "3", "8", "9"], "rt": [4495, 1614, 412, 2357, 1174], "actions": ["up", "up", "up", "left", "up"], "actionTimes": [6618, 8728, 9659, 12522, 14204], "queries": {"click": {"state": {"target": ["1"], "time": [4380]}, "edge": {"target": [], "time": []}}, "mouseover": {"state": {"target": ["1"], "time": [3965]}, "edge": {"target": [], "time": []}}, "mouseout": {"state": {"target": ["8", "8", "10", "1"], "time": [515, 1165, 1215, 1346]}, "edge": {"target": [], "time": []}}}, "displayed_time": "16.12", "trialTime": 17279, "trial_type": "mouselab-mdp", "trial_index": 19, "time_elapsed": 642365, "internal_node_id": "0.0-6.0-1.0-4.0"}}, {"uniqueid": "w20854806:a19390933", "current_trial": 20, "dateTime": 1693481642089, "trialdata": {"revealed_states": [], "clicked_states": ["23"], "num_clicks_accrued": [0, 0, 0, 0, 0, 0, 0, 0, 0, 0, 0, 0, 0], "stateRewards": ["", -2, 2, 2, -6, 9, 37, 50, -13, -7, -18, -75, -2, -4, 4, 7, 23, -57, -66, -7, -81, -48, -76, 1, 1, -8, 1, 51, -2, 70, 14, 59, 71, -37], "withholdReward": false, "trial_id": "mdp_trial_6", "block": "test", "trialIndex": 9, "score": 79.25, "costs": 0.25, "simulationMode": [null, null, null, null, null], "rewards": [1, 1, -8, 14, 71], "path": ["0", "0", "23", "24", "25", "30", "32"], "rt": [5067, 854, 808, 1107, 1531], "actions": ["left", "left", "left", "down", "down"], "actionTimes": [6641, 8009, 9312, 10928, 12969], "queries": {"click": {"state": {"target": ["23"], "time": [3801]}, "edge": {"target": [], "time": []}}, "mouseover": {"state": {"target": ["0", "23"], "time": [2176, 2790]}, "edge": {"target": [], "time": []}}, "mouseout": {"state": {"target": ["1", "0", "0"], "time": [869, 1172, 2202]}, "edge": {"target": [], "time": []}}}, "displayed_time": "15.58", "trialTime": 17428, "trial_type": "mouselab-mdp", "trial_index": 20, "time_elapsed": 659988, "internal_node_id": "0.0-6.0-1.0-5.0"}}, {"uniqueid": "w20854806:a19390933", "current_trial": 21, "dateTime": 1693481661596, "trialdata": {"revealed_states": [], "clicked_states": [], "num_clicks_accrued": [0, 0, 0, 0, 0, 0, 0, 0, 0, 0, 0, 0, 0], "stateRewards": ["", 2, 1, -3, 7, 46, 11, -36, 16, 71, 5, 1, 2, -2, -8, -3, -4, 6, 55, 7, 68, -54, 2, 1, 1, 6, -6, 42, -4, -84, -11, -65, 63, 25], "withholdReward": false, "trial_id": "mdp_trial_7", "block": "test", "trialIndex": 10, "score": 53, "costs": 0, "simulationMode": [null, null, null, null, null], "rewards": [2, 1, -3, 7, 46], "path": ["0", "0", "1", "2", "3", "4", "5"], "rt": [8415, 980, 340, 1371, 979], "actions": ["up", "up", "up", "right", "up"], "actionTimes": [11528, 13025, 13884, 15767, 17241], "queries": {"click": {"state": {"target": [], "time": []}, "edge": {"target": [], "time": []}}, "mouseover": {"state": {"target": ["0", "2", "3", "3", "2", "1", "1"], "time": [5359, 5529, 5559, 5959, 9809, 9861, 10095]}, "edge": {"target": [], "time": []}}, "mouseout": {"state": {"target": ["23", "0", "2", "3", "3", "2", "1", "1"], "time": [2225, 5396, 5542, 5913, 9793, 9848, 10045, 10110]}, "edge": {"target": [], "time": []}}}, "displayed_time": "17.76", "trialTime": 19270, "trial_type": "mouselab-mdp", "trial_index": 21, "time_elapsed": 679493, "internal_node_id": "0.0-6.0-1.0-6.0"}}, {"uniqueid": "w20854806:a19390933", "current_trial": 22, "dateTime": 1693481679140, "trialdata": {"revealed_states": [], "clicked_states": [], "num_clicks_accrued": [0, 0, 0, 0, 0, 0, 0, 0, 0, 0, 0, 0, 0], "stateRewards": ["", -2, -4, -8, 8, 63, -50, -19, -7, -17, -31, 31, 1, 3, -5, 12, -35, -63, -29, -4, -17, -75, -79, -2, -3, -2, 8, -3, -85, 10, -2, -82, -82, 56], "withholdReward": false, "trial_id": "mdp_trial_8", "block": "test", "trialIndex": 11, "score": -80, "costs": 0, "simulationMode": [null, null, null, null, null], "rewards": [1, 3, -5, -4, -75], "path": ["0", "0", "12", "13", "14", "19", "21"], "rt": [8580, 330, 616, 1371, 237], "actions": ["right", "right", "right", "down", "down"], "actionTimes": [10235, 11071, 12190, 14080, 14827], "queries": {"click": {"state": {"target": [], "time": []}, "edge": {"target": [], "time": []}}, "mouseover": {"state": {"target": ["23", "24", "24", "23", "0"], "time": [4744, 4805, 5039, 6264, 6460]}, "edge": {"target": [], "time": []}}, "mouseout": {"state": {"target": ["0", "23", "24", "24", "23", "0"], "time": [1495, 4757, 4943, 6260, 6288, 6581]}, "edge": {"target": [], "time": []}}}, "displayed_time": "15.65", "trialTime": 17313, "trial_type": "mouselab-mdp", "trial_index": 22, "time_elapsed": 697039, "internal_node_id": "0.0-6.0-1.0-7.0"}}, {"uniqueid": "w20854806:a19390933", "current_trial": 23, "dateTime": 1693481696068, "trialdata": {"revealed_states": [], "clicked_states": ["2"], "num_clicks_accrued": [0, 0, 0, 0, 0, 0, 0, 0, 0, 0, 0, 0, 0], "stateRewards": ["", -2, -3, 8, -4, -30, 31, 69, 9, 66, 87, 64, -2, 2, 8, 5, 47, 16, -39, -8, -54, 51, -19, 1, -2, -2, -11, -25, -26, 43, -9, 19, -84, 86], "withholdReward": false, "trial_id": "mdp_trial_9", "block": "test", "trialIndex": 12, "score": -96.35, "costs": -0.35, "simulationMode": [null, null, null, null, null], "rewards": [1, -2, -2, -9, -84], "path": ["0", "0", "23", "24", "25", "30", "32"], "rt": [8123, 221, 505, 581, 301], "actions": ["left", "left", "left", "down", "down"], "actionTimes": [9140, 9854, 10870, 11962, 12766], "queries": {"click": {"state": {"target": ["2"], "time": [3879]}, "edge": {"target": [], "time": []}}, "mouseover": {"state": {"target": ["2", "3", "2", "10", "23"], "time": [3184, 3231, 3518, 5414, 6264]}, "edge": {"target": [], "time": []}}, "mouseout": {"state": {"target": ["0", "2", "3", "2", "10", "23"], "time": [854, 3198, 3429, 5385, 5880, 7249]}, "edge": {"target": [], "time": []}}}, "displayed_time": "15.02", "trialTime": 16700, "trial_type": "mouselab-mdp", "trial_index": 23, "time_elapsed": 713967, "internal_node_id": "0.0-6.0-1.0-8.0"}}, {"uniqueid": "w20854806:a19390933", "current_trial": 24, "dateTime": 1693481713384, "trialdata": {"revealed_states": [], "clicked_states": ["2"], "num_clicks_accrued": [0, 0, 0, 0, 0, 0, 0, 0, 0, 0, 0, 0, 0], "stateRewards": ["", -2, 4, -3, -13, 63, -36, 62, 11, 78, 34, -51, 2, -2, 8, -6, -40, -18, 31, 9, 64, 39, 79, 1, 4, -4, 15, -12, 76, 73, -10, -77, 86, -4], "withholdReward": false, "trial_id": "mdp_trial_10", "block": "test", "trialIndex": 13, "score": -38.35, "costs": -0.35, "simulationMode": [null, null, null, null, null], "rewards": [2, -2, 8, -6, -40], "path": ["0", "0", "12", "13", "14", "15", "16"], "rt": [5621, 528, 1067, 791, 326], "actions": ["right", "right", "right", "up", "up"], "actionTimes": [7186, 8228, 9784, 11091, 11910], "queries": {"click": {"state": {"target": ["2"], "time": [2692]}, "edge": {"target": [], "time": []}}, "mouseover": {"state": {"target": ["1", "2", "2", "7", "1"], "time": [2082, 2184, 2333, 4132, 4688]}, "edge": {"target": [], "time": []}}, "mouseout": {"state": {"target": ["0", "1", "2", "2", "7", "1"], "time": [1397, 2115, 2282, 4052, 4520, 5067]}, "edge": {"target": [], "time": []}}}, "displayed_time": "15.57", "trialTime": 16999, "trial_type": "mouselab-mdp", "trial_index": 24, "time_elapsed": 731282, "internal_node_id": "0.0-6.0-1.0-9.0"}}, {"uniqueid": "w20854806:a19390933", "current_trial": 25, "dateTime": 1693481731123, "trialdata": {"revealed_states": [], "clicked_states": ["24"], "num_clicks_accrued": [0, 0, 0, 0, 0, 0, 0, 0, 0, 0, 0, 0, 0], "stateRewards": ["", -2, 2, -4, -4, -59, 88, 62, -3, 69, -15, -34, 1, -2, -5, 7, -54, -20, 78, -16, -74, -53, -21, 2, -4, 2, 13, -8, -44, 26, 9, 72, 4, 17], "withholdReward": false, "trial_id": "mdp_trial_11", "block": "test", "trialIndex": 14, "score": -96.35, "costs": -0.35, "simulationMode": [null, null, null, null, null], "rewards": [1, -2, -5, -16, -74], "path": ["0", "0", "12", "13", "14", "19", "20"], "rt": [7031, 266, 473, 740, 457], "actions": ["right", "right", "right", "down", "right"], "actionTimes": [8902, 9683, 10656, 11907, 12876], "queries": {"click": {"state": {"target": ["24"], "time": [3959]}, "edge": {"target": [], "time": []}}, "mouseover": {"state": {"target": ["1", "4", "3", "10", "28", "24", "0", "12", "0", "0"], "time": [2299, 2372, 2548, 2771, 3300, 3535, 5348, 5615, 6148, 7081]}, "edge": {"target": [], "time": []}}, "mouseout": {"state": {"target": ["0", "1", "4", "3", "10", "28", "24", "0", "12", "0", "0"], "time": [1686, 2315, 2465, 2648, 3284, 3315, 5166, 5581, 5843, 6324, 7251]}, "edge": {"target": [], "time": []}}}, "displayed_time": "15.87", "trialTime": 17387, "trial_type": "mouselab-mdp", "trial_index": 25, "time_elapsed": 749021, "internal_node_id": "0.0-6.0-1.0-10.0"}}, {"uniqueid": "w20854806:a19390933", "current_trial": 26, "dateTime": 1693481748412, "trialdata": {"revealed_states": [], "clicked_states": ["8"], "num_clicks_accrued": [0, 0, 0, 0, 0, 0, 0, 0, 0, 0, 0, 0, 0], "stateRewards": ["", 2, 3, -6, -5, -3, 55, 40, 11, 61, 11, 51, 2, -4, -6, 9, -25, 29, -15, -6, 7, -77, -2, -2, -4, 1, 14, -43, -1, 56, -12, -54, 41, -74], "withholdReward": false, "trial_id": "mdp_trial_12", "block": "test", "trialIndex": 15, "score": 47.45, "costs": -1.55, "simulationMode": [null, null, null, null, null], "rewards": [2, 3, -6, -5, 55], "path": ["0", "0", "1", "2", "3", "4", "6"], "rt": [4028, 193, 177, 768, 270], "actions": ["up", "up", "up", "right", "right"], "actionTimes": [5588, 6281, 6966, 8240, 9024], "queries": {"click": {"state": {"target": ["8"], "time": [2826]}, "edge": {"target": [], "time": []}}, "mouseover": {"state": {"target": ["1", "2", "3", "8", "8"], "time": [1953, 1986, 2022, 2191, 2453]}, "edge": {"target": [], "time": []}}, "mouseout": {"state": {"target": ["0", "23", "1", "2", "3", "8", "8"], "time": [491, 705, 1969, 2005, 2171, 2269, 3823]}, "edge": {"target": [], "time": []}}}, "displayed_time": "15.56", "trialTime": 16897, "trial_type": "mouselab-mdp", "trial_index": 26, "time_elapsed": 766310, "internal_node_id": "0.0-6.0-1.0-11.0"}}, {"uniqueid": "w20854806:a19390933", "current_trial": 27, "dateTime": 1693481767566, "trialdata": {"revealed_states": [], "clicked_states": ["25"], "num_clicks_accrued": [0, 0, 0, 0, 0, 0, 0, 0, 0, 0, 0, 0, 0], "stateRewards": ["", -1, 1, -1, 2, 19, 85, -18, 2, -3, -26, 36, 2, 4, 7, -9, -18, 70, 72, -5, 35, -20, -28, 1, -2, -4, -3, -59, -11, -63, -2, -72, 59, -69], "withholdReward": false, "trial_id": "mdp_trial_13", "block": "test", "trialIndex": 16, "score": 36.05, "costs": -0.95, "simulationMode": [null, null, null, null, null], "rewards": [-1, 1, -1, 2, 36], "path": ["0", "0", "1", "2", "3", "8", "11"], "rt": [4826, 559, 724, 1278, 311], "actions": ["up", "up", "up", "left", "left"], "actionTimes": [8298, 9374, 10607, 12394, 13210], "queries": {"click": {"state": {"target": ["25"], "time": [4926]}, "edge": {"target": [], "time": []}}, "mouseover": {"state": {"target": ["23", "24", "25", "24", "23", "12", "12"], "time": [4423, 4447, 4550, 5798, 5837, 6054, 6549]}, "edge": {"target": [], "time": []}}, "mouseout": {"state": {"target": ["10", "0", "23", "24", "25", "24", "23", "12"], "time": [1596, 4418, 4432, 4486, 5781, 5833, 5886, 6170]}, "edge": {"target": [], "time": []}}}, "displayed_time": "17.47", "trialTime": 18895, "trial_type": "mouselab-mdp", "trial_index": 27, "time_elapsed": 785463, "internal_node_id": "0.0-6.0-1.0-12.0"}}, {"uniqueid": "w20854806:a19390933", "current_trial": 28, "dateTime": 1693481785256, "trialdata": {"revealed_states": [], "clicked_states": [], "num_clicks_accrued": [0, 0, 0, 0, 0, 0, 0, 0, 0, 0, 0, 0, 0], "stateRewards": ["", 1, 4, -8, -13, -13, -87, -77, -10, -44, 54, 42, 2, -3, -4, 12, -9, -80, 52, 9, 84, -2, -65, 1, -4, -5, -6, 8, 80, 32, 13, -59, -5, -13], "withholdReward": false, "trial_id": "mdp_trial_14", "block": "test", "trialIndex": 17, "score": 0, "costs": 0, "simulationMode": [null, null, null, null, null], "rewards": [1, -4, -5, 13, -5], "path": ["0", "0", "23", "24", "25", "30", "32"], "rt": [1989, 247, 292, 1612, 170], "actions": ["left", "left", "left", "down", "down"], "actionTimes": [3809, 4573, 5386, 7505, 8196], "queries": {"click": {"state": {"target": [], "time": []}, "edge": {"target": [], "time": []}}, "mouseover": {"state": {"target": [], "time": []}, "edge": {"target": [], "time": []}}, "mouseout": {"state": {"target": ["12", "0"], "time": [1212, 12593]}, "edge": {"target": [], "time": []}}}, "displayed_time": "15.82", "trialTime": 17413, "trial_type": "mouselab-mdp", "trial_index": 28, "time_elapsed": 803155, "internal_node_id": "0.0-6.0-1.0-13.0"}}, {"uniqueid": "w20854806:a19390933", "current_trial": 29, "dateTime": 1693481801987, "trialdata": {"revealed_states": [], "clicked_states": ["25"], "num_clicks_accrued": [0, 0, 0, 0, 0, 0, 0, 0, 0, 0, 0, 0, 0], "stateRewards": ["", -1, -3, 1, -4, -48, -63, -49, -2, -84, -19, 65, 2, -2, -2, -12, -4, 59, 9, 6, 75, 69, -13, -1, -3, -3, -2, -37, -68, -36, 13, 32, 18, -14], "withholdReward": false, "trial_id": "mdp_trial_15", "block": "test", "trialIndex": 18, "score": -45.95, "costs": -0.95, "simulationMode": [null, null, null, null, null], "rewards": [-1, -3, -3, -2, -36], "path": ["0", "0", "23", "24", "25", "26", "29"], "rt": [5357, 156, 286, 1175, 1707], "actions": ["left", "left", "left", "up", "left"], "actionTimes": [6906, 7568, 8348, 10020, 12236], "queries": {"click": {"state": {"target": ["25"], "time": [3416]}, "edge": {"target": [], "time": []}}, "mouseover": {"state": {"target": ["0", "23", "24", "25", "24"], "time": [2101, 2578, 2776, 3060, 4644]}, "edge": {"target": [], "time": []}}, "mouseout": {"state": {"target": ["0", "0", "23", "24", "25", "24"], "time": [969, 2112, 2731, 2947, 4411, 4683]}, "edge": {"target": [], "time": []}}}, "displayed_time": "15.55", "trialTime": 16449, "trial_type": "mouselab-mdp", "trial_index": 29, "time_elapsed": 819886, "internal_node_id": "0.0-6.0-1.0-14.0"}}, {"uniqueid": "w20854806:a19390933", "current_trial": 30, "dateTime": 1693481820111, "trialdata": {"revealed_states": [], "clicked_states": [], "num_clicks_accrued": [0, 0, 0, 0, 0, 0, 0, 0, 0, 0, 0, 0, 0], "stateRewards": ["", -1, -3, 3, 5, 56, 39, 50, -1, -80, 33, -46, 1, -2, -6, -8, 87, 48, 54, -11, -20, -64, -54, -2, 3, -7, -3, 12, 88, 35, -16, -46, -70, -3], "withholdReward": false, "trial_id": "mdp_trial_16", "block": "test", "trialIndex": 19, "score": -48, "costs": 0, "simulationMode": [null, null, null, null, null], "rewards": [-1, -3, 3, -1, -46], "path": ["0", "0", "1", "2", "3", "8", "11"], "rt": [2180, 837, 215, 1088, 1137], "actions": ["up", "up", "up", "left", "left"], "actionTimes": [4295, 5628, 6355, 7945, 9594], "queries": {"click": {"state": {"target": [], "time": []}, "edge": {"target": [], "time": []}}, "mouseover": {"state": {"target": [], "time": []}, "edge": {"target": [], "time": []}}, "mouseout": {"state": {"target": ["23", "0", "0"], "time": [1223, 1422, 1687]}, "edge": {"target": [], "time": []}}}, "displayed_time": "16.12", "trialTime": 17885, "trial_type": "mouselab-mdp", "trial_index": 30, "time_elapsed": 838010, "internal_node_id": "0.0-6.0-1.0-15.0"}}, {"uniqueid": "w20854806:a19390933", "current_trial": 31, "dateTime": 1693481836406, "trialdata": {"revealed_states": [], "clicked_states": ["14"], "num_clicks_accrued": [0, 0, 0, 0, 0, 0, 0, 0, 0, 0, 0, 0, 0], "stateRewards": ["", 1, -3, -4, -11, -56, 61, -47, -16, -28, -9, 69, -2, -3, -4, -8, 40, -86, 59, -4, 80, 27, 54, -1, 3, -1, 8, 67, 23, 50, 6, 83, -43, -29], "withholdReward": false, "trial_id": "mdp_trial_17", "block": "test", "trialIndex": 20, "score": -73.95, "costs": -0.95, "simulationMode": [null, null, null, null, null], "rewards": [1, -3, -4, -11, -56], "path": ["0", "0", "1", "2", "3", "4", "5"], "rt": [5629, 88, 403, 900, 854], "actions": ["up", "up", "up", "right", "up"], "actionTimes": [6791, 7395, 8310, 9708, 11078], "queries": {"click": {"state": {"target": ["14"], "time": [2374]}, "edge": {"target": [], "time": []}}, "mouseover": {"state": {"target": ["0", "14"], "time": [1473, 1825]}, "edge": {"target": [], "time": []}}, "mouseout": {"state": {"target": ["0", "0", "14"], "time": [990, 1492, 2502]}, "edge": {"target": [], "time": []}}}, "displayed_time": "15.16", "trialTime": 16027, "trial_type": "mouselab-mdp", "trial_index": 31, "time_elapsed": 854303, "internal_node_id": "0.0-6.0-1.0-16.0"}}, {"uniqueid": "w20854806:a19390933", "current_trial": 32, "dateTime": 1693481854542, "trialdata": {"revealed_states": [], "clicked_states": ["2"], "num_clicks_accrued": [0, 0, 0, 0, 0, 0, 0, 0, 0, 0, 0, 0, 0], "stateRewards": ["", 1, 1, -3, 2, 22, -25, -11, -5, 50, 49, 3, 1, -1, 8, 14, -85, -30, 57, -6, -39, -16, 59, -2, -1, 5, 5, 59, -16, 8, 4, 67, 56, -9], "withholdReward": false, "trial_id": "mdp_trial_18", "block": "test", "trialIndex": 21, "score": -3.3499999999999996, "costs": -0.35, "simulationMode": [null, null, null, null, null], "rewards": [-2, -1, 5, 4, -9], "path": ["0", "0", "23", "24", "25", "30", "33"], "rt": [5414, 295, 893, 1128, 982], "actions": ["left", "left", "left", "down", "left"], "actionTimes": [7950, 8753, 10149, 11784, 13288], "queries": {"click": {"state": {"target": ["2"], "time": [5308]}, "edge": {"target": [], "time": []}}, "mouseover": {"state": {"target": ["12", "18", "18", "2"], "time": [3922, 4270, 4370, 4653]}, "edge": {"target": [], "time": []}}, "mouseout": {"state": {"target": ["14", "0", "12", "18", "18", "2", "2"], "time": [1236, 3907, 3937, 4287, 4420, 5471, 6237]}, "edge": {"target": [], "time": []}}}, "displayed_time": "16.54", "trialTime": 17894, "trial_type": "mouselab-mdp", "trial_index": 32, "time_elapsed": 872439, "internal_node_id": "0.0-6.0-1.0-17.0"}}, {"uniqueid": "w20854806:a19390933", "current_trial": 33, "dateTime": 1693481872150, "trialdata": {"revealed_states": [], "clicked_states": [], "num_clicks_accrued": [0, 0, 0, 0, 0, 0, 0, 0, 0, 0, 0, 0, 0], "stateRewards": ["", -1, -1, 4, -16, -75, 81, -51, -7, -84, 73, -30, -2, 1, -3, -16, -77, 33, 14, 1, 45, 87, -66, 2, 2, -5, -7, -19, -17, 79, -3, 8, 49, 47], "withholdReward": false, "trial_id": "mdp_trial_19", "block": "test", "trialIndex": 22, "score": 13, "costs": 0, "simulationMode": [null, null, null, null, null], "rewards": [-2, 1, -3, -16, 33], "path": ["0", "0", "12", "13", "14", "15", "17"], "rt": [2252, 503, 316, 800, 1795], "actions": ["right", "right", "right", "up", "right"], "actionTimes": [4334, 5332, 6144, 7461, 9757], "queries": {"click": {"state": {"target": [], "time": []}, "edge": {"target": [], "time": []}}, "mouseover": {"state": {"target": [], "time": []}, "edge": {"target": [], "time": []}}, "mouseout": {"state": {"target": ["2", "1"], "time": [1090, 1158]}, "edge": {"target": [], "time": []}}}, "displayed_time": "16.08", "trialTime": 17358, "trial_type": "mouselab-mdp", "trial_index": 33, "time_elapsed": 890048, "internal_node_id": "0.0-6.0-1.0-18.0"}}, {"uniqueid": "w20854806:a19390933", "current_trial": 34, "dateTime": 1693481891342, "trialdata": {"revealed_states": [], "clicked_states": [], "num_clicks_accrued": [0, 0, 0, 0, 0, 0, 0, 0, 0, 0, 0, 0, 0], "stateRewards": ["", -1, 3, 1, -11, -22, -36, 19, -5, -70, -52, 50, -2, -4, 4, -2, -41, -83, 29, -2, 22, 10, -6, -2, 3, -2, 14, 54, 44, 77, -9, -65, -37, -40], "withholdReward": false, "trial_id": "mdp_trial_20", "block": "test", "trialIndex": 23, "score": 48, "costs": 0, "simulationMode": [null, null, null, null, null], "rewards": [-1, 3, 1, -5, 50], "path": ["0", "0", "1", "2", "3", "8", "11"], "rt": [8304, 855, 2025, 2040, 301], "actions": ["up", "up", "up", "left", "left"], "actionTimes": [9546, 10916, 13435, 15987, 16798], "queries": {"click": {"state": {"target": [], "time": []}, "edge": {"target": [], "time": []}}, "mouseover": {"state": {"target": ["1", "0", "23", "23", "1", "2", "1"], "time": [1913, 2726, 2891, 3277, 3546, 3863, 5028]}, "edge": {"target": [], "time": []}}, "mouseout": {"state": {"target": ["0", "1", "0", "23", "23", "1", "2", "1"], "time": [1731, 2641, 2741, 2924, 3508, 3574, 5015, 5213]}, "edge": {"target": [], "time": []}}}, "displayed_time": "17.31", "trialTime": 18915, "trial_type": "mouselab-mdp", "trial_index": 34, "time_elapsed": 909240, "internal_node_id": "0.0-6.0-1.0-19.0"}}, {"uniqueid": "w20854806:a19390933", "current_trial": 35, "dateTime": 1693481909402, "trialdata": {"revealed_states": [], "clicked_states": ["14"], "num_clicks_accrued": [0, 0, 0, 0, 0, 0, 0, 0, 0, 0, 0, 0, 0], "stateRewards": ["", -1, 4, -8, 12, 14, 69, -8, 5, -72, -14, 56, -1, -1, -1, 9, 67, 19, 11, -9, -88, -58, 3, 2, -4, -8, 4, 62, 77, -74, 5, -31, 65, 88], "withholdReward": false, "trial_id": "mdp_trial_21", "block": "test", "trialIndex": 24, "score": 20.05, "costs": -0.95, "simulationMode": [null, null, null, null, null], "rewards": [-1, 4, -8, 12, 14], "path": ["0", "0", "1", "2", "3", "4", "5"], "rt": [5575, 835, 336, 557, 650], "actions": ["up", "up", "up", "right", "up"], "actionTimes": [7248, 8583, 9435, 10521, 11685], "queries": {"click": {"state": {"target": ["14"], "time": [3214]}, "edge": {"target": [], "time": []}}, "mouseover": {"state": {"target": ["18", "15", "14", "13", "12"], "time": [2435, 2630, 2730, 4098, 4183]}, "edge": {"target": [], "time": []}}, "mouseout": {"state": {"target": ["0", "18", "15", "14", "13", "12"], "time": [2186, 2596, 2697, 4081, 4114, 17285]}, "edge": {"target": [], "time": []}}}, "displayed_time": "15.67", "trialTime": 17780, "trial_type": "mouselab-mdp", "trial_index": 35, "time_elapsed": 927300, "internal_node_id": "0.0-6.0-1.0-20.0"}}, {"uniqueid": "w20854806:a19390933", "current_trial": 36, "dateTime": 1693481927165, "trialdata": {"revealed_states": [], "clicked_states": ["23"], "num_clicks_accrued": [0, 0, 0, 0, 0, 0, 0, 0, 0, 0, 0, 0, 0], "stateRewards": ["", -1, 3, -5, -2, -13, -9, -34, -7, -81, 32, 35, -2, -2, 1, -14, -32, 81, 7, 4, 82, 56, -8, -1, 3, -8, 6, -24, -24, -53, 2, 38, 61, 54], "withholdReward": false, "trial_id": "mdp_trial_22", "block": "test", "trialIndex": 25, "score": -23.75, "costs": 0.25, "simulationMode": [null, null, null, null, null], "rewards": [-1, 3, -8, 6, -24], "path": ["0", "0", "23", "24", "25", "26", "27"], "rt": [5020, 200, 407, 950, 1511], "actions": ["left", "left", "left", "up", "up"], "actionTimes": [7530, 8249, 9156, 10599, 12627], "queries": {"click": {"state": {"target": ["23"], "time": [5235]}, "edge": {"target": [], "time": []}}, "mouseover": {"state": {"target": ["0", "23"], "time": [3080, 3586]}, "edge": {"target": [], "time": []}}, "mouseout": {"state": {"target": ["4", "1", "0"], "time": [635, 1668, 3450]}, "edge": {"target": [], "time": []}}}, "displayed_time": "16.51", "trialTime": 17310, "trial_type": "mouselab-mdp", "trial_index": 36, "time_elapsed": 945063, "internal_node_id": "0.0-6.0-1.0-21.0"}}, {"uniqueid": "w20854806:a19390933", "current_trial": 37, "dateTime": 1693481944931, "trialdata": {"revealed_states": [], "clicked_states": [], "num_clicks_accrued": [0, 0, 0, 0, 0, 0, 0, 0, 0, 0, 0, 0, 0], "stateRewards": ["", 2, -1, -1, -9, -81, -30, 55, -6, 78, 25, 62, 2, 4, -1, 9, -85, 1, -19, 1, -60, 12, -34, 1, 4, -1, -13, -24, -16, -83, -8, 16, 43, 9], "withholdReward": false, "trial_id": "mdp_trial_23", "block": "test", "trialIndex": 26, "score": 5, "costs": 0, "simulationMode": [null, null, null, null, null], "rewards": [1, 4, -1, -8, 9], "path": ["0", "0", "23", "24", "25", "30", "33"], "rt": [7758, 85, 385, 1831, 786], "actions": ["left", "left", "left", "down", "left"], "actionTimes": [9724, 10329, 11211, 13557, 14863], "queries": {"click": {"state": {"target": [], "time": []}, "edge": {"target": [], "time": []}}, "mouseover": {"state": {"target": ["0", "12", "0", "23"], "time": [4970, 5711, 6709, 7030]}, "edge": {"target": [], "time": []}}, "mouseout": {"state": {"target": ["23", "0", "0", "0", "12", "0"], "time": [1112, 1140, 1541, 4992, 6695, 6741]}, "edge": {"target": [], "time": []}}}, "displayed_time": "15.97", "trialTime": 17472, "trial_type": "mouselab-mdp", "trial_index": 37, "time_elapsed": 962830, "internal_node_id": "0.0-6.0-1.0-22.0"}}, {"uniqueid": "w20854806:a19390933", "current_trial": 38, "dateTime": 1693481962118, "trialdata": {"revealed_states": [], "clicked_states": [], "num_clicks_accrued": [0, 0, 0, 0, 0, 0, 0, 0, 0, 0, 0, 0, 0], "stateRewards": ["", -2, -1, -2, -15, 87, 57, 29, -10, 77, -80, -7, 1, -3, 6, 14, -11, 87, -59, 4, -71, 16, -11, 2, 2, -7, 2, -47, 61, 50, 14, -20, 17, 81], "withholdReward": false, "trial_id": "mdp_trial_24", "block": "test", "trialIndex": 27, "score": 24, "costs": 0, "simulationMode": [null, null, null, null, null], "rewards": [1, -3, 6, 4, 16], "path": ["0", "0", "12", "13", "14", "19", "21"], "rt": [3094, 230, 331, 846, 1242], "actions": ["right", "right", "right", "down", "down"], "actionTimes": [5153, 5894, 6723, 8088, 9851], "queries": {"click": {"state": {"target": [], "time": []}, "edge": {"target": [], "time": []}}, "mouseover": {"state": {"target": [], "time": []}, "edge": {"target": [], "time": []}}, "mouseout": {"state": {"target": ["23"], "time": [1261]}, "edge": {"target": [], "time": []}}}, "displayed_time": "16.06", "trialTime": 16925, "trial_type": "mouselab-mdp", "trial_index": 38, "time_elapsed": 980016, "internal_node_id": "0.0-6.0-1.0-23.0"}}, {"uniqueid": "w20854806:a19390933", "current_trial": 39, "dateTime": 1693481978779, "trialdata": {"revealed_states": [], "clicked_states": [], "num_clicks_accrued": [0, 0, 0, 0, 0, 0, 0, 0, 0, 0, 0, 0, 0], "stateRewards": ["", 2, -4, 1, -12, -59, -53, -74, 16, -88, -66, 66, 1, -2, 8, -9, -14, 22, 25, -1, -39, 47, -14, -1, -1, -2, 1, -4, 52, -26, 15, -7, 46, 43], "withholdReward": false, "trial_id": "mdp_trial_25", "block": "test", "trialIndex": 28, "score": -73, "costs": 0, "simulationMode": [null, null, null, null, null], "rewards": [2, -4, 1, 16, -88], "path": ["0", "0", "1", "2", "3", "8", "9"], "rt": [1696, 285, 361, 881, 932], "actions": ["up", "up", "up", "left", "up"], "actionTimes": [3218, 4002, 4878, 6265, 7717], "queries": {"click": {"state": {"target": [], "time": []}, "edge": {"target": [], "time": []}}, "mouseover": {"state": {"target": [], "time": []}, "edge": {"target": [], "time": []}}, "mouseout": {"state": {"target": [], "time": []}, "edge": {"target": [], "time": []}}}, "displayed_time": "15.54", "trialTime": 16378, "trial_type": "mouselab-mdp", "trial_index": 39, "time_elapsed": 996678, "internal_node_id": "0.0-6.0-1.0-24.0"}}, {"uniqueid": "w20854806:a19390933", "current_trial": 40, "dateTime": 1693481996339, "trialdata": {"revealed_states": [], "clicked_states": ["25"], "num_clicks_accrued": [0, 0, 0, 0, 0, 0, 0, 0, 0, 0, 0, 0, 0], "stateRewards": ["", -2, -1, -4, -15, -14, -67, 32, -3, -59, 63, 31, 2, -1, -7, -15, 71, -66, -27, -3, -54, -39, 72, 2, 1, 1, -13, 77, -40, 35, -9, 35, 75, 57], "withholdReward": false, "trial_id": "mdp_trial_26", "block": "test", "trialIndex": 29, "score": -69.95, "costs": -0.95, "simulationMode": [null, null, null, null, null], "rewards": [-2, -1, -4, -3, -59], "path": ["0", "0", "1", "2", "3", "8", "9"], "rt": [6073, 354, 1004, 1524, 1566], "actions": ["up", "up", "up", "left", "up"], "actionTimes": [7261, 8136, 9637, 11689, 13763], "queries": {"click": {"state": {"target": ["25"], "time": [3875]}, "edge": {"target": [], "time": []}}, "mouseover": {"state": {"target": ["23", "24", "25", "24"], "time": [2764, 2978, 3331, 4753]}, "edge": {"target": [], "time": []}}, "mouseout": {"state": {"target": ["0", "23", "24", "25", "24"], "time": [2729, 2827, 3261, 4729, 4768]}, "edge": {"target": [], "time": []}}}, "displayed_time": "15.19", "trialTime": 17200, "trial_type": "mouselab-mdp", "trial_index": 40, "time_elapsed": 1014238, "internal_node_id": "0.0-6.0-1.0-25.0"}}, {"uniqueid": "w20854806:a19390933", "current_trial": 41, "dateTime": 1693482012994, "trialdata": {"revealed_states": [], "clicked_states": [], "num_clicks_accrued": [0, 0, 0, 0, 0, 0, 0, 0, 0, 0, 0, 0, 0], "stateRewards": ["", 2, 3, 8, 14, 69, -27, 17, 2, -71, -65, -10, 2, -3, 7, 8, 65, -10, 65, -12, 73, -12, 13, -2, -2, 6, 10, -79, -69, -18, 10, -85, 67, 74], "withholdReward": false, "trial_id": "mdp_trial_27", "block": "test", "trialIndex": 30, "score": 86, "costs": 0, "simulationMode": [null, null, null, null, null], "rewards": [-2, -2, 6, 10, 74], "path": ["0", "0", "23", "24", "25", "30", "33"], "rt": [5423, 101, 435, 479, 1124], "actions": ["left", "left", "left", "down", "left"], "actionTimes": [7116, 7726, 8659, 9636, 11264], "queries": {"click": {"state": {"target": [], "time": []}, "edge": {"target": [], "time": []}}, "mouseover": {"state": {"target": ["12", "0", "0", "23", "23", "0"], "time": [3052, 3988, 4209, 4324, 4738, 5955]}, "edge": {"target": [], "time": []}}, "mouseout": {"state": {"target": ["0", "12", "0", "0", "23", "23", "0"], "time": [2921, 3917, 4135, 4255, 4540, 5793, 6212]}, "edge": {"target": [], "time": []}}}, "displayed_time": "15.69", "trialTime": 16262, "trial_type": "mouselab-mdp", "trial_index": 41, "time_elapsed": 1030892, "internal_node_id": "0.0-6.0-1.0-26.0"}}, {"uniqueid": "w20854806:a19390933", "current_trial": 42, "dateTime": 1693482029938, "trialdata": {"revealed_states": [], "clicked_states": [], "num_clicks_accrued": [0, 0, 0, 0, 0, 0, 0, 0, 0, 0, 0, 0, 0], "stateRewards": ["", -2, -1, 3, -3, 71, -58, -21, 7, -10, -75, -37, 2, 4, -1, -12, -79, -29, -48, 3, -41, -10, -30, -1, -2, 1, -15, 13, 66, 22, -1, -42, -86, -55], "withholdReward": false, "trial_id": "mdp_trial_28", "block": "test", "trialIndex": 31, "score": -33, "costs": 0, "simulationMode": [null, null, null, null, null], "rewards": [2, 4, -1, 3, -41], "path": ["0", "0", "12", "13", "14", "19", "20"], "rt": [2453, 252, 680, 1320, 1508], "actions": ["right", "right", "right", "down", "right"], "actionTimes": [4002, 4760, 5955, 7785, 9801], "queries": {"click": {"state": {"target": [], "time": []}, "edge": {"target": [], "time": []}}, "mouseover": {"state": {"target": [], "time": []}, "edge": {"target": [], "time": []}}, "mouseout": {"state": {"target": ["0"], "time": [1370]}, "edge": {"target": [], "time": []}}}, "displayed_time": "15.55", "trialTime": 16662, "trial_type": "mouselab-mdp", "trial_index": 42, "time_elapsed": 1047837, "internal_node_id": "0.0-6.0-1.0-27.0"}}, {"uniqueid": "w20854806:a19390933", "current_trial": 43, "dateTime": 1693482046711, "trialdata": {"revealed_states": [], "clicked_states": [], "num_clicks_accrued": [0, 0, 0, 0, 0, 0, 0, 0, 0, 0, 0, 0, 0], "stateRewards": ["", 2, -1, -1, 7, 11, -40, -22, -2, 69, 37, 8, -2, 4, -8, -12, -2, -72, -3, -12, 17, 63, 12, 1, 3, -7, 6, 25, 61, 61, -9, 28, -17, 27], "withholdReward": false, "trial_id": "mdp_trial_29", "block": "test", "trialIndex": 32, "score": -33, "costs": 0, "simulationMode": [null, null, null, null, null], "rewards": [2, -1, -1, 7, -40], "path": ["0", "0", "1", "2", "3", "4", "6"], "rt": [1303, 220, 445, 2333, 252], "actions": ["up", "up", "up", "right", "right"], "actionTimes": [2436, 3159, 4118, 6972, 7741], "queries": {"click": {"state": {"target": [], "time": []}, "edge": {"target": [], "time": []}}, "mouseover": {"state": {"target": [], "time": []}, "edge": {"target": [], "time": []}}, "mouseout": {"state": {"target": ["0"], "time": [971]}, "edge": {"target": [], "time": []}}}, "displayed_time": "15.14", "trialTime": 16461, "trial_type": "mouselab-mdp", "trial_index": 43, "time_elapsed": 1064608, "internal_node_id": "0.0-6.0-1.0-28.0"}}, {"uniqueid": "w20854806:a19390933", "current_trial": 44, "dateTime": 1693482063200, "trialdata": {"revealed_states": [], "clicked_states": [], "num_clicks_accrued": [0, 0, 0, 0, 0, 0, 0, 0, 0, 0, 0, 0, 0], "stateRewards": ["", -1, -2, -1, -10, -57, 73, -72, -16, 75, -14, -46, -2, -3, -7, -1, -61, -60, 76, -4, 50, 4, 14, 2, 2, -7, 12, -65, -32, 15, -8, -76, -25, -61], "withholdReward": false, "trial_id": "mdp_trial_30", "block": "test", "trialIndex": 33, "score": 55, "costs": 0, "simulationMode": [null, null, null, null, null], "rewards": [-1, -2, -1, -16, 75], "path": ["0", "0", "1", "2", "3", "8", "9"], "rt": [1546, 232, 197, 1009, 1097], "actions": ["up", "up", "up", "left", "up"], "actionTimes": [2870, 3608, 4323, 5852, 7457], "queries": {"click": {"state": {"target": [], "time": []}, "edge": {"target": [], "time": []}}, "mouseover": {"state": {"target": [], "time": []}, "edge": {"target": [], "time": []}}, "mouseout": {"state": {"target": ["0"], "time": [824]}, "edge": {"target": [], "time": []}}}, "displayed_time": "15.33", "trialTime": 16154, "trial_type": "mouselab-mdp", "trial_index": 44, "time_elapsed": 1081097, "internal_node_id": "0.0-6.0-1.0-29.0"}}, {"uniqueid": "w20854806:a19390933", "current_trial": 45, "dateTime": 1693482081419, "trialdata": {"revealed_states": [], "clicked_states": [], "num_clicks_accrued": [0, 0, 0, 0, 0, 0, 0, 0, 0, 0, 0, 0, 0], "stateRewards": ["", 2, 3, -2, -8, -8, -41, 74, 15, -23, -80, 1, 1, 3, 3, -15, -63, -78, 67, 13, 75, -41, 86, 2, -2, 6, -3, -8, -49, 50, -6, 83, 74, 80], "withholdReward": false, "trial_id": "mdp_trial_31", "block": "test", "trialIndex": 34, "score": 80, "costs": 0, "simulationMode": [null, null, null, null, null], "rewards": [2, -2, 6, -6, 80], "path": ["0", "0", "23", "24", "25", "30", "33"], "rt": [1942, 285, 373, 699, 1221], "actions": ["left", "left", "left", "down", "left"], "actionTimes": [4617, 5407, 6296, 7505, 9243], "queries": {"click": {"state": {"target": [], "time": []}, "edge": {"target": [], "time": []}}, "mouseover": {"state": {"target": [], "time": []}, "edge": {"target": [], "time": []}}, "mouseout": {"state": {"target": [], "time": []}, "edge": {"target": [], "time": []}}}, "displayed_time": "16.68", "trialTime": 17922, "trial_type": "mouselab-mdp", "trial_index": 45, "time_elapsed": 1099317, "internal_node_id": "0.0-6.0-1.0-30.0"}}, {"uniqueid": "w20854806:a19390933", "current_trial": 46, "dateTime": 1693482098346, "trialdata": {"revealed_states": [], "clicked_states": [], "num_clicks_accrued": [0, 0, 0, 0, 0, 0, 0, 0, 0, 0, 0, 0, 0], "stateRewards": ["", -2, 2, -1, -6, 22, 6, 6, -5, 70, -42, 65, 1, 3, 5, -6, -67, -9, 3, 14, 7, -62, -13, -2, 4, 1, 16, 42, -21, -52, -8, 32, 53, 81], "withholdReward": false, "trial_id": "mdp_trial_32", "block": "test", "trialIndex": 35, "score": 10, "costs": 0, "simulationMode": [null, null, null, null, null], "rewards": [1, 3, 5, 14, -13], "path": ["0", "0", "12", "13", "14", "19", "22"], "rt": [1368, 302, 241, 630, 418], "actions": ["right", "right", "right", "down", "left"], "actionTimes": [3130, 3923, 4678, 5799, 6738], "queries": {"click": {"state": {"target": [], "time": []}, "edge": {"target": [], "time": []}}, "mouseover": {"state": {"target": [], "time": []}, "edge": {"target": [], "time": []}}, "mouseout": {"state": {"target": [], "time": []}, "edge": {"target": [], "time": []}}}, "displayed_time": "15.76", "trialTime": 16614, "trial_type": "mouselab-mdp", "trial_index": 46, "time_elapsed": 1116245, "internal_node_id": "0.0-6.0-1.0-31.0"}}, {"uniqueid": "w20854806:a19390933", "current_trial": 47, "dateTime": 1693482115220, "trialdata": {"revealed_states": [], "clicked_states": [], "num_clicks_accrued": [0, 0, 0, 0, 0, 0, 0, 0, 0, 0, 0, 0, 0], "stateRewards": ["", 1, 3, -2, 15, 51, 15, -19, 11, 67, -45, -73, 2, 4, -2, -13, 36, 9, -28, 10, -30, 31, 16, 1, 2, -1, -16, 14, -22, 36, -1, 88, -5, 45], "withholdReward": false, "trial_id": "mdp_trial_33", "block": "test", "trialIndex": 36, "score": -36, "costs": 0, "simulationMode": [null, null, null, null, null], "rewards": [1, 2, -1, -16, -22], "path": ["0", "0", "23", "24", "25", "26", "28"], "rt": [4158, 371, 359, 449, 428], "actions": ["left", "left", "left", "up", "right"], "actionTimes": [5998, 6871, 7718, 8659, 9605], "queries": {"click": {"state": {"target": [], "time": []}, "edge": {"target": [], "time": []}}, "mouseover": {"state": {"target": [], "time": []}, "edge": {"target": [], "time": []}}, "mouseout": {"state": {"target": [], "time": []}, "edge": {"target": [], "time": []}}}, "displayed_time": "15.84", "trialTime": 16508, "trial_type": "mouselab-mdp", "trial_index": 47, "time_elapsed": 1133118, "internal_node_id": "0.0-6.0-1.0-32.0"}}, {"uniqueid": "w20854806:a19390933", "current_trial": 48, "dateTime": 1693482131556, "trialdata": {"revealed_states": [], "clicked_states": [], "num_clicks_accrued": [0, 0, 0, 0, 0, 0, 0, 0, 0, 0, 0, 0, 0], "stateRewards": ["", 1, 4, 5, -5, 58, -80, 75, 6, 25, -39, 46, 2, -2, 4, 2, 59, 31, -22, -12, -61, 15, 72, 1, -2, -7, 8, 77, 76, -23, -7, 71, -15, -3], "withholdReward": false, "trial_id": "mdp_trial_34", "block": "test", "trialIndex": 37, "score": 80, "costs": 0, "simulationMode": [null, null, null, null, null], "rewards": [1, 4, 5, -5, 75], "path": ["0", "0", "1", "2", "3", "4", "7"], "rt": [3512, 308, 375, 717, 379], "actions": ["up", "up", "up", "right", "down"], "actionTimes": [4941, 5761, 6646, 7872, 8750], "queries": {"click": {"state": {"target": [], "time": []}, "edge": {"target": [], "time": []}}, "mouseover": {"state": {"target": [], "time": []}, "edge": {"target": [], "time": []}}, "mouseout": {"state": {"target": [], "time": []}, "edge": {"target": [], "time": []}}}, "displayed_time": "15.43", "trialTime": 16021, "trial_type": "mouselab-mdp", "trial_index": 48, "time_elapsed": 1149454, "internal_node_id": "0.0-6.0-1.0-33.0"}}, {"uniqueid": "w20854806:a19390933", "current_trial": 49, "dateTime": 1693482149604, "trialdata": {"revealed_states": [], "clicked_states": [], "num_clicks_accrued": [0, 0, 0, 0, 0, 0, 0, 0, 0, 0, 0, 0, 0], "stateRewards": ["", 1, -1, 1, -14, -10, 67, -28, -11, 72, 40, -65, -1, 1, 1, -2, 8, -55, 34, -10, 61, 33, -15, 2, -4, 7, 4, -75, 63, -21, -16, 61, 19, 21], "withholdReward": false, "trial_id": "mdp_trial_35", "block": "test", "trialIndex": 38, "score": 30, "costs": 0, "simulationMode": [null, null, null, null, null], "rewards": [1, -1, 1, -11, 40], "path": ["0", "0", "1", "2", "3", "8", "10"], "rt": [3425, 254, 445, 515, 1106], "actions": ["up", "up", "up", "left", "down"], "actionTimes": [5963, 6738, 7702, 8714, 10341], "queries": {"click": {"state": {"target": [], "time": []}, "edge": {"target": [], "time": []}}, "mouseover": {"state": {"target": [], "time": []}, "edge": {"target": [], "time": []}}, "mouseout": {"state": {"target": [], "time": []}, "edge": {"target": [], "time": []}}}, "displayed_time": "16.54", "trialTime": 17716, "trial_type": "mouselab-mdp", "trial_index": 49, "time_elapsed": 1167503, "internal_node_id": "0.0-6.0-1.0-34.0"}}, {"uniqueid": "w20854806:a19390933", "current_trial": 50, "dateTime": 1693482167179, "trialdata": {"revealed_states": [], "clicked_states": [], "num_clicks_accrued": [0, 0, 0, 0, 0, 0, 0, 0, 0, 0, 0, 0, 0], "stateRewards": ["", 2, 4, 7, -6, -76, -81, 2, 5, -66, -3, 36, -2, -4, 6, -2, -69, 4, -49, -6, 67, 38, -67, 2, 1, 1, 6, -68, -21, 52, -16, -16, 6, -70], "withholdReward": false, "trial_id": "mdp_trial_36", "block": "test", "trialIndex": 39, "score": -73, "costs": 0, "simulationMode": [null, null, null, null, null], "rewards": [-2, -4, 6, -6, -67], "path": ["0", "0", "12", "13", "14", "19", "22"], "rt": [2593, 35, 195, 691, 966], "actions": ["right", "right", "right", "down", "left"], "actionTimes": [4860, 5408, 6135, 7317, 8774], "queries": {"click": {"state": {"target": [], "time": []}, "edge": {"target": [], "time": []}}, "mouseover": {"state": {"target": [], "time": []}, "edge": {"target": [], "time": []}}, "mouseout": {"state": {"target": [], "time": []}, "edge": {"target": [], "time": []}}}, "displayed_time": "16.27", "trialTime": 17249, "trial_type": "mouselab-mdp", "trial_index": 50, "time_elapsed": 1185077, "internal_node_id": "0.0-6.0-1.0-35.0"}}, {"uniqueid": "w20854806:a19390933", "current_trial": 51, "dateTime": 1693482183597, "trialdata": {"revealed_states": [], "clicked_states": [], "num_clicks_accrued": [0, 0, 0, 0, 0, 0, 0, 0, 0, 0, 0, 0, 0], "stateRewards": ["", 1, 1, -2, 7, -31, -6, 76, 1, -36, -16, -53, 2, 1, 7, 13, -47, -10, 47, -7, 72, 46, -56, -2, -2, -2, 11, -80, 44, 38, 16, 67, 85, -78], "withholdReward": false, "trial_id": "mdp_trial_37", "block": "test", "trialIndex": 40, "score": -68, "costs": 0, "simulationMode": [null, null, null, null, null], "rewards": [-2, -2, -2, 16, -78], "path": ["0", "0", "23", "24", "25", "30", "33"], "rt": [4694, 331, 362, 1615, 1307], "actions": ["left", "left", "left", "down", "left"], "actionTimes": [5710, 6546, 7416, 9531, 11355], "queries": {"click": {"state": {"target": [], "time": []}, "edge": {"target": [], "time": []}}, "mouseover": {"state": {"target": [], "time": []}, "edge": {"target": [], "time": []}}, "mouseout": {"state": {"target": [], "time": []}, "edge": {"target": [], "time": []}}}, "displayed_time": "15.02", "trialTime": 15942, "trial_type": "mouselab-mdp", "trial_index": 51, "time_elapsed": 1201496, "internal_node_id": "0.0-6.0-1.0-36.0"}}, {"uniqueid": "w20854806:a19390933", "current_trial": 52, "dateTime": 1693482201029, "trialdata": {"revealed_states": [], "clicked_states": [], "num_clicks_accrued": [0, 0, 0, 0, 0, 0, 0, 0, 0, 0, 0, 0, 0], "stateRewards": ["", -1, 1, -2, 5, 73, 15, 61, 8, 7, 38, 76, 2, 2, -4, -6, -6, -26, 43, -5, -45, -85, -35, -2, 1, -4, 15, -10, 69, 72, -11, 84, -49, -38], "withholdReward": false, "trial_id": "mdp_trial_38", "block": "test", "trialIndex": 41, "score": 82, "costs": 0, "simulationMode": [null, null, null, null, null], "rewards": [-2, 1, -4, 15, 72], "path": ["0", "0", "23", "24", "25", "26", "29"], "rt": [2356, 310, 347, 602, 1254], "actions": ["left", "left", "left", "up", "left"], "actionTimes": [4506, 5335, 6173, 7277, 9047], "queries": {"click": {"state": {"target": [], "time": []}, "edge": {"target": [], "time": []}}, "mouseover": {"state": {"target": [], "time": []}, "edge": {"target": [], "time": []}}, "mouseout": {"state": {"target": [], "time": []}, "edge": {"target": [], "time": []}}}, "displayed_time": "16.15", "trialTime": 17000, "trial_type": "mouselab-mdp", "trial_index": 52, "time_elapsed": 1218927, "internal_node_id": "0.0-6.0-1.0-37.0"}}, {"uniqueid": "w20854806:a19390933", "current_trial": 53, "dateTime": 1693482218066, "trialdata": {"revealed_states": [], "clicked_states": [], "num_clicks_accrued": [0, 0, 0, 0, 0, 0, 0, 0, 0, 0, 0, 0, 0], "stateRewards": ["", -1, -2, -8, 8, -27, -82, 19, -14, -62, 4, 1, -2, 2, 6, 10, 73, -51, -2, 2, 73, -48, 54, -1, 2, -4, 11, -25, 47, 86, 15, 33, 43, -42], "withholdReward": false, "trial_id": "mdp_trial_39", "block": "test", "trialIndex": 42, "score": -30, "costs": 0, "simulationMode": [null, null, null, null, null], "rewards": [-1, -2, -8, 8, -27], "path": ["0", "0", "1", "2", "3", "4", "5"], "rt": [1798, 633, 692, 1604, 916], "actions": ["up", "up", "up", "right", "up"], "actionTimes": [3942, 5091, 6299, 8413, 9854], "queries": {"click": {"state": {"target": [], "time": []}, "edge": {"target": [], "time": []}}, "mouseover": {"state": {"target": [], "time": []}, "edge": {"target": [], "time": []}}, "mouseout": {"state": {"target": [], "time": []}, "edge": {"target": [], "time": []}}}, "displayed_time": "16.15", "trialTime": 16719, "trial_type": "mouselab-mdp", "trial_index": 53, "time_elapsed": 1235964, "internal_node_id": "0.0-6.0-1.0-38.0"}}, {"uniqueid": "w20854806:a19390933", "current_trial": 54, "dateTime": 1693482235631, "trialdata": {"revealed_states": [], "clicked_states": [], "num_clicks_accrued": [0, 0, 0, 0, 0, 0, 0, 0, 0, 0, 0, 0, 0], "stateRewards": ["", -1, -4, -6, -15, 21, -67, -63, 9, 51, 69, -14, -1, 3, 8, -8, 39, 72, 63, 15, 19, 47, 15, 1, 4, 5, 16, -18, 34, 35, -14, -80, 40, 1], "withholdReward": false, "trial_id": "mdp_trial_40", "block": "test", "trialIndex": 43, "score": -16, "costs": 0, "simulationMode": [null, null, null, null, null], "rewards": [-1, -4, -6, 9, -14], "path": ["0", "0", "1", "2", "3", "8", "11"], "rt": [3480, 374, 457, 1041, 1004], "actions": ["up", "up", "up", "left", "left"], "actionTimes": [4949, 5839, 6790, 8340, 9837], "queries": {"click": {"state": {"target": [], "time": []}, "edge": {"target": [], "time": []}}, "mouseover": {"state": {"target": [], "time": []}, "edge": {"target": [], "time": []}}, "mouseout": {"state": {"target": [], "time": []}, "edge": {"target": [], "time": []}}}, "displayed_time": "15.47", "trialTime": 17193, "trial_type": "mouselab-mdp", "trial_index": 54, "time_elapsed": 1253530, "internal_node_id": "0.0-6.0-1.0-39.0"}}, {"uniqueid": "w20854806:a19390933", "current_trial": 55, "dateTime": 1693482279925, "trialdata": {"rt": 44283, "response": {"Q0": "$-2 to $2", "Q1": "$-32 to $32", "Q2": "$-32 to $32", "Q3": "The cost for clicking on nodes varied between nodes.", "Q4": "Neither motivated nor unmotivated"}, "question_order": [0, 1, 2, 3, 4], "trial_id": "final_quiz_control", "trial_type": "survey-multi-choice", "trial_index": 55, "time_elapsed": 1297824, "internal_node_id": "0.0-6.0-2.0"}}, {"uniqueid": "w20854806:a19390933", "current_trial": 56, "dateTime": 1693482332825, "trialdata": {"rt": 52865, "response": {"Q0": "I tried different nodes for each round", "Q1": "I tried to go to the inner nodes more than the outer ones", "Q2": "It was difficult because the cost changed all the time"}, "trial_id": "self_report_control", "trial_type": "survey-text", "trial_index": 56, "time_elapsed": 1350724, "internal_node_id": "0.0-6.0-3.0"}}, {"uniqueid": "w20854806:a19390933", "current_trial": 57, "dateTime": 1693482385311, "trialdata": {"rt": 52469, "response": {"Q0": "Neither disagree nor agree", "Q1": "Disagree", "Q2": "Agree", "Q3": "Agree", "Q4": "Neither disagree nor agree", "Q5": "Disagree", "Q6": "Agree"}, "question_order": [0, 1, 2, 3, 4, 5, 6], "trial_id": "self_report_2", "trial_type": "survey-multi-choice", "trial_index": 57, "time_elapsed": 1403210, "internal_node_id": "0.0-6.0-4.0"}}, {"uniqueid": "w20854806:a19390933", "current_trial": 58, "dateTime": 1693482408639, "trialdata": {"rt": 23321, "response": {"gender": "female", "age": "-1", "colorblind": "0", "effort": "1"}, "trial_type": "survey-html-form", "trial_index": 58, "time_elapsed": 1426538, "internal_node_id": "0.0-6.0-5.0"}}, {"uniqueid": "w20854806:a19390933", "current_trial": 59, "dateTime": 1693482456059, "trialdata": {"rt": 47416, "response": {"Q0": "not really i found it difficult to click on nodes to see the value first", "Q1": "no i have never done this exercise before", "Q2": "none"}, "trial_type": "survey-text", "trial_index": 59, "time_elapsed": 1473958, "internal_node_id": "0.0-6.0-6.0"}}, {"uniqueid": "w20854806:a19390933", "current_trial": 60, "dateTime": 1693482464728, "trialdata": {"rt": 8639, "stimulus": "<h1>Completion Code Instructions (1/2)</h1>\n<br><br><br><br>\nYou have reached the end of the experiment! The completion code consists of two parts: (1) a code with 2 characters (2) a code with 6 characters. On this page, you will receive the second part of the code. The first part of the completion code will be on the next page.\n<br><br>\nThe second part of your completion code is: <b>EWEK22</b>\n<br><br>\nPlease note this down. Then, press 'Finish HIT' in order to find the first part of your completion code. Once the data has been saved, you will receive this code either in this window or in the original browser window where you started the experiment.\n", "response": 0, "trial_type": "html-button-response", "trial_index": 60, "time_elapsed": 1482626, "internal_node_id": "0.0-6.0-7.0"}}, {"uniqueid": "w20854806:a19390933", "current_trial": 61, "dateTime": 1693482465731, "trialdata": {"success": true, "trial_type": "fullscreen", "trial_index": 61, "time_elapsed": 1483630, "internal_node_id": "0.0-7.0"}}], "questiondata": {"params": {"CODE": "C6DMOQA6", "MIN_TIME": 14, "inspectCost": 1, "startTime": "Thu Aug 31 2023 13:22:58 GMT+0200 (South Africa Standard Time)", "bonusRate": 0.002, "variance": "1_2_4_8_44", "branching": "31123"}, "final_score": -494.25}, "eventdata": [{"eventtype": "initialized", "value": null, "timestamp": 1693480977654, "interval": 0}, {"eventtype": "window_resize", "value": [1028, 744], "timestamp": 1693480977654, "interval": 0}, {"eventtype": "window_resize", "value": [1028, 744], "timestamp": 1693480978390, "interval": 736}, {"eventtype": "focus", "value": "off", "timestamp": 1693480990652, "interval": 12262}, {"eventtype": "focus", "value": "on", "timestamp": 1693481002038, "interval": 11386}, {"eventtype": "window_resize", "value": [1536, 864], "timestamp": 1693481004262, "interval": 2224}, {"eventtype": "focus", "value": "off", "timestamp": 1693481377395, "interval": 373133}, {"eventtype": "focus", "value": "on", "timestamp": 1693481377396, "interval": 1}, {"eventtype": "window_resize", "value": [1028, 744], "timestamp": 1693481377617, "interval": 221}, {"eventtype": "window_resize", "value": [1536, 864], "timestamp": 1693481380264, "interval": 2647}, {"eventtype": "window_resize", "value": [1028, 744], "timestamp": 1693482465035, "interval": 1084771}], "useragent": "Mozilla/5.0 (Windows NT 10.0; Win64; x64) AppleWebKit/537.36 (KHTML, like Gecko) Chrome/116.0.0.0 Safari/537.36", "mode": "live", "id": "w20854806:a19390933", "status": "user data saved", "Beginhit": "2023-08-31 11:22:52.11008", "Beginexp": "2023-08-31 11:23:25.532711", "Endhit": "2023-08-31 11:47:55.468176", "psiturkStatus": 3, "browser": "<redacted>", "platform": "windows", "language": "en-US", "excludeReason": "invalidClickStrats"}