{"condition": 1, "counterbalance": 0, "assignmentId": "a80658623", "workerId": "w35373844", "hitId": "h29369231", "currenttrial": 56, "bonus": 0, "data": [{"uniqueid": "w35373844:a80658623", "current_trial": 0, "dateTime": 1691142066303, "trialdata": {"success": true, "trial_type": "fullscreen", "trial_index": 0, "time_elapsed": 8195, "internal_node_id": "0.0-0.0"}}, {"uniqueid": "w35373844:a80658623", "current_trial": 1, "dateTime": 1691142083750, "trialdata": {"view_history": [{"page_index": 0, "viewing_time": 17435}], "rt": 17436, "trial_id": "exp_instructions_misaligned", "trial_type": "instructions", "trial_index": 1, "time_elapsed": 25642, "internal_node_id": "0.0-1.0"}}, {"uniqueid": "w35373844:a80658623", "current_trial": 2, "dateTime": 1691142087716, "trialdata": {"success": true, "trial_type": "fullscreen", "trial_index": 2, "time_elapsed": 29608, "internal_node_id": "0.0-2.0-0.0"}}, {"uniqueid": "w35373844:a80658623", "current_trial": 3, "dateTime": 1691142319761, "trialdata": {"view_history": [{"page_index": 0, "viewing_time": 57367}, {"page_index": 1, "viewing_time": 100327}, {"page_index": 2, "viewing_time": 34948}, {"page_index": 3, "viewing_time": 39398}], "rt": 232040, "trial_id": "mouselab_instructions_1_misaligned", "trial_type": "instructions", "trial_index": 3, "time_elapsed": 261653, "internal_node_id": "0.0-2.0-1.0"}}, {"uniqueid": "w35373844:a80658623", "current_trial": 4, "dateTime": 1691142347216, "trialdata": {"revealed_states": [], "clicked_states": [], "num_clicks_accrued": [0, 0, 0, 0, 0, 0, 0, 0, 0, 0, 0, 0, 0], "stateRewards": ["", -10, -10, -10, 10, -10, 10, 10, 10, -10, 10, 10, -10, -10, 10, -10, 10, 10, 10, -10, -10, -10, 10, 10, -10, -10, -10, -10, -10, 10, 10, -10, -10, 10], "withholdReward": false, "trial_id": "practice_1", "block": "test", "trialIndex": 0, "score": -26.5, "costs": 0, "simulationMode": [null, null, null, null, null], "rewards": [10, -10, -10, -10, -10], "path": ["0", "0", "23", "24", "25", "26", "27"], "rt": [7663, 1536, 229, 293, 148], "actions": ["left", "left", "left", "up", "up"], "actionTimes": [10078, 12137, 12889, 13704, 14376], "queries": {"click": {"state": {"target": [], "time": []}, "edge": {"target": [], "time": []}}, "mouseover": {"state": {"target": [], "time": []}, "edge": {"target": [], "time": []}}, "mouseout": {"state": {"target": ["0", "22", "19"], "time": [3771, 22906, 22940]}, "edge": {"target": [], "time": []}}}, "displayed_time": "14.89", "trialTime": 25909, "trial_type": "mouselab-mdp", "trial_index": 4, "time_elapsed": 289107, "internal_node_id": "0.0-2.0-2.0-0.0"}}, {"uniqueid": "w35373844:a80658623", "current_trial": 5, "dateTime": 1691142371980, "trialdata": {"revealed_states": [], "clicked_states": [], "num_clicks_accrued": [0, 0, 0, 0, 0, 0, 0, 0, 0, 0, 0, 0, 0], "stateRewards": ["", -10, 10, -10, 10, -10, -10, -10, 10, -10, 10, -10, 10, -10, -10, -10, 10, -10, 10, 10, 10, 10, 10, 10, -10, 10, -10, -10, 10, 10, -10, 10, 10, -10], "withholdReward": false, "trial_id": "practice_2", "block": "test", "trialIndex": 1, "score": -6.5, "costs": 0, "simulationMode": [null, null, null, null, null], "rewards": [-10, 10, -10, 10, -10], "path": ["0", "0", "1", "2", "3", "4", "6"], "rt": [4814, 491, 3427, 113, 145], "actions": ["up", "up", "up", "right", "right"], "actionTimes": [10458, 11489, 15470, 16100, 16763], "queries": {"click": {"state": {"target": [], "time": []}, "edge": {"target": [], "time": []}}, "mouseover": {"state": {"target": [], "time": []}, "edge": {"target": [], "time": []}}, "mouseout": {"state": {"target": ["21", "0", "0"], "time": [3227, 3344, 23303]}, "edge": {"target": [], "time": []}}}, "displayed_time": "17.30", "trialTime": 23947, "trial_type": "mouselab-mdp", "trial_index": 5, "time_elapsed": 313871, "internal_node_id": "0.0-2.0-2.0-1.0"}}, {"uniqueid": "w35373844:a80658623", "current_trial": 6, "dateTime": 1691142445352, "trialdata": {"view_history": [{"page_index": 0, "viewing_time": 34041}, {"page_index": 1, "viewing_time": 39324}], "rt": 73366, "trial_id": "mouselab_instructions_2_misaligned", "trial_type": "instructions", "trial_index": 6, "time_elapsed": 387243, "internal_node_id": "0.0-2.0-3.0"}}, {"uniqueid": "w35373844:a80658623", "current_trial": 7, "dateTime": 1691142486856, "trialdata": {"rt": 41247, "response": {"Q0": "The cost for clicking on nodes may vary between nodes.", "Q1": "The better I perform the higher my bonus will be.", "Q2": "No, the amount of cash at each node of the web may be different each time.", "Q3": "To get the highest total score.", "Q4": "Only before moving the spider.", "Q5": "3 seconds"}, "question_order": [0, 1, 2, 3, 4, 5], "correct": {"Q0": "The cost for clicking on nodes may vary between nodes.", "Q1": "The better I perform the higher my bonus will be.", "Q2": "No, the amount of cash at each node of the web may be different each time.", "Q3": "To get the highest total score.", "Q4": "Only before moving the spider.", "Q5": "3 seconds"}, "trial_id": "mouselab_quiz_misaligned", "trial_type": "survey-multi-choice", "trial_index": 7, "time_elapsed": 428748, "internal_node_id": "0.0-2.0-4.0"}}, {"uniqueid": "w35373844:a80658623", "current_trial": 8, "dateTime": 1691142506454, "trialdata": {"rt": 19528, "stimulus": "\n<h1> Get ready to start the game! </h1>\n\nThank you for reading the instructions. Get ready start with the 40 rounds of this game.\n<br><br>\nIf you need to take a break, feel free to take one after the end of a round, before continuing to the next one.\n<br><br>\nRemember, the more money the spider gets, the bigger your bonus will be!\n<br><br>\n<div style='text-align: center;'>Press <code>space</code> to begin.</div>\n\n<br><br>\n(If, at any point, the <code>space</code> key does not take you to the next page, click once on the text and try again.)", "response": " ", "trial_id": "mdp_ready", "trial_type": "html-keyboard-response", "trial_index": 8, "time_elapsed": 448346, "internal_node_id": "0.0-4.0-0.0"}}, {"uniqueid": "w35373844:a80658623", "current_trial": 9, "dateTime": 1691142528810, "trialdata": {"revealed_states": [], "clicked_states": [], "num_clicks_accrued": [0, 0, 0, 0, 0, 0, 0, 0, 0, 0, 0, 0, 0], "stateRewards": ["", 2, -3, -2, 14, -4, 85, 46, 15, -28, 41, 31, -1, -1, -1, 5, 62, 79, 57, 12, -73, -64, 86, -1, 1, -3, -5, 68, 11, -32, 8, -80, -21, -56], "withholdReward": false, "trial_id": "mdp_trial_1", "block": "test", "trialIndex": 2, "score": -55, "costs": 0, "simulationMode": [null, null, null, null, null], "rewards": [-1, -1, -1, 12, -64], "path": ["0", "0", "12", "13", "14", "19", "21"], "rt": [3013, 1105, 828, 1769, 70], "actions": ["right", "right", "right", "down", "down"], "actionTimes": [7393, 9019, 10372, 12656, 13239], "queries": {"click": {"state": {"target": [], "time": []}, "edge": {"target": [], "time": []}}, "mouseover": {"state": {"target": [], "time": []}, "edge": {"target": [], "time": []}}, "mouseout": {"state": {"target": ["0"], "time": [20199]}, "edge": {"target": [], "time": []}}}, "displayed_time": "18.38", "trialTime": 21361, "trial_type": "mouselab-mdp", "trial_index": 9, "time_elapsed": 470699, "internal_node_id": "0.0-4.0-1.0-0.0"}}, {"uniqueid": "w35373844:a80658623", "current_trial": 10, "dateTime": 1691142550919, "trialdata": {"revealed_states": [], "clicked_states": [], "num_clicks_accrued": [0, 0, 0, 0, 0, 0, 0, 0, 0, 0, 0, 0, 0], "stateRewards": ["", -2, 2, 3, -7, 76, 63, 21, 15, 35, -8, -44, 1, 1, -2, -12, 23, 24, 76, -9, 46, 66, -49, -2, -1, 7, 12, 40, -71, -45, -6, 38, -49, 46], "withholdReward": false, "trial_id": "mdp_trial_2", "block": "test", "trialIndex": 3, "score": 53, "costs": 0, "simulationMode": [null, null, null, null, null], "rewards": [-2, 2, 3, 15, 35], "path": ["0", "0", "1", "2", "3", "8", "9"], "rt": [2260, 795, 2245, 892, 2327], "actions": ["up", "up", "up", "left", "up"], "actionTimes": [4390, 5708, 8473, 9906, 12761], "queries": {"click": {"state": {"target": [], "time": []}, "edge": {"target": [], "time": []}}, "mouseover": {"state": {"target": [], "time": []}, "edge": {"target": [], "time": []}}, "mouseout": {"state": {"target": ["0"], "time": [19512]}, "edge": {"target": [], "time": []}}}, "displayed_time": "16.13", "trialTime": 21196, "trial_type": "mouselab-mdp", "trial_index": 10, "time_elapsed": 492808, "internal_node_id": "0.0-4.0-1.0-1.0"}}, {"uniqueid": "w35373844:a80658623", "current_trial": 11, "dateTime": 1691142575898, "trialdata": {"revealed_states": [], "clicked_states": [], "num_clicks_accrued": [0, 0, 0, 0, 0, 0, 0, 0, 0, 0, 0, 0, 0], "stateRewards": ["", 2, -3, -5, 5, 11, -9, -33, 6, 67, 6, -30, -1, -2, -6, 13, 55, 13, 72, -14, 75, 21, -66, -2, -4, 6, 15, -1, -35, 60, 2, 51, -73, 12], "withholdReward": false, "trial_id": "mdp_trial_3", "block": "test", "trialIndex": 4, "score": -34, "costs": 0, "simulationMode": [null, null, null, null, null], "rewards": [2, -3, -5, 5, -33], "path": ["0", "0", "1", "2", "3", "4", "7"], "rt": [3232, 134, 2045, 3975, 679], "actions": ["up", "up", "up", "right", "down"], "actionTimes": [5957, 6617, 9176, 13695, 14894], "queries": {"click": {"state": {"target": [], "time": []}, "edge": {"target": [], "time": []}}, "mouseover": {"state": {"target": [], "time": []}, "edge": {"target": [], "time": []}}, "mouseout": {"state": {"target": ["0"], "time": [1291]}, "edge": {"target": [], "time": []}}}, "displayed_time": "16.73", "trialTime": 24148, "trial_type": "mouselab-mdp", "trial_index": 11, "time_elapsed": 517789, "internal_node_id": "0.0-4.0-1.0-2.0"}}, {"uniqueid": "w35373844:a80658623", "current_trial": 12, "dateTime": 1691142605494, "trialdata": {"revealed_states": [], "clicked_states": [], "num_clicks_accrued": [0, 0, 0, 0, 0, 0, 0, 0, 0, 0, 0, 0, 0], "stateRewards": ["", -2, -3, 1, -7, 39, -67, 16, 5, -20, 73, 66, -1, 4, 5, -3, 23, -68, -87, -8, 3, -3, 17, 1, -4, -2, -13, -32, 34, 61, -5, -11, -18, 12], "withholdReward": false, "trial_id": "mdp_trial_4", "block": "test", "trialIndex": 5, "score": 74, "costs": 0, "simulationMode": [null, null, null, null, null], "rewards": [-2, -3, 1, 5, 73], "path": ["0", "0", "1", "2", "3", "8", "10"], "rt": [2615, 2199, 226, 834, 303], "actions": ["up", "up", "up", "left", "down"], "actionTimes": [8146, 10885, 11660, 13008, 13827], "queries": {"click": {"state": {"target": [], "time": []}, "edge": {"target": [], "time": []}}, "mouseover": {"state": {"target": [], "time": []}, "edge": {"target": [], "time": []}}, "mouseout": {"state": {"target": [], "time": []}, "edge": {"target": [], "time": []}}}, "displayed_time": "19.53", "trialTime": 28679, "trial_type": "mouselab-mdp", "trial_index": 12, "time_elapsed": 547384, "internal_node_id": "0.0-4.0-1.0-3.0"}}, {"uniqueid": "w35373844:a80658623", "current_trial": 13, "dateTime": 1691142625087, "trialdata": {"revealed_states": [], "clicked_states": [], "num_clicks_accrued": [0, 0, 0, 0, 0, 0, 0, 0, 0, 0, 0, 0, 0], "stateRewards": ["", -2, 3, 8, -9, 59, 41, -50, -1, 82, 66, 33, 2, -2, 7, 8, 1, -38, 12, -16, 24, -37, 67, 1, 4, -2, 5, 35, -83, 28, 8, -27, 69, -64], "withholdReward": false, "trial_id": "mdp_trial_5", "block": "test", "trialIndex": 6, "score": 80, "costs": 0, "simulationMode": [null, null, null, null, null], "rewards": [1, 4, -2, 8, 69], "path": ["0", "0", "23", "24", "25", "30", "32"], "rt": [2879, 2066, 294, 1023, 1896], "actions": ["left", "left", "left", "down", "down"], "actionTimes": [4739, 7319, 8129, 9673, 12080], "queries": {"click": {"state": {"target": [], "time": []}, "edge": {"target": [], "time": []}}, "mouseover": {"state": {"target": [], "time": []}, "edge": {"target": [], "time": []}}, "mouseout": {"state": {"target": [], "time": []}, "edge": {"target": [], "time": []}}}, "displayed_time": "15.86", "trialTime": 18680, "trial_type": "mouselab-mdp", "trial_index": 13, "time_elapsed": 566977, "internal_node_id": "0.0-4.0-1.0-4.0"}}, {"uniqueid": "w35373844:a80658623", "current_trial": 14, "dateTime": 1691142648016, "trialdata": {"revealed_states": [], "clicked_states": [], "num_clicks_accrued": [0, 0, 0, 0, 0, 0, 0, 0, 0, 0, 0, 0, 0], "stateRewards": ["", -2, 2, -4, -4, -59, 88, 62, -3, 69, -15, -34, 1, -2, -5, 7, -54, -20, 78, -16, -74, -53, -21, 2, -4, 2, 13, -8, -44, 26, 9, 72, 4, 17], "withholdReward": false, "trial_id": "mdp_trial_6", "block": "test", "trialIndex": 7, "score": -75, "costs": 0, "simulationMode": [null, null, null, null, null], "rewards": [1, -2, -5, -16, -53], "path": ["0", "0", "12", "13", "14", "19", "21"], "rt": [3105, 315, 267, 394, 141], "actions": ["right", "right", "right", "down", "down"], "actionTimes": [5812, 6684, 7474, 8386, 9049], "queries": {"click": {"state": {"target": [], "time": []}, "edge": {"target": [], "time": []}}, "mouseover": {"state": {"target": [], "time": []}, "edge": {"target": [], "time": []}}, "mouseout": {"state": {"target": [], "time": []}, "edge": {"target": [], "time": []}}}, "displayed_time": "16.71", "trialTime": 21870, "trial_type": "mouselab-mdp", "trial_index": 14, "time_elapsed": 589907, "internal_node_id": "0.0-4.0-1.0-5.0"}}, {"uniqueid": "w35373844:a80658623", "current_trial": 15, "dateTime": 1691142670214, "trialdata": {"revealed_states": [], "clicked_states": [], "num_clicks_accrued": [0, 0, 0, 0, 0, 0, 0, 0, 0, 0, 0, 0, 0], "stateRewards": ["", 1, 1, 4, 11, 83, -66, 18, -16, -23, 5, 25, 1, -3, 1, -12, 18, 24, -86, -11, -64, 36, 40, 2, 1, -6, 13, 55, 29, 72, -2, 81, -72, -41], "withholdReward": false, "trial_id": "mdp_trial_7", "block": "test", "trialIndex": 8, "score": 5, "costs": 0, "simulationMode": [null, null, null, null, null], "rewards": [1, -3, 1, -12, 18], "path": ["0", "0", "12", "13", "14", "15", "16"], "rt": [3335, 65, 181, 2125, 765], "actions": ["right", "right", "right", "up", "up"], "actionTimes": [7407, 8011, 8748, 11389, 12682], "queries": {"click": {"state": {"target": [], "time": []}, "edge": {"target": [], "time": []}}, "mouseover": {"state": {"target": [], "time": []}, "edge": {"target": [], "time": []}}, "mouseout": {"state": {"target": [], "time": []}, "edge": {"target": [], "time": []}}}, "displayed_time": "18.07", "trialTime": 21200, "trial_type": "mouselab-mdp", "trial_index": 15, "time_elapsed": 612104, "internal_node_id": "0.0-4.0-1.0-6.0"}}, {"uniqueid": "w35373844:a80658623", "current_trial": 16, "dateTime": 1691142689647, "trialdata": {"revealed_states": [], "clicked_states": [], "num_clicks_accrued": [0, 0, 0, 0, 0, 0, 0, 0, 0, 0, 0, 0, 0], "stateRewards": ["", 1, -3, -1, 9, -34, -40, 22, -7, 45, 53, -11, 2, 4, 5, 15, 21, 37, -49, -3, 80, -28, -34, 1, -3, 1, 1, -40, -6, -5, -16, -85, -86, 59], "withholdReward": false, "trial_id": "mdp_trial_8", "block": "test", "trialIndex": 9, "score": -40, "costs": 0, "simulationMode": [null, null, null, null, null], "rewards": [1, -3, 1, 1, -40], "path": ["0", "0", "23", "24", "25", "26", "27"], "rt": [1761, 488, 60, 647, 1247], "actions": ["left", "left", "left", "up", "up"], "actionTimes": [3685, 4703, 5288, 6459, 8306], "queries": {"click": {"state": {"target": [], "time": []}, "edge": {"target": [], "time": []}}, "mouseover": {"state": {"target": [], "time": []}, "edge": {"target": [], "time": []}}, "mouseout": {"state": {"target": [], "time": []}, "edge": {"target": [], "time": []}}}, "displayed_time": "15.93", "trialTime": 18131, "trial_type": "mouselab-mdp", "trial_index": 16, "time_elapsed": 631537, "internal_node_id": "0.0-4.0-1.0-7.0"}}, {"uniqueid": "w35373844:a80658623", "current_trial": 17, "dateTime": 1691142716429, "trialdata": {"revealed_states": [], "clicked_states": [], "num_clicks_accrued": [0, 0, 0, 0, 0, 0, 0, 0, 0, 0, 0, 0, 0], "stateRewards": ["", 1, -1, 1, 13, 31, -56, 72, 2, 41, 5, 63, -2, -3, -2, 3, -71, -26, 52, 13, -31, 24, -67, 2, -2, 5, 4, 66, 43, 72, 9, 86, -26, 44], "withholdReward": false, "trial_id": "mdp_trial_9", "block": "test", "trialIndex": 10, "score": 30, "costs": 0, "simulationMode": [null, null, null, null, null], "rewards": [-2, -3, -2, 13, 24], "path": ["0", "0", "12", "13", "14", "19", "21"], "rt": [2603, 326, 178, 661, 143], "actions": ["right", "right", "right", "down", "down"], "actionTimes": [10250, 11104, 11807, 12988, 13664], "queries": {"click": {"state": {"target": [], "time": []}, "edge": {"target": [], "time": []}}, "mouseover": {"state": {"target": [], "time": []}, "edge": {"target": [], "time": []}}, "mouseout": {"state": {"target": [], "time": []}, "edge": {"target": [], "time": []}}}, "displayed_time": "21.65", "trialTime": 25327, "trial_type": "mouselab-mdp", "trial_index": 17, "time_elapsed": 658318, "internal_node_id": "0.0-4.0-1.0-8.0"}}, {"uniqueid": "w35373844:a80658623", "current_trial": 18, "dateTime": 1691142751296, "trialdata": {"revealed_states": [], "clicked_states": [], "num_clicks_accrued": [0, 0, 0, 0, 0, 0, 0, 0, 0, 0, 0, 0, 0], "stateRewards": ["", -1, 3, -5, -2, -13, -9, -34, -7, -81, 32, 35, -2, -2, 1, -14, -32, 81, 7, 4, 82, 56, -8, -1, 3, -8, 6, -24, -24, -53, 2, 38, 61, 54], "withholdReward": false, "trial_id": "mdp_trial_10", "block": "test", "trialIndex": 11, "score": -7, "costs": 0, "simulationMode": [null, null, null, null, null], "rewards": [-2, -2, 1, 4, -8], "path": ["0", "0", "12", "13", "14", "19", "22"], "rt": [1303, 4, 157, 2391, 326], "actions": ["right", "right", "right", "down", "left"], "actionTimes": [9214, 9743, 10420, 13339, 14191], "queries": {"click": {"state": {"target": [], "time": []}, "edge": {"target": [], "time": []}}, "mouseover": {"state": {"target": [], "time": []}, "edge": {"target": [], "time": []}}, "mouseout": {"state": {"target": [], "time": []}, "edge": {"target": [], "time": []}}}, "displayed_time": "21.91", "trialTime": 33861, "trial_type": "mouselab-mdp", "trial_index": 18, "time_elapsed": 693186, "internal_node_id": "0.0-4.0-1.0-9.0"}}, {"uniqueid": "w35373844:a80658623", "current_trial": 19, "dateTime": 1691142785487, "trialdata": {"revealed_states": [], "clicked_states": [], "num_clicks_accrued": [0, 0, 0, 0, 0, 0, 0, 0, 0, 0, 0, 0, 0], "stateRewards": ["", -2, 2, -1, -6, 22, 6, 6, -5, 70, -42, 65, 1, 3, 5, -6, -67, -9, 3, 14, 7, -62, -13, -2, 4, 1, 16, 42, -21, -52, -8, 32, 53, 81], "withholdReward": false, "trial_id": "mdp_trial_11", "block": "test", "trialIndex": 12, "score": 30, "costs": 0, "simulationMode": [null, null, null, null, null], "rewards": [1, 3, 5, 14, 7], "path": ["0", "0", "12", "13", "14", "19", "20"], "rt": [1673, 14, 120, 831, 1230], "actions": ["right", "right", "right", "down", "right"], "actionTimes": [3783, 4327, 4966, 6310, 8058], "queries": {"click": {"state": {"target": [], "time": []}, "edge": {"target": [], "time": []}}, "mouseover": {"state": {"target": [], "time": []}, "edge": {"target": [], "time": []}}, "mouseout": {"state": {"target": ["0"], "time": [31944]}, "edge": {"target": [], "time": []}}}, "displayed_time": "16.11", "trialTime": 32769, "trial_type": "mouselab-mdp", "trial_index": 19, "time_elapsed": 727379, "internal_node_id": "0.0-4.0-1.0-10.0"}}, {"uniqueid": "w35373844:a80658623", "current_trial": 20, "dateTime": 1691142805174, "trialdata": {"revealed_states": [], "clicked_states": [], "num_clicks_accrued": [0, 0, 0, 0, 0, 0, 0, 0, 0, 0, 0, 0, 0], "stateRewards": ["", 2, -4, 1, -12, -59, -53, -74, 16, -88, -66, 66, 1, -2, 8, -9, -14, 22, 25, -1, -39, 47, -14, -1, -1, -2, 1, -4, 52, -26, 15, -7, 46, 43], "withholdReward": false, "trial_id": "mdp_trial_12", "block": "test", "trialIndex": 13, "score": 20, "costs": 0, "simulationMode": [null, null, null, null, null], "rewards": [1, -2, 8, -9, 22], "path": ["0", "0", "12", "13", "14", "15", "17"], "rt": [5178, 416, 447, 1470, 591], "actions": ["right", "right", "right", "up", "right"], "actionTimes": [7385, 8316, 9279, 11269, 12374], "queries": {"click": {"state": {"target": [], "time": []}, "edge": {"target": [], "time": []}}, "mouseover": {"state": {"target": [], "time": []}, "edge": {"target": [], "time": []}}, "mouseout": {"state": {"target": ["0"], "time": [3627]}, "edge": {"target": [], "time": []}}}, "displayed_time": "16.21", "trialTime": 18553, "trial_type": "mouselab-mdp", "trial_index": 20, "time_elapsed": 747063, "internal_node_id": "0.0-4.0-1.0-11.0"}}, {"uniqueid": "w35373844:a80658623", "current_trial": 21, "dateTime": 1691142833653, "trialdata": {"revealed_states": [], "clicked_states": [], "num_clicks_accrued": [0, 0, 0, 0, 0, 0, 0, 0, 0, 0, 0, 0, 0], "stateRewards": ["", 1, 4, 7, -16, -84, -6, -46, -12, -7, -49, -26, -1, 2, -4, 2, 22, 37, -64, 1, 88, -13, -10, 1, -4, -2, 5, 2, -10, -34, 9, 66, 55, 38], "withholdReward": false, "trial_id": "mdp_trial_13", "block": "test", "trialIndex": 14, "score": 21, "costs": 0, "simulationMode": [null, null, null, null, null], "rewards": [-1, 2, -4, 2, 22], "path": ["0", "0", "12", "13", "14", "15", "16"], "rt": [1558, 99, 435, 521, 1527], "actions": ["right", "right", "right", "up", "up"], "actionTimes": [12917, 13543, 14494, 15529, 17570], "queries": {"click": {"state": {"target": [], "time": []}, "edge": {"target": [], "time": []}}, "mouseover": {"state": {"target": [], "time": []}, "edge": {"target": [], "time": []}}, "mouseout": {"state": {"target": ["0", "7", "4", "2", "1", "0"], "time": [9169, 9303, 9519, 9587, 9618, 22601]}, "edge": {"target": [], "time": []}}}, "displayed_time": "25.36", "trialTime": 27442, "trial_type": "mouselab-mdp", "trial_index": 21, "time_elapsed": 775543, "internal_node_id": "0.0-4.0-1.0-12.0"}}, {"uniqueid": "w35373844:a80658623", "current_trial": 22, "dateTime": 1691142853992, "trialdata": {"revealed_states": [], "clicked_states": [], "num_clicks_accrued": [0, 0, 0, 0, 0, 0, 0, 0, 0, 0, 0, 0, 0], "stateRewards": ["", -1, 2, -6, 6, -82, -19, -39, -16, -83, 11, -33, -2, -2, 4, -6, -82, -1, -19, -6, -10, -67, -41, -2, 1, -7, 16, -23, -78, -52, 14, 31, -71, 74], "withholdReward": false, "trial_id": "mdp_trial_14", "block": "test", "trialIndex": 15, "score": -25, "costs": 0, "simulationMode": [null, null, null, null, null], "rewards": [-2, -2, 4, -6, -19], "path": ["0", "0", "12", "13", "14", "15", "18"], "rt": [2107, 104, 306, 1334, 786], "actions": ["right", "right", "right", "up", "left"], "actionTimes": [5377, 5981, 6815, 8681, 9983], "queries": {"click": {"state": {"target": [], "time": []}, "edge": {"target": [], "time": []}}, "mouseover": {"state": {"target": [], "time": []}, "edge": {"target": [], "time": []}}, "mouseout": {"state": {"target": ["0"], "time": [17003]}, "edge": {"target": [], "time": []}}}, "displayed_time": "17.27", "trialTime": 19196, "trial_type": "mouselab-mdp", "trial_index": 22, "time_elapsed": 795882, "internal_node_id": "0.0-4.0-1.0-13.0"}}, {"uniqueid": "w35373844:a80658623", "current_trial": 23, "dateTime": 1691142875112, "trialdata": {"revealed_states": [], "clicked_states": [], "num_clicks_accrued": [0, 0, 0, 0, 0, 0, 0, 0, 0, 0, 0, 0, 0], "stateRewards": ["", 1, -2, -3, 14, -42, -87, -37, -11, -50, 33, -44, -2, 4, -7, 13, 48, -75, -66, 12, 23, -2, 82, 1, -4, 3, 12, 51, -15, -26, -11, -52, -29, 82], "withholdReward": false, "trial_id": "mdp_trial_15", "block": "test", "trialIndex": 16, "score": -63, "costs": 0, "simulationMode": [null, null, null, null, null], "rewards": [1, -4, 3, -11, -52], "path": ["0", "0", "23", "24", "25", "30", "31"], "rt": [2067, 103, 295, 728, 667], "actions": ["left", "left", "left", "down", "right"], "actionTimes": [6662, 7285, 8092, 9342, 10538], "queries": {"click": {"state": {"target": [], "time": []}, "edge": {"target": [], "time": []}}, "mouseover": {"state": {"target": [], "time": []}, "edge": {"target": [], "time": []}}, "mouseout": {"state": {"target": ["0"], "time": [16587]}, "edge": {"target": [], "time": []}}}, "displayed_time": "18.60", "trialTime": 19986, "trial_type": "mouselab-mdp", "trial_index": 23, "time_elapsed": 817002, "internal_node_id": "0.0-4.0-1.0-14.0"}}, {"uniqueid": "w35373844:a80658623", "current_trial": 24, "dateTime": 1691142894910, "trialdata": {"revealed_states": [], "clicked_states": [], "num_clicks_accrued": [0, 0, 0, 0, 0, 0, 0, 0, 0, 0, 0, 0, 0], "stateRewards": ["", -1, -3, -6, -2, -7, 80, -45, -3, -38, -72, 76, 2, 1, 7, 4, -62, 14, -74, 14, -87, -21, -88, -2, 1, -7, -10, 66, 56, -76, 10, -29, -72, -70], "withholdReward": false, "trial_id": "mdp_trial_16", "block": "test", "trialIndex": 17, "score": -70, "costs": 0, "simulationMode": [null, null, null, null, null], "rewards": [-2, 1, -7, 10, -72], "path": ["0", "0", "23", "24", "25", "30", "32"], "rt": [1541, 138, 258, 1240, 43], "actions": ["left", "left", "left", "down", "down"], "actionTimes": [3936, 4604, 5372, 7138, 7709], "queries": {"click": {"state": {"target": [], "time": []}, "edge": {"target": [], "time": []}}, "mouseover": {"state": {"target": [], "time": []}, "edge": {"target": [], "time": []}}, "mouseout": {"state": {"target": ["0"], "time": [10013]}, "edge": {"target": [], "time": []}}}, "displayed_time": "16.40", "trialTime": 18667, "trial_type": "mouselab-mdp", "trial_index": 24, "time_elapsed": 836800, "internal_node_id": "0.0-4.0-1.0-15.0"}}, {"uniqueid": "w35373844:a80658623", "current_trial": 25, "dateTime": 1691142913929, "trialdata": {"revealed_states": [], "clicked_states": [], "num_clicks_accrued": [0, 0, 0, 0, 0, 0, 0, 0, 0, 0, 0, 0, 0], "stateRewards": ["", 1, 2, -3, 6, -88, 74, -45, 7, -46, 40, -77, 1, -4, 4, 3, 22, -25, -59, 8, -83, 19, -60, -1, -1, -1, -8, 26, -29, 64, -7, -88, -51, -55], "withholdReward": false, "trial_id": "mdp_trial_17", "block": "test", "trialIndex": 18, "score": -65, "costs": 0, "simulationMode": [null, null, null, null, null], "rewards": [-1, -1, -1, -7, -55], "path": ["0", "0", "23", "24", "25", "30", "33"], "rt": [1383, 346, 287, 1212, 819], "actions": ["left", "left", "left", "down", "left"], "actionTimes": [4085, 4941, 5742, 7468, 8808], "queries": {"click": {"state": {"target": [], "time": []}, "edge": {"target": [], "time": []}}, "mouseover": {"state": {"target": [], "time": []}, "edge": {"target": [], "time": []}}, "mouseout": {"state": {"target": ["0"], "time": [9880]}, "edge": {"target": [], "time": []}}}, "displayed_time": "16.70", "trialTime": 17889, "trial_type": "mouselab-mdp", "trial_index": 25, "time_elapsed": 855818, "internal_node_id": "0.0-4.0-1.0-16.0"}}, {"uniqueid": "w35373844:a80658623", "current_trial": 26, "dateTime": 1691142936512, "trialdata": {"revealed_states": [], "clicked_states": [], "num_clicks_accrued": [0, 0, 0, 0, 0, 0, 0, 0, 0, 0, 0, 0, 0], "stateRewards": ["", -1, -3, 4, -10, -5, 79, -87, -2, 53, 29, -20, -2, -1, -5, 10, 27, 86, 46, -16, -29, 40, 3, 2, 4, -1, -6, 37, 79, -29, 7, 86, -62, 29], "withholdReward": false, "trial_id": "mdp_trial_18", "block": "test", "trialIndex": 19, "score": 36, "costs": 0, "simulationMode": [null, null, null, null, null], "rewards": [2, 4, -1, -6, 37], "path": ["0", "0", "23", "24", "25", "26", "27"], "rt": [1771, 52, 103, 796, 25], "actions": ["left", "left", "left", "up", "up"], "actionTimes": [7573, 8147, 8814, 10113, 10660], "queries": {"click": {"state": {"target": [], "time": []}, "edge": {"target": [], "time": []}}, "mouseover": {"state": {"target": [], "time": []}, "edge": {"target": [], "time": []}}, "mouseout": {"state": {"target": ["0"], "time": [5945]}, "edge": {"target": [], "time": []}}}, "displayed_time": "19.81", "trialTime": 21286, "trial_type": "mouselab-mdp", "trial_index": 26, "time_elapsed": 878402, "internal_node_id": "0.0-4.0-1.0-17.0"}}, {"uniqueid": "w35373844:a80658623", "current_trial": 27, "dateTime": 1691142956290, "trialdata": {"revealed_states": [], "clicked_states": [], "num_clicks_accrued": [0, 0, 0, 0, 0, 0, 0, 0, 0, 0, 0, 0, 0], "stateRewards": ["", 1, 4, -4, 14, 35, 51, 19, -13, 54, 78, -74, -2, -1, -3, 13, -11, -42, -73, -15, -24, -3, -69, 2, -1, 5, 16, -27, 73, 58, 9, -60, 5, -60], "withholdReward": false, "trial_id": "mdp_trial_19", "block": "test", "trialIndex": 20, "score": 95, "costs": 0, "simulationMode": [null, null, null, null, null], "rewards": [2, -1, 5, 16, 73], "path": ["0", "0", "23", "24", "25", "26", "28"], "rt": [959, 683, 75, 914, 375], "actions": ["left", "left", "left", "up", "right"], "actionTimes": [3056, 4256, 4876, 6326, 7212], "queries": {"click": {"state": {"target": [], "time": []}, "edge": {"target": [], "time": []}}, "mouseover": {"state": {"target": [], "time": []}, "edge": {"target": [], "time": []}}, "mouseout": {"state": {"target": ["0"], "time": [10584]}, "edge": {"target": [], "time": []}}}, "displayed_time": "16.10", "trialTime": 18103, "trial_type": "mouselab-mdp", "trial_index": 27, "time_elapsed": 898182, "internal_node_id": "0.0-4.0-1.0-18.0"}}, {"uniqueid": "w35373844:a80658623", "current_trial": 28, "dateTime": 1691142976684, "trialdata": {"revealed_states": [], "clicked_states": [], "num_clicks_accrued": [0, 0, 0, 0, 0, 0, 0, 0, 0, 0, 0, 0, 0], "stateRewards": ["", 1, -1, 8, 4, 76, -33, -17, -3, -1, -54, -74, -2, 2, -5, 13, -51, 63, 83, 1, 84, 29, -36, 2, -1, 7, -12, -10, -44, -43, -14, 8, -69, 19], "withholdReward": false, "trial_id": "mdp_trial_20", "block": "test", "trialIndex": 21, "score": -47, "costs": 0, "simulationMode": [null, null, null, null, null], "rewards": [2, -1, 7, -12, -43], "path": ["0", "0", "23", "24", "25", "26", "29"], "rt": [1610, 159, 23, 1090, 796], "actions": ["left", "left", "left", "up", "left"], "actionTimes": [4561, 5241, 5785, 7386, 8707], "queries": {"click": {"state": {"target": [], "time": []}, "edge": {"target": [], "time": []}}, "mouseover": {"state": {"target": [], "time": []}, "edge": {"target": [], "time": []}}, "mouseout": {"state": {"target": ["0"], "time": [11643]}, "edge": {"target": [], "time": []}}}, "displayed_time": "16.95", "trialTime": 18970, "trial_type": "mouselab-mdp", "trial_index": 28, "time_elapsed": 918576, "internal_node_id": "0.0-4.0-1.0-19.0"}}, {"uniqueid": "w35373844:a80658623", "current_trial": 29, "dateTime": 1691142996437, "trialdata": {"revealed_states": [], "clicked_states": [], "num_clicks_accrued": [0, 0, 0, 0, 0, 0, 0, 0, 0, 0, 0, 0, 0], "stateRewards": ["", 1, -2, -2, 10, -31, -77, 35, 9, -47, 8, 48, -2, 1, -4, -3, -26, -50, 43, -11, 76, -38, 17, 1, -1, 6, 10, 15, -9, 12, -8, 85, 11, -55], "withholdReward": false, "trial_id": "mdp_trial_21", "block": "test", "trialIndex": 22, "score": 42, "costs": 0, "simulationMode": [null, null, null, null, null], "rewards": [1, -2, -2, 10, 35], "path": ["0", "0", "1", "2", "3", "4", "7"], "rt": [1647, 85, 1075, 691, 1729], "actions": ["up", "up", "up", "right", "down"], "actionTimes": [3713, 4329, 5933, 7151, 9414], "queries": {"click": {"state": {"target": [], "time": []}, "edge": {"target": [], "time": []}}, "mouseover": {"state": {"target": [], "time": []}, "edge": {"target": [], "time": []}}, "mouseout": {"state": {"target": ["0"], "time": [16936]}, "edge": {"target": [], "time": []}}}, "displayed_time": "16.07", "trialTime": 17916, "trial_type": "mouselab-mdp", "trial_index": 29, "time_elapsed": 938328, "internal_node_id": "0.0-4.0-1.0-20.0"}}, {"uniqueid": "w35373844:a80658623", "current_trial": 30, "dateTime": 1691143016086, "trialdata": {"revealed_states": [], "clicked_states": [], "num_clicks_accrued": [0, 0, 0, 0, 0, 0, 0, 0, 0, 0, 0, 0, 0], "stateRewards": ["", -1, -1, 7, -15, -43, -21, -84, -9, -45, -66, 2, 1, -2, 2, 8, -27, 44, -52, -5, -84, 11, 53, 1, 4, -4, 16, 83, -82, -15, -16, 68, -43, 81], "withholdReward": false, "trial_id": "mdp_trial_22", "block": "test", "trialIndex": 23, "score": -31, "costs": 0, "simulationMode": [null, null, null, null, null], "rewards": [-1, -1, 7, -15, -21], "path": ["0", "0", "1", "2", "3", "4", "6"], "rt": [2727, 317, 219, 420, 45], "actions": ["up", "up", "up", "right", "right"], "actionTimes": [4759, 5607, 6347, 7294, 7866], "queries": {"click": {"state": {"target": [], "time": []}, "edge": {"target": [], "time": []}}, "mouseover": {"state": {"target": [], "time": []}, "edge": {"target": [], "time": []}}, "mouseout": {"state": {"target": [], "time": []}, "edge": {"target": [], "time": []}}}, "displayed_time": "16.04", "trialTime": 18195, "trial_type": "mouselab-mdp", "trial_index": 30, "time_elapsed": 957977, "internal_node_id": "0.0-4.0-1.0-21.0"}}, {"uniqueid": "w35373844:a80658623", "current_trial": 31, "dateTime": 1691143037613, "trialdata": {"revealed_states": [], "clicked_states": [], "num_clicks_accrued": [0, 0, 0, 0, 0, 0, 0, 0, 0, 0, 0, 0, 0], "stateRewards": ["", -1, 4, -3, 3, 57, -61, 5, -11, 23, -1, 34, -2, -4, -1, -13, 27, 38, -36, 4, -45, 21, 88, 1, -2, -1, 1, -69, -5, -78, -12, -9, 38, -54], "withholdReward": false, "trial_id": "mdp_trial_23", "block": "test", "trialIndex": 24, "score": 60, "costs": 0, "simulationMode": [null, null, null, null, null], "rewards": [-1, 4, -3, 3, 57], "path": ["0", "0", "1", "2", "3", "4", "5"], "rt": [1295, 223, 658, 398, 17], "actions": ["up", "up", "up", "right", "up"], "actionTimes": [3386, 4137, 5306, 6268, 6815], "queries": {"click": {"state": {"target": [], "time": []}, "edge": {"target": [], "time": []}}, "mouseover": {"state": {"target": [], "time": []}, "edge": {"target": [], "time": []}}, "mouseout": {"state": {"target": [], "time": []}, "edge": {"target": [], "time": []}}}, "displayed_time": "16.10", "trialTime": 20262, "trial_type": "mouselab-mdp", "trial_index": 31, "time_elapsed": 979504, "internal_node_id": "0.0-4.0-1.0-22.0"}}, {"uniqueid": "w35373844:a80658623", "current_trial": 32, "dateTime": 1691143057075, "trialdata": {"revealed_states": [], "clicked_states": [], "num_clicks_accrued": [0, 0, 0, 0, 0, 0, 0, 0, 0, 0, 0, 0, 0], "stateRewards": ["", -2, -4, -2, -13, -15, 87, -19, -6, -80, 30, 12, 1, 1, -8, 2, 55, 56, 15, 11, -68, -7, 55, -2, 3, -3, -3, 48, 62, 4, 1, -3, 69, -33], "withholdReward": false, "trial_id": "mdp_trial_24", "block": "test", "trialIndex": 25, "score": 16, "costs": 0, "simulationMode": [null, null, null, null, null], "rewards": [-2, -4, -2, -6, 30], "path": ["0", "0", "1", "2", "3", "8", "10"], "rt": [1507, 351, 31, 501, 772], "actions": ["up", "up", "up", "left", "down"], "actionTimes": [3425, 4310, 4867, 5886, 7174], "queries": {"click": {"state": {"target": [], "time": []}, "edge": {"target": [], "time": []}}, "mouseover": {"state": {"target": [], "time": []}, "edge": {"target": [], "time": []}}, "mouseout": {"state": {"target": ["0"], "time": [13198]}, "edge": {"target": [], "time": []}}}, "displayed_time": "15.92", "trialTime": 18223, "trial_type": "mouselab-mdp", "trial_index": 32, "time_elapsed": 998965, "internal_node_id": "0.0-4.0-1.0-23.0"}}, {"uniqueid": "w35373844:a80658623", "current_trial": 33, "dateTime": 1691143075750, "trialdata": {"revealed_states": [], "clicked_states": [], "num_clicks_accrued": [0, 0, 0, 0, 0, 0, 0, 0, 0, 0, 0, 0, 0], "stateRewards": ["", 1, 1, -3, 7, 49, 78, 26, -5, 26, 48, -43, -1, -3, 2, -5, 4, -1, -60, 10, -35, 51, 81, -2, 1, -7, -5, -39, -86, -54, 4, -3, 74, 77], "withholdReward": false, "trial_id": "mdp_trial_25", "block": "test", "trialIndex": 26, "score": -49, "costs": 0, "simulationMode": [null, null, null, null, null], "rewards": [1, 1, -3, -5, -43], "path": ["0", "0", "1", "2", "3", "8", "11"], "rt": [1081, 750, 208, 539, 7], "actions": ["up", "up", "up", "left", "left"], "actionTimes": [3421, 4778, 5506, 6555, 7096], "queries": {"click": {"state": {"target": [], "time": []}, "edge": {"target": [], "time": []}}, "mouseover": {"state": {"target": [], "time": []}, "edge": {"target": [], "time": []}}, "mouseout": {"state": {"target": ["0"], "time": [12661]}, "edge": {"target": [], "time": []}}}, "displayed_time": "16.34", "trialTime": 17495, "trial_type": "mouselab-mdp", "trial_index": 33, "time_elapsed": 1017640, "internal_node_id": "0.0-4.0-1.0-24.0"}}, {"uniqueid": "w35373844:a80658623", "current_trial": 34, "dateTime": 1691143102642, "trialdata": {"revealed_states": [], "clicked_states": [], "num_clicks_accrued": [0, 0, 0, 0, 0, 0, 0, 0, 0, 0, 0, 0, 0], "stateRewards": ["", -2, -3, -5, 8, 27, 11, 43, -6, -24, -87, 69, -2, 1, 1, 9, 19, 48, -37, 9, -14, 45, 62, 1, 2, 1, 16, -81, -41, 22, 4, -6, -63, 47], "withholdReward": false, "trial_id": "mdp_trial_26", "block": "test", "trialIndex": 27, "score": -40, "costs": 0, "simulationMode": [null, null, null, null, null], "rewards": [-2, -3, -5, -6, -24], "path": ["0", "0", "1", "2", "3", "8", "9"], "rt": [1506, 135, 573, 491, 141], "actions": ["up", "up", "up", "left", "up"], "actionTimes": [11465, 12126, 13213, 14232, 14900], "queries": {"click": {"state": {"target": [], "time": []}, "edge": {"target": [], "time": []}}, "mouseover": {"state": {"target": [], "time": []}, "edge": {"target": [], "time": []}}, "mouseout": {"state": {"target": ["0"], "time": [23853]}, "edge": {"target": [], "time": []}}}, "displayed_time": "23.96", "trialTime": 25691, "trial_type": "mouselab-mdp", "trial_index": 34, "time_elapsed": 1044532, "internal_node_id": "0.0-4.0-1.0-25.0"}}, {"uniqueid": "w35373844:a80658623", "current_trial": 35, "dateTime": 1691143123002, "trialdata": {"revealed_states": [], "clicked_states": [], "num_clicks_accrued": [0, 0, 0, 0, 0, 0, 0, 0, 0, 0, 0, 0, 0], "stateRewards": ["", 1, -1, 4, 5, -32, 18, 20, 6, -88, -74, 9, -2, 1, -2, -14, 34, -77, -38, -1, 80, -36, 73, 2, 3, -8, 10, -48, -73, -71, -11, -22, 20, 54], "withholdReward": false, "trial_id": "mdp_trial_27", "block": "test", "trialIndex": 28, "score": -66, "costs": 0, "simulationMode": [null, null, null, null, null], "rewards": [2, 3, -8, 10, -73], "path": ["0", "0", "23", "24", "25", "26", "28"], "rt": [1381, 503, 274, 723, 132], "actions": ["left", "left", "left", "up", "right"], "actionTimes": [3822, 4860, 5652, 6962, 7608], "queries": {"click": {"state": {"target": [], "time": []}, "edge": {"target": [], "time": []}}, "mouseover": {"state": {"target": [], "time": []}, "edge": {"target": [], "time": []}}, "mouseout": {"state": {"target": ["0"], "time": [9696]}, "edge": {"target": [], "time": []}}}, "displayed_time": "16.44", "trialTime": 19039, "trial_type": "mouselab-mdp", "trial_index": 35, "time_elapsed": 1064892, "internal_node_id": "0.0-4.0-1.0-26.0"}}, {"uniqueid": "w35373844:a80658623", "current_trial": 36, "dateTime": 1691143142096, "trialdata": {"revealed_states": [], "clicked_states": [], "num_clicks_accrued": [0, 0, 0, 0, 0, 0, 0, 0, 0, 0, 0, 0, 0], "stateRewards": ["", -1, 1, -1, 2, 19, 85, -18, 2, -3, -26, 36, 2, 4, 7, -9, -18, 70, 72, -5, 35, -20, -28, 1, -2, -4, -3, -59, -11, -63, -2, -72, 59, -69], "withholdReward": false, "trial_id": "mdp_trial_28", "block": "test", "trialIndex": 29, "score": -20, "costs": 0, "simulationMode": [null, null, null, null, null], "rewards": [2, 4, 7, -5, -28], "path": ["0", "0", "12", "13", "14", "19", "22"], "rt": [1844, 356, 176, 2359, 1401], "actions": ["right", "right", "right", "down", "left"], "actionTimes": [3876, 4757, 5460, 8344, 10280], "queries": {"click": {"state": {"target": [], "time": []}, "edge": {"target": [], "time": []}}, "mouseover": {"state": {"target": [], "time": []}, "edge": {"target": [], "time": []}}, "mouseout": {"state": {"target": ["0"], "time": [11096]}, "edge": {"target": [], "time": []}}}, "displayed_time": "16.03", "trialTime": 17571, "trial_type": "mouselab-mdp", "trial_index": 36, "time_elapsed": 1083986, "internal_node_id": "0.0-4.0-1.0-27.0"}}, {"uniqueid": "w35373844:a80658623", "current_trial": 37, "dateTime": 1691143163803, "trialdata": {"revealed_states": [], "clicked_states": [], "num_clicks_accrued": [0, 0, 0, 0, 0, 0, 0, 0, 0, 0, 0, 0, 0], "stateRewards": ["", -1, 2, -2, 5, 80, -61, -27, 12, 44, -26, -75, -2, -4, 1, -16, 42, -49, -50, 4, -44, 2, 80, -2, -2, 5, -2, 59, 10, 24, 7, -48, -86, -44], "withholdReward": false, "trial_id": "mdp_trial_29", "block": "test", "trialIndex": 30, "score": -40, "costs": 0, "simulationMode": [null, null, null, null, null], "rewards": [-2, -2, 5, 7, -48], "path": ["0", "0", "23", "24", "25", "30", "31"], "rt": [2041, 417, 57, 671, 672], "actions": ["left", "left", "left", "down", "right"], "actionTimes": [6592, 7550, 8133, 9338, 10537], "queries": {"click": {"state": {"target": [], "time": []}, "edge": {"target": [], "time": []}}, "mouseover": {"state": {"target": [], "time": []}, "edge": {"target": [], "time": []}}, "mouseout": {"state": {"target": ["0"], "time": [12312]}, "edge": {"target": [], "time": []}}}, "displayed_time": "18.55", "trialTime": 19725, "trial_type": "mouselab-mdp", "trial_index": 37, "time_elapsed": 1105693, "internal_node_id": "0.0-4.0-1.0-28.0"}}, {"uniqueid": "w35373844:a80658623", "current_trial": 38, "dateTime": 1691143182990, "trialdata": {"revealed_states": [], "clicked_states": [], "num_clicks_accrued": [0, 0, 0, 0, 0, 0, 0, 0, 0, 0, 0, 0, 0], "stateRewards": ["", 1, -3, -2, 14, 49, -40, -39, 2, 26, -61, 73, 1, -4, -8, 12, 79, 29, -65, -13, 55, -26, 27, -1, 3, 3, 9, -17, -60, -18, -8, 35, -88, 69], "withholdReward": false, "trial_id": "mdp_trial_30", "block": "test", "trialIndex": 31, "score": 31, "costs": 0, "simulationMode": [null, null, null, null, null], "rewards": [1, -4, -8, -13, 55], "path": ["0", "0", "12", "13", "14", "19", "20"], "rt": [1344, 381, 749, 773, 827], "actions": ["right", "right", "right", "down", "right"], "actionTimes": [3551, 4453, 5720, 6996, 8349], "queries": {"click": {"state": {"target": [], "time": []}, "edge": {"target": [], "time": []}}, "mouseover": {"state": {"target": [], "time": []}, "edge": {"target": [], "time": []}}, "mouseout": {"state": {"target": ["0"], "time": [12743]}, "edge": {"target": [], "time": []}}}, "displayed_time": "16.21", "trialTime": 17666, "trial_type": "mouselab-mdp", "trial_index": 38, "time_elapsed": 1124880, "internal_node_id": "0.0-4.0-1.0-29.0"}}, {"uniqueid": "w35373844:a80658623", "current_trial": 39, "dateTime": 1691143202832, "trialdata": {"revealed_states": [], "clicked_states": [], "num_clicks_accrued": [0, 0, 0, 0, 0, 0, 0, 0, 0, 0, 0, 0, 0], "stateRewards": ["", 2, -3, 5, -14, -63, -9, -24, -11, -54, -43, 68, 2, -2, -4, 7, -64, 30, 47, 12, -74, 11, 86, 1, -3, 3, 10, -71, -42, -52, -1, -29, -16, 69], "withholdReward": false, "trial_id": "mdp_trial_31", "block": "test", "trialIndex": 32, "score": -61, "costs": 0, "simulationMode": [null, null, null, null, null], "rewards": [2, -2, -4, 7, -64], "path": ["0", "0", "12", "13", "14", "15", "16"], "rt": [1974, 292, 580, 318, 53], "actions": ["right", "right", "right", "up", "up"], "actionTimes": [5093, 5911, 7016, 7857, 8439], "queries": {"click": {"state": {"target": [], "time": []}, "edge": {"target": [], "time": []}}, "mouseover": {"state": {"target": [], "time": []}, "edge": {"target": [], "time": []}}, "mouseout": {"state": {"target": ["0"], "time": [17032]}, "edge": {"target": [], "time": []}}}, "displayed_time": "17.12", "trialTime": 18303, "trial_type": "mouselab-mdp", "trial_index": 39, "time_elapsed": 1144722, "internal_node_id": "0.0-4.0-1.0-30.0"}}, {"uniqueid": "w35373844:a80658623", "current_trial": 40, "dateTime": 1691143221245, "trialdata": {"revealed_states": [], "clicked_states": [], "num_clicks_accrued": [0, 0, 0, 0, 0, 0, 0, 0, 0, 0, 0, 0, 0], "stateRewards": ["", -2, -1, -2, -15, 87, 57, 29, -10, 77, -80, -7, 1, -3, 6, 14, -11, 87, -59, 4, -71, 16, -11, 2, 2, -7, 2, -47, 61, 50, 14, -20, 17, 81], "withholdReward": false, "trial_id": "mdp_trial_32", "block": "test", "trialIndex": 33, "score": -41, "costs": 0, "simulationMode": [null, null, null, null, null], "rewards": [1, -3, 6, 14, -59], "path": ["0", "0", "12", "13", "14", "15", "18"], "rt": [1483, 90, 108, 1144, 624], "actions": ["right", "right", "right", "up", "left"], "actionTimes": [3697, 4310, 4945, 6598, 7745], "queries": {"click": {"state": {"target": [], "time": []}, "edge": {"target": [], "time": []}}, "mouseover": {"state": {"target": [], "time": []}, "edge": {"target": [], "time": []}}, "mouseout": {"state": {"target": ["0"], "time": [15133]}, "edge": {"target": [], "time": []}}}, "displayed_time": "16.22", "trialTime": 17100, "trial_type": "mouselab-mdp", "trial_index": 40, "time_elapsed": 1163134, "internal_node_id": "0.0-4.0-1.0-31.0"}}, {"uniqueid": "w35373844:a80658623", "current_trial": 41, "dateTime": 1691143242529, "trialdata": {"revealed_states": [], "clicked_states": [], "num_clicks_accrued": [0, 0, 0, 0, 0, 0, 0, 0, 0, 0, 0, 0, 0], "stateRewards": ["", -2, 2, -5, -6, 10, -66, -58, -10, -11, -63, -70, -1, -4, -5, 7, 66, -64, -43, -3, 45, -37, 4, -2, -2, -6, -4, -30, 33, 43, 15, -32, -65, -59], "withholdReward": false, "trial_id": "mdp_trial_33", "block": "test", "trialIndex": 34, "score": -1, "costs": 0, "simulationMode": [null, null, null, null, null], "rewards": [-2, 2, -5, -6, 10], "path": ["0", "0", "1", "2", "3", "4", "5"], "rt": [1779, 177, 646, 608, 828], "actions": ["up", "up", "up", "right", "up"], "actionTimes": [3989, 4692, 5861, 6995, 8400], "queries": {"click": {"state": {"target": [], "time": []}, "edge": {"target": [], "time": []}}, "mouseover": {"state": {"target": [], "time": []}, "edge": {"target": [], "time": []}}, "mouseout": {"state": {"target": ["0"], "time": [18460]}, "edge": {"target": [], "time": []}}}, "displayed_time": "16.21", "trialTime": 19795, "trial_type": "mouselab-mdp", "trial_index": 41, "time_elapsed": 1184419, "internal_node_id": "0.0-4.0-1.0-32.0"}}, {"uniqueid": "w35373844:a80658623", "current_trial": 42, "dateTime": 1691143272483, "trialdata": {"revealed_states": [], "clicked_states": [], "num_clicks_accrued": [0, 0, 0, 0, 0, 0, 0, 0, 0, 0, 0, 0, 0], "stateRewards": ["", 1, -1, -7, -7, -22, 15, -13, 13, 26, -32, 38, -1, 1, -7, -4, 16, -62, 86, 12, -54, 56, 64, -2, -1, 6, 14, -57, 37, 62, -6, -25, 50, -70], "withholdReward": false, "trial_id": "mdp_trial_34", "block": "test", "trialIndex": 35, "score": 32, "costs": 0, "simulationMode": [null, null, null, null, null], "rewards": [1, -1, -7, 13, 26], "path": ["0", "0", "1", "2", "3", "8", "9"], "rt": [1427, 98, 85, 715, 15166], "actions": ["up", "up", "up", "left", "up"], "actionTimes": [3267, 3888, 4474, 5722, 21408], "queries": {"click": {"state": {"target": [], "time": []}, "edge": {"target": [], "time": []}}, "mouseover": {"state": {"target": [], "time": []}, "edge": {"target": [], "time": []}}, "mouseout": {"state": {"target": ["0"], "time": [17258]}, "edge": {"target": [], "time": []}}}, "displayed_time": "21.93", "trialTime": 28574, "trial_type": "mouselab-mdp", "trial_index": 42, "time_elapsed": 1214372, "internal_node_id": "0.0-4.0-1.0-33.0"}}, {"uniqueid": "w35373844:a80658623", "current_trial": 43, "dateTime": 1691143297820, "trialdata": {"revealed_states": [], "clicked_states": [], "num_clicks_accrued": [0, 0, 0, 0, 0, 0, 0, 0, 0, 0, 0, 0, 0], "stateRewards": ["", 1, 1, 1, -3, -7, -1, -41, -10, 20, -72, -63, 1, -4, -2, 2, -66, 30, -84, -2, 49, 23, 71, -1, -4, 4, -12, 67, 5, 18, -16, 88, 56, -5], "withholdReward": false, "trial_id": "mdp_trial_35", "block": "test", "trialIndex": 36, "score": 13, "costs": 0, "simulationMode": [null, null, null, null, null], "rewards": [1, 1, 1, -10, 20], "path": ["0", "0", "1", "2", "3", "8", "9"], "rt": [1373, 143, 12, 680, 85], "actions": ["up", "up", "up", "left", "up"], "actionTimes": [6195, 6915, 7451, 8647, 9251], "queries": {"click": {"state": {"target": [], "time": []}, "edge": {"target": [], "time": []}}, "mouseover": {"state": {"target": [], "time": []}, "edge": {"target": [], "time": []}}, "mouseout": {"state": {"target": ["0"], "time": [11201]}, "edge": {"target": [], "time": []}}}, "displayed_time": "18.82", "trialTime": 23918, "trial_type": "mouselab-mdp", "trial_index": 43, "time_elapsed": 1239710, "internal_node_id": "0.0-4.0-1.0-34.0"}}, {"uniqueid": "w35373844:a80658623", "current_trial": 44, "dateTime": 1691143320923, "trialdata": {"revealed_states": [], "clicked_states": [], "num_clicks_accrued": [0, 0, 0, 0, 0, 0, 0, 0, 0, 0, 0, 0, 0], "stateRewards": ["", 2, 4, -5, 7, 81, 35, 6, 11, 14, -72, 42, -1, 2, 3, -7, -77, -44, -40, -15, -85, 51, -32, -2, -1, -5, 7, -74, 47, 52, 16, -49, 48, -46], "withholdReward": false, "trial_id": "mdp_trial_36", "block": "test", "trialIndex": 37, "score": 26, "costs": 0, "simulationMode": [null, null, null, null, null], "rewards": [2, 4, -5, 11, 14], "path": ["0", "0", "1", "2", "3", "8", "9"], "rt": [2383, 48, 432, 649, 3212], "actions": ["up", "up", "up", "left", "up"], "actionTimes": [5119, 5707, 6652, 7803, 11538], "queries": {"click": {"state": {"target": [], "time": []}, "edge": {"target": [], "time": []}}, "mouseover": {"state": {"target": [], "time": []}, "edge": {"target": [], "time": []}}, "mouseout": {"state": {"target": [], "time": []}, "edge": {"target": [], "time": []}}}, "displayed_time": "16.74", "trialTime": 21356, "trial_type": "mouselab-mdp", "trial_index": 44, "time_elapsed": 1262813, "internal_node_id": "0.0-4.0-1.0-35.0"}}, {"uniqueid": "w35373844:a80658623", "current_trial": 45, "dateTime": 1691143340942, "trialdata": {"revealed_states": [], "clicked_states": [], "num_clicks_accrued": [0, 0, 0, 0, 0, 0, 0, 0, 0, 0, 0, 0, 0], "stateRewards": ["", -1, 4, -5, 9, 29, -75, -42, -16, 24, -28, -41, 2, -3, 1, 10, 60, 47, 55, -1, -53, 22, -40, 2, -3, -6, 4, -26, 44, 54, 15, -76, 42, 14], "withholdReward": false, "trial_id": "mdp_trial_37", "block": "test", "trialIndex": 38, "score": 6, "costs": 0, "simulationMode": [null, null, null, null, null], "rewards": [-1, 4, -5, -16, 24], "path": ["0", "0", "1", "2", "3", "8", "9"], "rt": [1390, 57, 85, 211, 682], "actions": ["up", "up", "up", "left", "up"], "actionTimes": [3624, 4210, 4821, 5549, 6736], "queries": {"click": {"state": {"target": [], "time": []}, "edge": {"target": [], "time": []}}, "mouseover": {"state": {"target": [], "time": []}, "edge": {"target": [], "time": []}}, "mouseout": {"state": {"target": [], "time": []}, "edge": {"target": [], "time": []}}}, "displayed_time": "16.24", "trialTime": 18240, "trial_type": "mouselab-mdp", "trial_index": 45, "time_elapsed": 1282832, "internal_node_id": "0.0-4.0-1.0-36.0"}}, {"uniqueid": "w35373844:a80658623", "current_trial": 46, "dateTime": 1691143367344, "trialdata": {"revealed_states": [], "clicked_states": [], "num_clicks_accrued": [0, 0, 0, 0, 0, 0, 0, 0, 0, 0, 0, 0, 0], "stateRewards": ["", 1, 2, 3, 16, 63, -25, 16, -4, -14, 82, -66, -1, -3, -3, -11, -14, 19, 46, 3, -34, -82, 66, -2, -3, 4, -5, -63, 77, -37, -1, -45, -41, 84], "withholdReward": false, "trial_id": "mdp_trial_38", "block": "test", "trialIndex": 39, "score": -12, "costs": 0, "simulationMode": [null, null, null, null, null], "rewards": [1, 2, 3, -4, -14], "path": ["0", "0", "1", "2", "3", "8", "9"], "rt": [4149, 207, 123, 502, 540], "actions": ["up", "up", "up", "left", "up"], "actionTimes": [6028, 6767, 7391, 8428, 9492], "queries": {"click": {"state": {"target": [], "time": []}, "edge": {"target": [], "time": []}}, "mouseover": {"state": {"target": [], "time": []}, "edge": {"target": [], "time": []}}, "mouseout": {"state": {"target": ["0"], "time": [24184]}, "edge": {"target": [], "time": []}}}, "displayed_time": "15.88", "trialTime": 24708, "trial_type": "mouselab-mdp", "trial_index": 46, "time_elapsed": 1309235, "internal_node_id": "0.0-4.0-1.0-37.0"}}, {"uniqueid": "w35373844:a80658623", "current_trial": 47, "dateTime": 1691143390301, "trialdata": {"revealed_states": [], "clicked_states": [], "num_clicks_accrued": [0, 0, 0, 0, 0, 0, 0, 0, 0, 0, 0, 0, 0], "stateRewards": ["", -1, 3, 2, 9, 41, 4, -46, -12, -54, -87, -25, 2, 3, -1, 11, -77, 12, -33, -9, -32, 35, 72, 1, 3, -7, 4, 37, 65, -73, 6, 77, -43, 8], "withholdReward": false, "trial_id": "mdp_trial_39", "block": "test", "trialIndex": 40, "score": 54, "costs": 0, "simulationMode": [null, null, null, null, null], "rewards": [-1, 3, 2, 9, 41], "path": ["0", "0", "1", "2", "3", "4", "5"], "rt": [3966, 189, 13, 880, 147], "actions": ["up", "up", "up", "right", "up"], "actionTimes": [6377, 7079, 7601, 9019, 9741], "queries": {"click": {"state": {"target": [], "time": []}, "edge": {"target": [], "time": []}}, "mouseover": {"state": {"target": [], "time": []}, "edge": {"target": [], "time": []}}, "mouseout": {"state": {"target": ["0"], "time": [16653]}, "edge": {"target": [], "time": []}}}, "displayed_time": "16.41", "trialTime": 21482, "trial_type": "mouselab-mdp", "trial_index": 47, "time_elapsed": 1332190, "internal_node_id": "0.0-4.0-1.0-38.0"}}, {"uniqueid": "w35373844:a80658623", "current_trial": 48, "dateTime": 1691143416553, "trialdata": {"revealed_states": [], "clicked_states": [], "num_clicks_accrued": [0, 0, 0, 0, 0, 0, 0, 0, 0, 0, 0, 0, 0], "stateRewards": ["", 1, 1, -5, 8, -6, 45, 16, -6, -7, -22, -38, -1, -4, 8, -11, -16, 21, -45, -15, -59, -32, 42, -1, 3, 6, 11, -7, 34, -27, -8, 85, 43, -9], "withholdReward": false, "trial_id": "mdp_trial_40", "block": "test", "trialIndex": 41, "score": -1, "costs": 0, "simulationMode": [null, null, null, null, null], "rewards": [1, 1, -5, 8, -6], "path": ["0", "0", "1", "2", "3", "4", "5"], "rt": [2949, 351, 4126, 529, 897], "actions": ["up", "up", "up", "right", "up"], "actionTimes": [10517, 11385, 16027, 17062, 18530], "queries": {"click": {"state": {"target": [], "time": []}, "edge": {"target": [], "time": []}}, "mouseover": {"state": {"target": [], "time": []}, "edge": {"target": [], "time": []}}, "mouseout": {"state": {"target": ["0"], "time": [23097]}, "edge": {"target": [], "time": []}}}, "displayed_time": "21.57", "trialTime": 24727, "trial_type": "mouselab-mdp", "trial_index": 48, "time_elapsed": 1358443, "internal_node_id": "0.0-4.0-1.0-39.0"}}, {"uniqueid": "w35373844:a80658623", "current_trial": 49, "dateTime": 1691143488124, "trialdata": {"rt": 70660, "response": {"Q0": "$-2 to $2", "Q1": "$-4 to $4", "Q2": "$-16 to $16", "Q3": "There was no cost for clicking on nodes.", "Q4": "Very unmotivated"}, "question_order": [0, 1, 2, 3, 4], "trial_id": "final_quiz_control", "trial_type": "survey-multi-choice", "trial_index": 49, "time_elapsed": 1430014, "internal_node_id": "0.0-4.0-2.0"}}, {"uniqueid": "w35373844:a80658623", "current_trial": 50, "dateTime": 1691143623163, "trialdata": {"rt": 134233, "response": {"Q0": "I tried to aim for different nodes. I thought if I changed them, chances of a negative balance would be zero.", "Q1": "No, I kept getting negative  balances.", "Q2": "Very difficult. The values are random so there's no way to develop a strategy."}, "trial_id": "self_report_control", "trial_type": "survey-text", "trial_index": 50, "time_elapsed": 1565055, "internal_node_id": "0.0-4.0-3.0"}}, {"uniqueid": "w35373844:a80658623", "current_trial": 51, "dateTime": 1691143675529, "trialdata": {"rt": 52297, "response": {"Q0": "Agree", "Q1": "Disagree", "Q2": "Agree", "Q3": "Agree", "Q4": "Disagree", "Q5": "Agree", "Q6": "Disagree"}, "question_order": [0, 1, 2, 3, 4, 5, 6], "trial_id": "self_report_2", "trial_type": "survey-multi-choice", "trial_index": 51, "time_elapsed": 1617421, "internal_node_id": "0.0-4.0-4.0"}}, {"uniqueid": "w35373844:a80658623", "current_trial": 52, "dateTime": 1691143713689, "trialdata": {"rt": 37858, "response": {"gender": "female", "age": "26", "colorblind": "0", "effort": "0"}, "trial_type": "survey-html-form", "trial_index": 52, "time_elapsed": 1655580, "internal_node_id": "0.0-4.0-5.0"}}, {"uniqueid": "w35373844:a80658623", "current_trial": 53, "dateTime": 1691143764788, "trialdata": {"rt": 51077, "response": {"Q0": "No eveything was straightforward", "Q1": "No, I've never participated before\n", "Q2": ""}, "trial_type": "survey-text", "trial_index": 53, "time_elapsed": 1706680, "internal_node_id": "0.0-4.0-6.0"}}, {"uniqueid": "w35373844:a80658623", "current_trial": 54, "dateTime": 1691143773699, "trialdata": {"rt": 8594, "stimulus": "Press 'Finish HIT' in order to reach the completion code. Once the data has been saved, you will receive the code either in this window or in the original browser window where you started the experiment.\n", "response": 0, "trial_type": "html-button-response", "trial_index": 54, "time_elapsed": 1715590, "internal_node_id": "0.0-5.0"}}, {"uniqueid": "w35373844:a80658623", "current_trial": 55, "dateTime": 1691143774852, "trialdata": {"success": true, "trial_type": "fullscreen", "trial_index": 55, "time_elapsed": 1716743, "internal_node_id": "0.0-6.0"}}], "questiondata": {"params": {"CODE": "C6DMOQA6", "MIN_TIME": 14, "inspectCost": 1, "startTime": "Fri Aug 04 2023 11:40:55 GMT+0200 (South Africa Standard Time)", "bonusRate": 0.002, "variance": "1_2_4_8_44", "branching": "31123"}, "final_score": -119}, "eventdata": [{"eventtype": "initialized", "value": null, "timestamp": 1691142053428, "interval": 0}, {"eventtype": "window_resize", "value": [1024, 646], "timestamp": 1691142053428, "interval": 0}, {"eventtype": "window_resize", "value": [1024, 646], "timestamp": 1691142054932, "interval": 1504}, {"eventtype": "window_resize", "value": [1366, 768], "timestamp": 1691142066006, "interval": 11074}], "useragent": "Mozilla/5.0 (Windows NT 10.0; Win64; x64) AppleWebKit/537.36 (KHTML, like Gecko) Chrome/115.0.0.0 Safari/537.36", "mode": "live", "id": "w35373844:a80658623", "status": "user data saved", "Beginhit": "2023-08-04 09:43:16.349377", "Beginexp": "2023-08-04 09:43:36.781516", "Endhit": "2023-08-04 10:13:25.126772", "psiturkStatus": 3, "browser": "<redacted>", "platform": "windows", "language": "en-ZA"}