{"condition": 0, "counterbalance": 0, "assignmentId": "a43417969", "workerId": "w34238420", "hitId": "h89249618", "currenttrial": 67, "bonus": 0, "data": [{"uniqueid": "w34238420:a43417969", "current_trial": 0, "dateTime": 1691142842128, "trialdata": {"success": true, "trial_type": "fullscreen", "trial_index": 0, "time_elapsed": 13099, "internal_node_id": "0.0-0.0"}}, {"uniqueid": "w34238420:a43417969", "current_trial": 1, "dateTime": 1691142867176, "trialdata": {"view_history": [{"page_index": 0, "viewing_time": 25043}], "rt": 25044, "trial_id": "exp_instructions_control", "trial_type": "instructions", "trial_index": 1, "time_elapsed": 38147, "internal_node_id": "0.0-1.0"}}, {"uniqueid": "w34238420:a43417969", "current_trial": 2, "dateTime": 1691142873111, "trialdata": {"success": true, "trial_type": "fullscreen", "trial_index": 2, "time_elapsed": 44082, "internal_node_id": "0.0-2.0-0.0"}}, {"uniqueid": "w34238420:a43417969", "current_trial": 3, "dateTime": 1691143581792, "trialdata": {"view_history": [{"page_index": 0, "viewing_time": 214788}, {"page_index": 1, "viewing_time": 194869}, {"page_index": 2, "viewing_time": 147006}, {"page_index": 3, "viewing_time": 152014}], "rt": 708678, "trial_id": "mouselab_instructions_1_control", "trial_type": "instructions", "trial_index": 3, "time_elapsed": 752763, "internal_node_id": "0.0-2.0-1.0"}}, {"uniqueid": "w34238420:a43417969", "current_trial": 4, "dateTime": 1691143604947, "trialdata": {"revealed_states": [], "clicked_states": ["1"], "num_clicks_accrued": [0, 0, 0, 0, 0, 0, 0, 0, 0, 0, 0, 0, 0], "stateRewards": ["", -10, -10, -10, -10, -10, -10, 10, -10, 10, 10, -10, -10, -10, 10, -10, -10, 10, 10, 10, 10, -10, -10, 10, -10, -10, 10, -10, -10, 10, 10, 10, 10, -10], "withholdReward": false, "trial_id": "practice_1", "block": "test", "trialIndex": 0, "score": -47, "costs": -0.5, "simulationMode": [null, null, null, null, null], "rewards": [-10, -10, -10, -10, -10], "path": ["0", "0", "1", "2", "3", "4", "5"], "rt": [5526, 1590, 2513, 852, 670], "actions": ["up", "up", "up", "right", "up"], "actionTimes": [7295, 9392, 12441, 13816, 15008], "queries": {"click": {"state": {"target": ["1"], "time": [3808]}, "edge": {"target": [], "time": []}}, "mouseover": {"state": {"target": ["1"], "time": [3499]}, "edge": {"target": [], "time": []}}, "mouseout": {"state": {"target": ["12", "3", "3", "7", "12", "1", "1", "1"], "time": [null, 46, 592, 718, 905, 4724, 5202, 19937]}, "edge": {"target": [], "time": []}}}, "displayed_time": "15.54", "trialTime": 22031, "trial_type": "mouselab-mdp", "trial_index": 4, "time_elapsed": 775917, "internal_node_id": "0.0-2.0-2.0-0.0"}}, {"uniqueid": "w34238420:a43417969", "current_trial": 5, "dateTime": 1691143630740, "trialdata": {"revealed_states": [], "clicked_states": ["13"], "num_clicks_accrued": [0, 0, 0, 0, 0, 0, 0, 0, 0, 0, 0, 0, 0], "stateRewards": ["", 10, 10, 10, 10, -10, 10, 10, 10, -10, 10, 10, 10, 10, 10, -10, 10, 10, 10, -10, -10, 10, -10, 10, 10, -10, 10, 10, 10, -10, 10, 10, 10, -10], "withholdReward": false, "trial_id": "practice_2", "block": "test", "trialIndex": 1, "score": 33, "costs": -0.5, "simulationMode": [null, null, null, null, null], "rewards": [10, 10, 10, -10, 10], "path": ["0", "0", "12", "13", "14", "15", "18"], "rt": [5807, 502, 682, 1222, 1321], "actions": ["right", "right", "right", "up", "left"], "actionTimes": [9426, 10474, 11682, 13435, 15290], "queries": {"click": {"state": {"target": ["13"], "time": [5531]}, "edge": {"target": [], "time": []}}, "mouseover": {"state": {"target": ["12", "13", "13", "12", "0"], "time": [4869, 4962, 5322, 6560, 6611]}, "edge": {"target": [], "time": []}}, "mouseout": {"state": {"target": ["0", "12", "13", "13", "12", "0", "0"], "time": [3351, 4915, 5009, 6487, 6608, 6634, 21447]}, "edge": {"target": [], "time": []}}}, "displayed_time": "15.83", "trialTime": 25474, "trial_type": "mouselab-mdp", "trial_index": 5, "time_elapsed": 801710, "internal_node_id": "0.0-2.0-2.0-1.0"}}, {"uniqueid": "w34238420:a43417969", "current_trial": 6, "dateTime": 1691143678913, "trialdata": {"view_history": [{"page_index": 0, "viewing_time": 39335}, {"page_index": 1, "viewing_time": 8836}], "rt": 48171, "trial_id": "mouselab_instructions_2_control", "trial_type": "instructions", "trial_index": 6, "time_elapsed": 849884, "internal_node_id": "0.0-2.0-3.0"}}, {"uniqueid": "w34238420:a43417969", "current_trial": 7, "dateTime": 1691143741550, "trialdata": {"rt": 62607, "response": {"Q0": "The cost for clicking on nodes may vary between nodes.", "Q1": "I will receive a $1 bonus if I perform well, otherwise I will receive no bonus.", "Q2": "No, the amount of cash at each node of the web may be different each time.", "Q3": "To get the highest total score.", "Q4": "Only before moving the spider.", "Q5": "3 seconds"}, "question_order": [0, 1, 2, 3, 4, 5], "correct": {"Q0": "The cost for clicking on nodes may vary between nodes.", "Q1": "The better I perform the higher my bonus will be.", "Q2": "No, the amount of cash at each node of the web may be different each time.", "Q3": "To get the highest total score.", "Q4": "Only before moving the spider.", "Q5": "3 seconds"}, "trial_id": "mouselab_quiz_control", "trial_type": "survey-multi-choice", "trial_index": 7, "time_elapsed": 912521, "internal_node_id": "0.0-2.0-4.0"}}, {"uniqueid": "w34238420:a43417969", "current_trial": 8, "dateTime": 1691143751330, "trialdata": {"success": true, "trial_type": "fullscreen", "trial_index": 8, "time_elapsed": 922301, "internal_node_id": "0.0-2.1-0.1"}}, {"uniqueid": "w34238420:a43417969", "current_trial": 9, "dateTime": 1691143943079, "trialdata": {"view_history": [{"page_index": 0, "viewing_time": 67839}, {"page_index": 1, "viewing_time": 60003}, {"page_index": 2, "viewing_time": 19448}, {"page_index": 3, "viewing_time": 44456}], "rt": 191747, "trial_id": "mouselab_instructions_1_control", "trial_type": "instructions", "trial_index": 9, "time_elapsed": 1114050, "internal_node_id": "0.0-2.1-1.1"}}, {"uniqueid": "w34238420:a43417969", "current_trial": 10, "dateTime": 1691143958863, "trialdata": {"revealed_states": [], "clicked_states": ["23"], "num_clicks_accrued": [0, 0, 0, 0, 0, 0, 0, 0, 0, 0, 0, 0, 0], "stateRewards": ["", -10, -10, -10, -10, -10, -10, 10, -10, 10, 10, -10, -10, -10, 10, -10, -10, 10, 10, 10, 10, -10, -10, 10, -10, -10, 10, -10, -10, 10, 10, 10, 10, -10], "withholdReward": false, "trial_id": "practice_1", "block": "test", "trialIndex": 2, "score": -27, "costs": -0.5, "simulationMode": [null, null, null, null, null], "rewards": [-10, -10, -10, -10, 10], "path": ["0", "0", "1", "2", "3", "8", "9"], "rt": [3543, 832, 2051, 50, 285], "actions": ["up", "up", "up", "left", "up"], "actionTimes": [5948, 7307, 9884, 10467, 11299], "queries": {"click": {"state": {"target": ["23"], "time": [3529]}, "edge": {"target": [], "time": []}}, "mouseover": {"state": {"target": ["23", "0"], "time": [3260, 4228]}, "edge": {"target": [], "time": []}}, "mouseout": {"state": {"target": ["0", "23", "0"], "time": [3027, 4176, 4327]}, "edge": {"target": [], "time": []}}}, "displayed_time": "11.83", "trialTime": 15459, "trial_type": "mouselab-mdp", "trial_index": 10, "time_elapsed": 1129834, "internal_node_id": "0.0-2.1-2.1-0.1"}}, {"uniqueid": "w34238420:a43417969", "current_trial": 11, "dateTime": 1691143970576, "trialdata": {"revealed_states": [], "clicked_states": ["12"], "num_clicks_accrued": [0, 0, 0, 0, 0, 0, 0, 0, 0, 0, 0, 0, 0], "stateRewards": ["", 10, 10, 10, 10, -10, 10, 10, 10, -10, 10, 10, 10, 10, 10, -10, 10, 10, 10, -10, -10, 10, -10, 10, 10, -10, 10, 10, 10, -10, 10, 10, 10, -10], "withholdReward": false, "trial_id": "practice_2", "block": "test", "trialIndex": 3, "score": 33, "costs": -0.5, "simulationMode": [null, null, null, null, null], "rewards": [10, 10, 10, -10, 10], "path": ["0", "0", "12", "13", "14", "19", "21"], "rt": [3151, 465, 412, 624, 751], "actions": ["right", "right", "right", "down", "down"], "actionTimes": [5077, 6060, 6996, 8141, 9421], "queries": {"click": {"state": {"target": ["12"], "time": [2713]}, "edge": {"target": [], "time": []}}, "mouseover": {"state": {"target": ["12"], "time": [2464]}, "edge": {"target": [], "time": []}}, "mouseout": {"state": {"target": ["0", "12"], "time": [2431, 3469]}, "edge": {"target": [], "time": []}}}, "displayed_time": "9.94", "trialTime": 11405, "trial_type": "mouselab-mdp", "trial_index": 11, "time_elapsed": 1141546, "internal_node_id": "0.0-2.1-2.1-1.1"}}, {"uniqueid": "w34238420:a43417969", "current_trial": 12, "dateTime": 1691144003306, "trialdata": {"view_history": [{"page_index": 0, "viewing_time": 30995}, {"page_index": 1, "viewing_time": 1732}], "rt": 32728, "trial_id": "mouselab_instructions_2_control", "trial_type": "instructions", "trial_index": 12, "time_elapsed": 1174277, "internal_node_id": "0.0-2.1-3.1"}}, {"uniqueid": "w34238420:a43417969", "current_trial": 13, "dateTime": 1691144147213, "trialdata": {"rt": 143904, "response": {"Q0": "The cost for clicking on nodes may vary between nodes.", "Q1": "I will receive a $1 bonus if I perform well, otherwise I will receive no bonus.", "Q2": "No, the structure of the web will be different each time.", "Q3": "To get the highest total score.", "Q4": "Only before moving the spider.", "Q5": "3 seconds"}, "question_order": [0, 1, 2, 3, 4, 5], "correct": {"Q0": "The cost for clicking on nodes may vary between nodes.", "Q1": "The better I perform the higher my bonus will be.", "Q2": "No, the amount of cash at each node of the web may be different each time.", "Q3": "To get the highest total score.", "Q4": "Only before moving the spider.", "Q5": "3 seconds"}, "trial_id": "mouselab_quiz_control", "trial_type": "survey-multi-choice", "trial_index": 13, "time_elapsed": 1318184, "internal_node_id": "0.0-2.1-4.1"}}, {"uniqueid": "w34238420:a43417969", "current_trial": 14, "dateTime": 1691144229629, "trialdata": {"success": true, "trial_type": "fullscreen", "trial_index": 14, "time_elapsed": 1400600, "internal_node_id": "0.0-2.2-0.2"}}, {"uniqueid": "w34238420:a43417969", "current_trial": 15, "dateTime": 1691144371262, "trialdata": {"view_history": [{"page_index": 0, "viewing_time": 52439}, {"page_index": 1, "viewing_time": 77759}, {"page_index": 2, "viewing_time": 10260}, {"page_index": 3, "viewing_time": 1172}], "rt": 141631, "trial_id": "mouselab_instructions_1_control", "trial_type": "instructions", "trial_index": 15, "time_elapsed": 1542233, "internal_node_id": "0.0-2.2-1.2"}}, {"uniqueid": "w34238420:a43417969", "current_trial": 16, "dateTime": 1691144382595, "trialdata": {"revealed_states": [], "clicked_states": ["23"], "num_clicks_accrued": [0, 0, 0, 0, 0, 0, 0, 0, 0, 0, 0, 0, 0], "stateRewards": ["", -10, -10, -10, -10, -10, -10, 10, -10, 10, 10, -10, -10, -10, 10, -10, -10, 10, 10, 10, 10, -10, -10, 10, -10, -10, 10, -10, -10, 10, 10, 10, 10, -10], "withholdReward": false, "trial_id": "practice_1", "block": "test", "trialIndex": 4, "score": -7, "costs": -0.5, "simulationMode": [null, null, null, null, null], "rewards": [10, -10, -10, 10, -10], "path": ["0", "0", "23", "24", "25", "26", "27"], "rt": [3272, 653, 193, 213, 299], "actions": ["left", "left", "left", "up", "up"], "actionTimes": [4591, 5775, 6495, 7231, 8055], "queries": {"click": {"state": {"target": ["23"], "time": [2496]}, "edge": {"target": [], "time": []}}, "mouseover": {"state": {"target": ["23"], "time": [2351]}, "edge": {"target": [], "time": []}}, "mouseout": {"state": {"target": ["23", "0", "23"], "time": [834, 2022, 2888]}, "edge": {"target": [], "time": []}}}, "displayed_time": "8.58", "trialTime": 11015, "trial_type": "mouselab-mdp", "trial_index": 16, "time_elapsed": 1553566, "internal_node_id": "0.0-2.2-2.2-0.2"}}, {"uniqueid": "w34238420:a43417969", "current_trial": 17, "dateTime": 1691144395690, "trialdata": {"revealed_states": [], "clicked_states": ["12"], "num_clicks_accrued": [0, 0, 0, 0, 0, 0, 0, 0, 0, 0, 0, 0, 0], "stateRewards": ["", 10, 10, 10, 10, -10, 10, 10, 10, -10, 10, 10, 10, 10, 10, -10, 10, 10, 10, -10, -10, 10, -10, 10, 10, -10, 10, 10, 10, -10, 10, 10, 10, -10], "withholdReward": false, "trial_id": "practice_2", "block": "test", "trialIndex": 5, "score": 33, "costs": -0.5, "simulationMode": [null, null, null, null, null], "rewards": [10, 10, 10, -10, 10], "path": ["0", "0", "12", "13", "14", "15", "16"], "rt": [4924, 173, 168, 251, 139], "actions": ["right", "right", "right", "up", "up"], "actionTimes": [8055, 8767, 9463, 10231, 10895], "queries": {"click": {"state": {"target": ["12"], "time": [5048]}, "edge": {"target": [], "time": []}}, "mouseover": {"state": {"target": ["12"], "time": [4195]}, "edge": {"target": [], "time": []}}, "mouseout": {"state": {"target": ["0", "12"], "time": [3617, 6051]}, "edge": {"target": [], "time": []}}}, "displayed_time": "11.42", "trialTime": 12767, "trial_type": "mouselab-mdp", "trial_index": 17, "time_elapsed": 1566661, "internal_node_id": "0.0-2.2-2.2-1.2"}}, {"uniqueid": "w34238420:a43417969", "current_trial": 18, "dateTime": 1691144449505, "trialdata": {"view_history": [{"page_index": 0, "viewing_time": 52067}, {"page_index": 1, "viewing_time": 1744}], "rt": 53811, "trial_id": "mouselab_instructions_2_control", "trial_type": "instructions", "trial_index": 18, "time_elapsed": 1620476, "internal_node_id": "0.0-2.2-3.2"}}, {"uniqueid": "w34238420:a43417969", "current_trial": 19, "dateTime": 1691144505301, "trialdata": {"rt": 55791, "response": {"Q0": "The cost for clicking on nodes may vary between nodes.", "Q1": "The better I perform the higher my bonus will be.", "Q2": "No, the amount of cash at each node of the web may be different each time.", "Q3": "To get the highest total score.", "Q4": "Only before moving the spider.", "Q5": "3 seconds"}, "question_order": [0, 1, 2, 3, 4, 5], "correct": {"Q0": "The cost for clicking on nodes may vary between nodes.", "Q1": "The better I perform the higher my bonus will be.", "Q2": "No, the amount of cash at each node of the web may be different each time.", "Q3": "To get the highest total score.", "Q4": "Only before moving the spider.", "Q5": "3 seconds"}, "trial_id": "mouselab_quiz_control", "trial_type": "survey-multi-choice", "trial_index": 19, "time_elapsed": 1676272, "internal_node_id": "0.0-2.2-4.2"}}, {"uniqueid": "w34238420:a43417969", "current_trial": 20, "dateTime": 1691144512393, "trialdata": {"rt": 7084, "stimulus": "\n<h1> Get ready to start the game! </h1>\n\nThank you for reading the instructions. Get ready start with the 40 rounds of this game.\n<br><br>\nIf you need to take a break, feel free to take one after the end of a round, before continuing to the next one.\n<br><br>\nRemember, the more money the spider gets, the bigger your bonus will be!\n<br><br>\n<div style='text-align: center;'>Press <code>space</code> to begin.</div>\n\n<br><br>\n(If, at any point, the <code>space</code> key does not take you to the next page, click once on the text and try again.)", "response": " ", "trial_id": "mdp_ready", "trial_type": "html-keyboard-response", "trial_index": 20, "time_elapsed": 1683364, "internal_node_id": "0.0-4.0-0.0"}}, {"uniqueid": "w34238420:a43417969", "current_trial": 21, "dateTime": 1691144530633, "trialdata": {"revealed_states": [], "clicked_states": ["1"], "num_clicks_accrued": [0, 0, 0, 0, 0, 0, 0, 0, 0, 0, 0, 0, 0], "stateRewards": ["", 2, -1, -1, 7, 11, -40, -22, -2, 69, 37, 8, -2, 4, -8, -12, -2, -72, -3, -12, 17, 63, 12, 1, 3, -7, 6, 25, 61, 61, -9, 28, -17, 27], "withholdReward": false, "trial_id": "mdp_trial_1", "block": "test", "trialIndex": 6, "score": 26.6, "costs": -1.4, "simulationMode": [null, null, null, null, null], "rewards": [1, 3, -7, 6, 25], "path": ["0", "0", "23", "24", "25", "26", "27"], "rt": [5381, 389, 373, 543, 107], "actions": ["left", "left", "left", "up", "up"], "actionTimes": [7539, 8483, 9379, 10452, 11083], "queries": {"click": {"state": {"target": ["1"], "time": [3981]}, "edge": {"target": [], "time": []}}, "mouseover": {"state": {"target": ["0", "1", "12"], "time": [2376, 3464, 4715]}, "edge": {"target": [], "time": []}}, "mouseout": {"state": {"target": ["3", "2", "1", "0", "0", "1"], "time": [1321, 1494, 1587, 2188, 3260, 4491]}, "edge": {"target": [], "time": []}}}, "displayed_time": "16.16", "trialTime": 17915, "trial_type": "mouselab-mdp", "trial_index": 21, "time_elapsed": 1701603, "internal_node_id": "0.0-4.0-1.0-0.0"}}, {"uniqueid": "w34238420:a43417969", "current_trial": 22, "dateTime": 1691144548073, "trialdata": {"revealed_states": [], "clicked_states": ["13"], "num_clicks_accrued": [0, 0, 0, 0, 0, 0, 0, 0, 0, 0, 0, 0, 0], "stateRewards": ["", 1, -3, -1, 9, -34, -40, 22, -7, 45, 53, -11, 2, 4, 5, 15, 21, 37, -49, -3, 80, -28, -34, 1, -3, 1, 1, -40, -6, -5, -16, -85, -86, 59], "withholdReward": false, "trial_id": "mdp_trial_2", "block": "test", "trialIndex": 7, "score": -24.4, "costs": -1.4, "simulationMode": [null, null, null, null, null], "rewards": [2, 4, 5, 15, -49], "path": ["0", "0", "12", "13", "14", "15", "18"], "rt": [6644, 324, 234, 331, 501], "actions": ["right", "right", "right", "up", "left"], "actionTimes": [8848, 9704, 10480, 11336, 12368], "queries": {"click": {"state": {"target": ["13"], "time": [3957]}, "edge": {"target": [], "time": []}}, "mouseover": {"state": {"target": ["12", "13", "13", "0", "23", "24", "25"], "time": [2689, 3111, 3712, 4851, 4911, 4945, 5005]}, "edge": {"target": [], "time": []}}, "mouseout": {"state": {"target": ["12", "0", "12", "13", "13", "0", "23", "24"], "time": [1517, 2333, 2938, 3454, 4366, 4881, 4942, 4975]}, "edge": {"target": [], "time": []}}}, "displayed_time": "16.20", "trialTime": 17112, "trial_type": "mouselab-mdp", "trial_index": 22, "time_elapsed": 1719043, "internal_node_id": "0.0-4.0-1.0-1.0"}}, {"uniqueid": "w34238420:a43417969", "current_trial": 23, "dateTime": 1691144567008, "trialdata": {"revealed_states": [], "clicked_states": [], "num_clicks_accrued": [0, 0, 0, 0, 0, 0, 0, 0, 0, 0, 0, 0, 0], "stateRewards": ["", 2, -1, 5, 8, 75, -35, -77, 1, -9, -81, -58, 1, 2, -7, 5, 77, -16, 19, 16, -10, -18, 40, -2, 3, 7, -5, 64, 1, -62, 10, 27, 10, 65], "withholdReward": false, "trial_id": "mdp_trial_3", "block": "test", "trialIndex": 8, "score": -2, "costs": 0, "simulationMode": [null, null, null, null, null], "rewards": [2, -1, 5, 1, -9], "path": ["0", "0", "1", "2", "3", "8", "9"], "rt": [1219, 329, 212, 141, 65], "actions": ["up", "up", "up", "left", "up"], "actionTimes": [4455, 5303, 6031, 6711, 7287], "queries": {"click": {"state": {"target": [], "time": []}, "edge": {"target": [], "time": []}}, "mouseover": {"state": {"target": [], "time": []}, "edge": {"target": [], "time": []}}, "mouseout": {"state": {"target": ["25", "24"], "time": [1560, 2371]}, "edge": {"target": [], "time": []}}}, "displayed_time": "17.24", "trialTime": 18607, "trial_type": "mouselab-mdp", "trial_index": 23, "time_elapsed": 1737979, "internal_node_id": "0.0-4.0-1.0-2.0"}}, {"uniqueid": "w34238420:a43417969", "current_trial": 24, "dateTime": 1691144589048, "trialdata": {"revealed_states": [], "clicked_states": ["27"], "num_clicks_accrued": [0, 0, 0, 0, 0, 0, 0, 0, 0, 0, 0, 0, 0], "stateRewards": ["", 1, -3, 4, 13, -72, 52, 5, 5, -58, 5, 14, 2, 1, 3, -14, -86, -4, 73, 6, -58, -50, 49, 2, -3, -4, 2, 33, -41, 42, -11, 81, 45, 53], "withholdReward": false, "trial_id": "mdp_trial_4", "block": "test", "trialIndex": 9, "score": 28.6, "costs": -1.4, "simulationMode": [null, null, null, null, null], "rewards": [2, -3, -4, 2, 33], "path": ["0", "0", "23", "24", "25", "26", "27"], "rt": [5995, 177, 151, 417, 331], "actions": ["left", "left", "left", "up", "up"], "actionTimes": [10014, 10726, 11398, 12334, 13205], "queries": {"click": {"state": {"target": ["27"], "time": [6951]}, "edge": {"target": [], "time": []}}, "mouseover": {"state": {"target": ["23", "24", "24", "26", "27", "26", "24"], "time": [4584, 4928, 5333, 6038, 6741, 7484, 7570]}, "edge": {"target": [], "time": []}}, "mouseout": {"state": {"target": ["0", "0", "23", "23", "0", "23", "24", "24", "26", "27", "26", "24"], "time": [2130, 3066, 3129, 3411, 4553, 4647, 5130, 5693, 6506, 7282, 7513, 7601]}, "edge": {"target": [], "time": []}}}, "displayed_time": "18.02", "trialTime": 21686, "trial_type": "mouselab-mdp", "trial_index": 24, "time_elapsed": 1760019, "internal_node_id": "0.0-4.0-1.0-3.0"}}, {"uniqueid": "w34238420:a43417969", "current_trial": 25, "dateTime": 1691144609392, "trialdata": {"revealed_states": [], "clicked_states": [], "num_clicks_accrued": [0, 0, 0, 0, 0, 0, 0, 0, 0, 0, 0, 0, 0], "stateRewards": ["", -2, -4, 6, 14, -34, 49, 36, -8, -3, 32, -4, 1, -2, 1, -8, -20, -71, -57, -7, -86, -62, -16, -2, -3, -5, 11, 23, -21, 53, 5, -5, 85, 73], "withholdReward": false, "trial_id": "mdp_trial_5", "block": "test", "trialIndex": 10, "score": -20, "costs": 0, "simulationMode": [null, null, null, null, null], "rewards": [-2, -4, 6, 14, -34], "path": ["0", "0", "1", "2", "3", "4", "5"], "rt": [10031, 121, 155, 118, 1464], "actions": ["up", "up", "up", "right", "up"], "actionTimes": [11358, 12029, 12709, 13349, 15342], "queries": {"click": {"state": {"target": [], "time": []}, "edge": {"target": [], "time": []}}, "mouseover": {"state": {"target": ["1", "4", "2", "1", "0", "1", "2", "3", "4", "7"], "time": [1857, 2872, 3450, 3560, 3809, 3998, 4200, 4466, 4797, 5602]}, "edge": {"target": [], "time": []}}, "mouseout": {"state": {"target": ["23", "1", "4", "2", "1", "0", "1", "2", "3", "4", "7"], "time": [280, 1981, 2981, 3481, 3700, 3934, 4106, 4356, 4669, 5575, 5628]}, "edge": {"target": [], "time": []}}}, "displayed_time": "15.88", "trialTime": 19990, "trial_type": "mouselab-mdp", "trial_index": 25, "time_elapsed": 1780363, "internal_node_id": "0.0-4.0-1.0-4.0"}}, {"uniqueid": "w34238420:a43417969", "current_trial": 26, "dateTime": 1691144627312, "trialdata": {"revealed_states": [], "clicked_states": ["1"], "num_clicks_accrued": [0, 0, 0, 0, 0, 0, 0, 0, 0, 0, 0, 0, 0], "stateRewards": ["", -1, -4, -6, -15, 21, -67, -63, 9, 51, 69, -14, -1, 3, 8, -8, 39, 72, 63, 15, 19, 47, 15, 1, 4, 5, 16, -18, 34, 35, -14, -80, 40, 1], "withholdReward": false, "trial_id": "mdp_trial_6", "block": "test", "trialIndex": 11, "score": 6.600000000000001, "costs": -1.4, "simulationMode": [null, null, null, null, null], "rewards": [1, 4, 5, 16, -18], "path": ["0", "0", "23", "24", "25", "26", "27"], "rt": [3856, 490, 105, 125, 95], "actions": ["left", "left", "left", "up", "up"], "actionTimes": [6166, 7189, 7813, 8469, 9085], "queries": {"click": {"state": {"target": ["1"], "time": [3002]}, "edge": {"target": [], "time": []}}, "mouseover": {"state": {"target": ["1", "12"], "time": [2935, 3798]}, "edge": {"target": [], "time": []}}, "mouseout": {"state": {"target": ["1", "23", "0", "1", "12", "1", "2", "9", "6", "18"], "time": [1544, 1669, 2466, 3662, 3826, 16169, 16248, 16310, 16684, 16841]}, "edge": {"target": [], "time": []}}}, "displayed_time": "16.33", "trialTime": 17597, "trial_type": "mouselab-mdp", "trial_index": 26, "time_elapsed": 1798283, "internal_node_id": "0.0-4.0-1.0-5.0"}}, {"uniqueid": "w34238420:a43417969", "current_trial": 27, "dateTime": 1691144644719, "trialdata": {"revealed_states": [], "clicked_states": ["5"], "num_clicks_accrued": [0, 0, 0, 0, 0, 0, 0, 0, 0, 0, 0, 0, 0], "stateRewards": ["", 2, 4, -5, 7, 81, 35, 6, 11, 14, -72, 42, -1, 2, 3, -7, -77, -44, -40, -15, -85, 51, -32, -2, -1, -5, 7, -74, 47, 52, 16, -49, 48, -46], "withholdReward": false, "trial_id": "mdp_trial_7", "block": "test", "trialIndex": 12, "score": 87.6, "costs": -1.4, "simulationMode": [null, null, null, null, null], "rewards": [2, 4, -5, 7, 81], "path": ["0", "0", "1", "2", "3", "4", "5"], "rt": [3904, 56, 68, 209, 126], "actions": ["up", "up", "up", "right", "up"], "actionTimes": [5454, 6038, 6654, 7406, 8062], "queries": {"click": {"state": {"target": ["5"], "time": [2711]}, "edge": {"target": [], "time": []}}, "mouseover": {"state": {"target": ["12", "4", "5", "4", "13"], "time": [1829, 2344, 2547, 3086, 3573]}, "edge": {"target": [], "time": []}}, "mouseout": {"state": {"target": ["0", "12", "12", "4", "5", "4"], "time": [671, 951, 1969, 2469, 2977, 3198]}, "edge": {"target": [], "time": []}}}, "displayed_time": "15.55", "trialTime": 17070, "trial_type": "mouselab-mdp", "trial_index": 27, "time_elapsed": 1815690, "internal_node_id": "0.0-4.0-1.0-6.0"}}, {"uniqueid": "w34238420:a43417969", "current_trial": 28, "dateTime": 1691144664088, "trialdata": {"revealed_states": [], "clicked_states": ["8"], "num_clicks_accrued": [0, 0, 0, 0, 0, 0, 0, 0, 0, 0, 0, 0, 0], "stateRewards": ["", 2, 3, 8, 14, 69, -27, 17, 2, -71, -65, -10, 2, -3, 7, 8, 65, -10, 65, -12, 73, -12, 13, -2, -2, 6, 10, -79, -69, -18, 10, -85, 67, 74], "withholdReward": false, "trial_id": "mdp_trial_8", "block": "test", "trialIndex": 13, "score": -68.4, "costs": -1.4, "simulationMode": [null, null, null, null, null], "rewards": [-2, -2, 6, 10, -79], "path": ["0", "0", "23", "24", "25", "26", "27"], "rt": [6687, 334, 89, 184, 18], "actions": ["left", "left", "left", "up", "up"], "actionTimes": [9390, 10246, 10870, 11574, 12107], "queries": {"click": {"state": {"target": ["8"], "time": [4587]}, "edge": {"target": [], "time": []}}, "mouseover": {"state": {"target": ["10", "8", "9", "8", "10", "10"], "time": [2959, 3084, 3616, 4318, 4932, 5200]}, "edge": {"target": [], "time": []}}, "mouseout": {"state": {"target": ["13", "15", "16", "1", "10", "1", "10", "8", "9", "8", "8", "10"], "time": [413, 460, 506, 1896, 2098, 2208, 3005, 3225, 4068, 4651, 4847, 5078]}, "edge": {"target": [], "time": []}}}, "displayed_time": "16.70", "trialTime": 19022, "trial_type": "mouselab-mdp", "trial_index": 28, "time_elapsed": 1835058, "internal_node_id": "0.0-4.0-1.0-7.0"}}, {"uniqueid": "w34238420:a43417969", "current_trial": 29, "dateTime": 1691144685808, "trialdata": {"revealed_states": [], "clicked_states": ["5"], "num_clicks_accrued": [0, 0, 0, 0, 0, 0, 0, 0, 0, 0, 0, 0, 0], "stateRewards": ["", -2, 2, 8, -6, -25, 3, 87, 2, -62, -2, 74, -2, -1, 2, -1, 79, 49, -37, -14, 5, 67, -9, -1, 2, -2, 5, 15, 38, 32, -14, -38, -38, 30], "withholdReward": false, "trial_id": "mdp_trial_9", "block": "test", "trialIndex": 14, "score": 50.6, "costs": -1.4, "simulationMode": [null, null, null, null, null], "rewards": [-2, -1, 2, -14, 67], "path": ["0", "0", "12", "13", "14", "19", "21"], "rt": [6309, 181, 73, 306, 173], "actions": ["right", "right", "right", "down", "down"], "actionTimes": [8609, 9305, 9914, 10745, 11441], "queries": {"click": {"state": {"target": ["5"], "time": [4186]}, "edge": {"target": [], "time": []}}, "mouseover": {"state": {"target": ["0", "7", "4", "5", "4", "7"], "time": [2610, 3258, 3618, 3961, 4745, 4964]}, "edge": {"target": [], "time": []}}, "mouseout": {"state": {"target": ["10", "0", "7", "4", "5", "4", "7"], "time": [1538, 2993, 3283, 3727, 4612, 4906, 5321]}, "edge": {"target": [], "time": []}}}, "displayed_time": "16.30", "trialTime": 21354, "trial_type": "mouselab-mdp", "trial_index": 29, "time_elapsed": 1856778, "internal_node_id": "0.0-4.0-1.0-8.0"}}, {"uniqueid": "w34238420:a43417969", "current_trial": 30, "dateTime": 1691144706415, "trialdata": {"revealed_states": [], "clicked_states": ["11"], "num_clicks_accrued": [0, 0, 0, 0, 0, 0, 0, 0, 0, 0, 0, 0, 0], "stateRewards": ["", -2, -4, -8, 8, 63, -50, -19, -7, -17, -31, 31, 1, 3, -5, 12, -35, -63, -29, -4, -17, -75, -79, -2, -3, -2, 8, -3, -85, 10, -2, -82, -82, 56], "withholdReward": false, "trial_id": "mdp_trial_10", "block": "test", "trialIndex": 15, "score": 8.600000000000001, "costs": -1.4, "simulationMode": [null, null, null, null, null], "rewards": [-2, -4, -8, -7, 31], "path": ["0", "0", "1", "2", "3", "8", "11"], "rt": [4975, 274, 393, 512, 110], "actions": ["up", "up", "up", "left", "left"], "actionTimes": [6297, 7113, 8041, 9089, 9738], "queries": {"click": {"state": {"target": ["11"], "time": [2723]}, "edge": {"target": [], "time": []}}, "mouseover": {"state": {"target": ["1", "2", "8", "11", "7"], "time": [1859, 1999, 2187, 2577, 3422]}, "edge": {"target": [], "time": []}}, "mouseout": {"state": {"target": ["23", "1", "2", "8", "11", "7", "18", "0", "15", "7", "0", "27", "3", "8", "10", "23"], "time": [514, 1921, 2077, 2281, 3365, 3451, 12358, 12437, 16968, 17015, 18374, 18718, 18937, 19640, 19733, 19953]}, "edge": {"target": [], "time": []}}}, "displayed_time": "15.32", "trialTime": 20233, "trial_type": "mouselab-mdp", "trial_index": 30, "time_elapsed": 1877386, "internal_node_id": "0.0-4.0-1.0-9.0"}}, {"uniqueid": "w34238420:a43417969", "current_trial": 31, "dateTime": 1691144723246, "trialdata": {"revealed_states": [], "clicked_states": ["5"], "num_clicks_accrued": [0, 0, 0, 0, 0, 0, 0, 0, 0, 0, 0, 0, 0], "stateRewards": ["", -1, -1, 4, -16, -75, 81, -51, -7, -84, 73, -30, -2, 1, -3, -16, -77, 33, 14, 1, 45, 87, -66, 2, 2, -5, -7, -19, -17, 79, -3, 8, 49, 47], "withholdReward": false, "trial_id": "mdp_trial_11", "block": "test", "trialIndex": 16, "score": -36.4, "costs": -1.4, "simulationMode": [null, null, null, null, null], "rewards": [-1, -1, 4, -7, -30], "path": ["0", "0", "1", "2", "3", "8", "11"], "rt": [5627, 105, 17, 730, 501], "actions": ["up", "up", "up", "left", "left"], "actionTimes": [7334, 7974, 8512, 9766, 10790], "queries": {"click": {"state": {"target": ["5"], "time": [2795]}, "edge": {"target": [], "time": []}}, "mouseover": {"state": {"target": ["7", "4", "5", "4", "18"], "time": [1896, 2333, 2490, 3487, 3707]}, "edge": {"target": [], "time": []}}, "mouseout": {"state": {"target": ["0", "7", "4", "5", "4", "18"], "time": [1189, 1921, 2358, 3379, 3570, 3738]}, "edge": {"target": [], "time": []}}}, "displayed_time": "15.71", "trialTime": 16478, "trial_type": "mouselab-mdp", "trial_index": 31, "time_elapsed": 1894217, "internal_node_id": "0.0-4.0-1.0-10.0"}}, {"uniqueid": "w34238420:a43417969", "current_trial": 32, "dateTime": 1691144742725, "trialdata": {"revealed_states": [], "clicked_states": ["32"], "num_clicks_accrued": [0, 0, 0, 0, 0, 0, 0, 0, 0, 0, 0, 0, 0], "stateRewards": ["", -2, -4, -6, 12, -58, -70, -80, 2, 16, -88, -62, 1, 2, -5, 11, 77, -35, -44, -5, 18, -83, 87, 1, -3, -5, 13, -44, -21, -86, 10, -52, 8, 29], "withholdReward": false, "trial_id": "mdp_trial_12", "block": "test", "trialIndex": 17, "score": -39.4, "costs": -1.4, "simulationMode": [null, null, null, null, null], "rewards": [1, -3, -5, 13, -44], "path": ["0", "0", "23", "24", "25", "26", "27"], "rt": [5545, 157, 147, 106, 170], "actions": ["left", "left", "left", "up", "up"], "actionTimes": [8504, 9192, 9872, 10504, 11200], "queries": {"click": {"state": {"target": ["32"], "time": [4186]}, "edge": {"target": [], "time": []}}, "mouseover": {"state": {"target": ["0", "23", "31", "32"], "time": [3513, 3590, 3730, 3950]}, "edge": {"target": [], "time": []}}, "mouseout": {"state": {"target": ["12", "0", "23", "31", "32"], "time": [2277, 3543, 3616, 3756, 5220]}, "edge": {"target": [], "time": []}}}, "displayed_time": "16.96", "trialTime": 19135, "trial_type": "mouselab-mdp", "trial_index": 32, "time_elapsed": 1913696, "internal_node_id": "0.0-4.0-1.0-11.0"}}, {"uniqueid": "w34238420:a43417969", "current_trial": 33, "dateTime": 1691144763470, "trialdata": {"revealed_states": [], "clicked_states": [], "num_clicks_accrued": [0, 0, 0, 0, 0, 0, 0, 0, 0, 0, 0, 0, 0], "stateRewards": ["", 2, 4, 7, 7, -79, -2, -21, -5, -53, 47, -21, 1, -3, -1, 7, 83, 7, 84, -7, 80, -37, 69, 2, -4, 5, 2, 4, -20, -30, 7, 71, 44, -81], "withholdReward": false, "trial_id": "mdp_trial_13", "block": "test", "trialIndex": 18, "score": 59, "costs": 0, "simulationMode": [null, null, null, null, null], "rewards": [1, -3, -1, -7, 69], "path": ["0", "0", "12", "13", "14", "19", "22"], "rt": [1316, 16, 743, 1150, 179], "actions": ["right", "right", "right", "down", "left"], "actionTimes": [5865, 6401, 7672, 9368, 10072], "queries": {"click": {"state": {"target": [], "time": []}, "edge": {"target": [], "time": []}}, "mouseover": {"state": {"target": [], "time": []}, "edge": {"target": [], "time": []}}, "mouseout": {"state": {"target": ["32", "0"], "time": [3439, 4062]}, "edge": {"target": [], "time": []}}}, "displayed_time": "18.55", "trialTime": 20353, "trial_type": "mouselab-mdp", "trial_index": 33, "time_elapsed": 1934441, "internal_node_id": "0.0-4.0-1.0-12.0"}}, {"uniqueid": "w34238420:a43417969", "current_trial": 34, "dateTime": 1691144782164, "trialdata": {"revealed_states": [], "clicked_states": [], "num_clicks_accrued": [0, 0, 0, 0, 0, 0, 0, 0, 0, 0, 0, 0, 0], "stateRewards": ["", -2, 1, -7, -8, -37, -76, -87, 11, 30, -63, 80, -1, 4, 2, -1, 42, 17, 52, -3, -75, -80, -68, 2, -3, -5, -15, -48, 82, 24, -7, 5, -22, -71], "withholdReward": false, "trial_id": "mdp_trial_14", "block": "test", "trialIndex": 19, "score": -103, "costs": 0, "simulationMode": [null, null, null, null, null], "rewards": [-2, 1, -7, -8, -87], "path": ["0", "0", "1", "2", "3", "4", "7"], "rt": [2697, 383, 19, 259, 263], "actions": ["up", "up", "up", "right", "down"], "actionTimes": [4700, 5612, 6157, 6948, 7756], "queries": {"click": {"state": {"target": [], "time": []}, "edge": {"target": [], "time": []}}, "mouseover": {"state": {"target": [], "time": []}, "edge": {"target": [], "time": []}}, "mouseout": {"state": {"target": ["0"], "time": [1784]}, "edge": {"target": [], "time": []}}}, "displayed_time": "16.00", "trialTime": 18348, "trial_type": "mouselab-mdp", "trial_index": 34, "time_elapsed": 1953135, "internal_node_id": "0.0-4.0-1.0-13.0"}}, {"uniqueid": "w34238420:a43417969", "current_trial": 35, "dateTime": 1691144802766, "trialdata": {"revealed_states": [], "clicked_states": ["27"], "num_clicks_accrued": [0, 0, 0, 0, 0, 0, 0, 0, 0, 0, 0, 0, 0], "stateRewards": ["", -2, 3, -1, 2, -72, 63, 20, -1, 62, -66, 39, -2, 3, -6, 14, 22, 47, 1, 8, -49, -1, -41, 2, 2, -6, -16, -64, -60, -34, 16, 54, 22, -7], "withholdReward": false, "trial_id": "mdp_trial_15", "block": "test", "trialIndex": 20, "score": 20.6, "costs": -1.4, "simulationMode": [null, null, null, null, null], "rewards": [-2, 3, -1, 2, 20], "path": ["0", "0", "1", "2", "3", "4", "7"], "rt": [5605, 47, 1049, 754, 474], "actions": ["up", "up", "up", "right", "down"], "actionTimes": [8001, 8577, 10169, 11465, 12465], "queries": {"click": {"state": {"target": ["27"], "time": [4247]}, "edge": {"target": [], "time": []}}, "mouseover": {"state": {"target": ["0", "0", "24", "25", "27"], "time": [2671, 3172, 3265, 3498, 4030]}, "edge": {"target": [], "time": []}}, "mouseout": {"state": {"target": ["0", "0", "0", "24", "25", "27", "26", "25", "30"], "time": [1997, 2968, 3197, 3328, 3538, 4735, 19186, 19297, 19484]}, "edge": {"target": [], "time": []}}}, "displayed_time": "16.40", "trialTime": 20209, "trial_type": "mouselab-mdp", "trial_index": 35, "time_elapsed": 1973736, "internal_node_id": "0.0-4.0-1.0-14.0"}}, {"uniqueid": "w34238420:a43417969", "current_trial": 36, "dateTime": 1691144819916, "trialdata": {"revealed_states": [], "clicked_states": [], "num_clicks_accrued": [0, 0, 0, 0, 0, 0, 0, 0, 0, 0, 0, 0, 0], "stateRewards": ["", -1, 1, 8, -8, -49, 62, -78, 16, 28, -81, 78, -2, -3, -1, -4, 67, 49, -2, -13, -16, -39, 83, 1, -4, 4, -5, -20, 7, 84, 7, -32, -59, 19], "withholdReward": false, "trial_id": "mdp_trial_16", "block": "test", "trialIndex": 21, "score": -35, "costs": 0, "simulationMode": [null, null, null, null, null], "rewards": [-2, -3, -1, -13, -16], "path": ["0", "0", "12", "13", "14", "19", "20"], "rt": [2980, 43, 219, 507, 100], "actions": ["right", "right", "right", "down", "right"], "actionTimes": [4985, 5553, 6321, 7345, 7969], "queries": {"click": {"state": {"target": [], "time": []}, "edge": {"target": [], "time": []}}, "mouseover": {"state": {"target": [], "time": []}, "edge": {"target": [], "time": []}}, "mouseout": {"state": {"target": ["30", "31", "23", "0"], "time": [266, 485, 1533, 2298]}, "edge": {"target": [], "time": []}}}, "displayed_time": "16.00", "trialTime": 16817, "trial_type": "mouselab-mdp", "trial_index": 36, "time_elapsed": 1990887, "internal_node_id": "0.0-4.0-1.0-15.0"}}, {"uniqueid": "w34238420:a43417969", "current_trial": 37, "dateTime": 1691144838532, "trialdata": {"revealed_states": [], "clicked_states": ["2"], "num_clicks_accrued": [0, 0, 0, 0, 0, 0, 0, 0, 0, 0, 0, 0, 0], "stateRewards": ["", -2, -3, -6, -7, 9, 16, 65, 5, -41, 20, -25, -1, -4, 1, -11, -49, -4, 71, 1, 39, -62, 52, -2, -3, 7, -9, -28, -70, 84, 8, 24, -58, 82], "withholdReward": false, "trial_id": "mdp_trial_17", "block": "test", "trialIndex": 22, "score": 32.6, "costs": -1.4, "simulationMode": [null, null, null, null, null], "rewards": [-2, -3, 7, 8, 24], "path": ["0", "0", "23", "24", "25", "30", "31"], "rt": [5031, 584, 427, 900, 500], "actions": ["left", "left", "left", "down", "right"], "actionTimes": [6814, 7934, 8886, 10310, 11334], "queries": {"click": {"state": {"target": ["2"], "time": [3548]}, "edge": {"target": [], "time": []}}, "mouseover": {"state": {"target": ["1", "2", "7"], "time": [2404, 3014, 3984]}, "edge": {"target": [], "time": []}}, "mouseout": {"state": {"target": ["0", "1", "2", "7"], "time": [1467, 2889, 3615, 4067]}, "edge": {"target": [], "time": []}}}, "displayed_time": "15.78", "trialTime": 18085, "trial_type": "mouselab-mdp", "trial_index": 37, "time_elapsed": 2009503, "internal_node_id": "0.0-4.0-1.0-16.0"}}, {"uniqueid": "w34238420:a43417969", "current_trial": 38, "dateTime": 1691144858051, "trialdata": {"revealed_states": [], "clicked_states": ["15"], "num_clicks_accrued": [0, 0, 0, 0, 0, 0, 0, 0, 0, 0, 0, 0, 0], "stateRewards": ["", -1, 1, 8, -3, -24, 11, -65, -6, -77, 48, 44, -2, 1, -2, -7, -55, -35, 33, 8, -28, 19, -53, -1, -1, -5, -5, -70, 10, 44, 8, -58, -70, 51], "withholdReward": false, "trial_id": "mdp_trial_18", "block": "test", "trialIndex": 23, "score": -76.4, "costs": -1.4, "simulationMode": [null, null, null, null, null], "rewards": [-1, 1, 8, -6, -77], "path": ["0", "0", "1", "2", "3", "8", "9"], "rt": [5160, 2332, 295, 1218, 294], "actions": ["up", "up", "up", "left", "up"], "actionTimes": [9203, 12067, 12891, 14644, 15475], "queries": {"click": {"state": {"target": ["15"], "time": [5952]}, "edge": {"target": [], "time": []}}, "mouseover": {"state": {"target": ["1", "2", "2", "18", "15", "14"], "time": [4611, 4737, 5031, 5329, 5708, 6324]}, "edge": {"target": [], "time": []}}, "mouseout": {"state": {"target": ["4", "13", "22", "0", "1", "2", "2", "18", "15", "14"], "time": [2485, 2515, 2546, 4376, 4674, 4845, 5058, 5422, 6241, 6407]}, "edge": {"target": [], "time": []}}}, "displayed_time": "18.04", "trialTime": 19107, "trial_type": "mouselab-mdp", "trial_index": 38, "time_elapsed": 2029022, "internal_node_id": "0.0-4.0-1.0-17.0"}}, {"uniqueid": "w34238420:a43417969", "current_trial": 39, "dateTime": 1691144910021, "trialdata": {"revealed_states": [], "clicked_states": ["27"], "num_clicks_accrued": [0, 0, 0, 0, 0, 0, 0, 0, 0, 0, 0, 0, 0], "stateRewards": ["", 1, -1, 1, 13, 31, -56, 72, 2, 41, 5, 63, -2, -3, -2, 3, -71, -26, 52, 13, -31, 24, -67, 2, -2, 5, 4, 66, 43, 72, 9, 86, -26, 44], "withholdReward": false, "trial_id": "mdp_trial_19", "block": "test", "trialIndex": 24, "score": 73.6, "costs": -1.4, "simulationMode": [null, null, null, null, null], "rewards": [2, -2, 5, 4, 66], "path": ["0", "0", "23", "24", "25", "26", "27"], "rt": [4263, 19, 118, 58, 29], "actions": ["left", "left", "left", "up", "up"], "actionTimes": [7560, 8102, 8759, 9343, 9903], "queries": {"click": {"state": {"target": ["27"], "time": [5076]}, "edge": {"target": [], "time": []}}, "mouseover": {"state": {"target": ["23", "24", "26", "27"], "time": [4163, 4399, 4555, 4695]}, "edge": {"target": [], "time": []}}, "mouseout": {"state": {"target": ["14", "13", "12", "23", "24", "26"], "time": [1444, 1476, 1497, 4351, 4426, 4648]}, "edge": {"target": [], "time": []}}}, "displayed_time": "17.30", "trialTime": 51535, "trial_type": "mouselab-mdp", "trial_index": 39, "time_elapsed": 2080991, "internal_node_id": "0.0-4.0-1.0-18.0"}}, {"uniqueid": "w34238420:a43417969", "current_trial": 40, "dateTime": 1691144976766, "trialdata": {"revealed_states": [], "clicked_states": ["27", "5"], "num_clicks_accrued": [0, 0, 0, 0, 0, 0, 0, 0, 0, 0, 0, 0, 0], "stateRewards": ["", -2, 3, -1, -9, 44, 48, -37, -3, 71, -39, 87, -1, 3, -4, 4, -21, 59, -15, -8, -1, 28, -38, 2, 4, 4, 8, -85, -72, -63, 14, 58, 63, -46], "withholdReward": false, "trial_id": "mdp_trial_20", "block": "test", "trialIndex": 25, "score": 32.2, "costs": -2.8, "simulationMode": [null, null, null, null, null], "rewards": [-2, 3, -1, -9, 44], "path": ["0", "0", "1", "2", "3", "4", "5"], "rt": [9576, 123, 432, 346, 282], "actions": ["up", "up", "up", "right", "up"], "actionTimes": [11997, 12644, 13596, 14476, 15284], "queries": {"click": {"state": {"target": ["27", "5"], "time": [5241, 8789]}, "edge": {"target": [], "time": []}}, "mouseover": {"state": {"target": ["2", "3", "4", "4", "10", "27", "8", "27", "27", "28", "1", "7", "5"], "time": [2953, 3034, 3157, 3438, 3687, 3829, 4224, 4626, 5032, 6033, 7564, 7642, 8593]}, "edge": {"target": [], "time": []}}, "mouseout": {"state": {"target": ["27", "10", "2", "7", "18", "2", "3", "4", "4", "10", "27", "8", "27", "27", "28", "1", "7", "5"], "time": [1312, 1345, 1367, 1388, 1718, 3002, 3078, 3296, 3532, 3765, 4063, 4438, 4719, 5893, 7423, 7589, 7688, 9877]}, "edge": {"target": [], "time": []}}}, "displayed_time": "16.42", "trialTime": 66384, "trial_type": "mouselab-mdp", "trial_index": 40, "time_elapsed": 2147737, "internal_node_id": "0.0-4.0-1.0-19.0"}}, {"uniqueid": "w34238420:a43417969", "current_trial": 41, "dateTime": 1691144993523, "trialdata": {"revealed_states": [], "clicked_states": ["27", "9"], "num_clicks_accrued": [0, 0, 0, 0, 0, 0, 0, 0, 0, 0, 0, 0, 0], "stateRewards": ["", 1, -4, -4, 8, 1, -79, 68, -10, -79, 8, -74, -1, -3, -6, 14, 43, 23, 9, 5, -51, 63, 61, -2, 4, 6, -10, 69, -32, 57, 15, -80, -80, -77], "withholdReward": false, "trial_id": "mdp_trial_21", "block": "test", "trialIndex": 26, "score": 64.2, "costs": -2.8, "simulationMode": [null, null, null, null, null], "rewards": [-2, 4, 6, -10, 69], "path": ["0", "0", "23", "24", "25", "26", "27"], "rt": [5035, 34, 1108, 158, 17], "actions": ["left", "left", "left", "up", "up"], "actionTimes": [6415, 6999, 8639, 9318, 9870], "queries": {"click": {"state": {"target": ["27", "9"], "time": [2760, 4337]}, "edge": {"target": [], "time": []}}, "mouseover": {"state": {"target": ["0", "23", "24", "25", "27", "26", "26", "28", "8", "9", "9", "8", "10"], "time": [1790, 1844, 1874, 1905, 2680, 3230, 3672, 3759, 3872, 3933, 4147, 4684, 4956]}, "edge": {"target": [], "time": []}}, "mouseout": {"state": {"target": ["8", "10", "0", "0", "23", "24", "25", "27", "26", "26", "28", "8", "9", "9", "8", "10", "0", "24", "23", "18", "15", "17", "0"], "time": [194, 351, 1583, 1815, 1871, 1901, 1931, 3185, 3366, 3729, 3789, 3903, 3963, 4653, 4766, 4986, 13337, 14681, 14706, 14761, 14799, 15009, 15447]}, "edge": {"target": [], "time": []}}}, "displayed_time": "15.38", "trialTime": 16366, "trial_type": "mouselab-mdp", "trial_index": 41, "time_elapsed": 2164493, "internal_node_id": "0.0-4.0-1.0-20.0"}}, {"uniqueid": "w34238420:a43417969", "current_trial": 42, "dateTime": 1691145010483, "trialdata": {"revealed_states": [], "clicked_states": ["5", "27"], "num_clicks_accrued": [0, 0, 0, 0, 0, 0, 0, 0, 0, 0, 0, 0, 0], "stateRewards": ["", 1, -4, -6, 11, -20, 8, -30, 1, -38, 88, 42, 2, 3, 5, -12, -8, -74, 30, -8, 67, -19, 42, 2, -1, 4, 13, 50, -68, 2, -8, -15, 87, -46], "withholdReward": false, "trial_id": "mdp_trial_22", "block": "test", "trialIndex": 27, "score": 65.2, "costs": -2.8, "simulationMode": [null, null, null, null, null], "rewards": [2, -1, 4, 13, 50], "path": ["0", "0", "23", "24", "25", "26", "27"], "rt": [4990, 18, 76, 88, 644], "actions": ["left", "left", "left", "up", "up"], "actionTimes": [6464, 7020, 7624, 8232, 9408], "queries": {"click": {"state": {"target": ["5", "27"], "time": [2629, 4211]}, "edge": {"target": [], "time": []}}, "mouseover": {"state": {"target": ["1", "2", "3", "5", "4", "8", "11", "26", "27"], "time": [1603, 1807, 1962, 2369, 2984, 3247, 3381, 3709, 4151]}, "edge": {"target": [], "time": []}}, "mouseout": {"state": {"target": ["10", "1", "12", "0", "1", "2", "3", "5", "4", "8", "11", "26", "27", "15", "15", "20", "21"], "time": [477, 509, 571, 1502, 1712, 1853, 2181, 2913, 3085, 3277, 3465, 3844, 4554, 11668, 11822, 11962, 12009]}, "edge": {"target": [], "time": []}}}, "displayed_time": "15.47", "trialTime": 16609, "trial_type": "mouselab-mdp", "trial_index": 42, "time_elapsed": 2181454, "internal_node_id": "0.0-4.0-1.0-21.0"}}, {"uniqueid": "w34238420:a43417969", "current_trial": 43, "dateTime": 1691145027541, "trialdata": {"revealed_states": [], "clicked_states": ["5", "27"], "num_clicks_accrued": [0, 0, 0, 0, 0, 0, 0, 0, 0, 0, 0, 0, 0], "stateRewards": ["", -2, -1, -4, -15, -14, -67, 32, -3, -59, 63, 31, 2, -1, -7, -15, 71, -66, -27, -3, -54, -39, 72, 2, 1, 1, -13, 77, -40, 35, -9, 35, 75, 57], "withholdReward": false, "trial_id": "mdp_trial_23", "block": "test", "trialIndex": 28, "score": 65.2, "costs": -2.8, "simulationMode": [null, null, null, null, null], "rewards": [2, 1, 1, -13, 77], "path": ["0", "0", "23", "24", "25", "26", "27"], "rt": [5654, 17, 348, 101, 23], "actions": ["left", "left", "left", "up", "up"], "actionTimes": [7047, 7606, 8463, 9087, 9639], "queries": {"click": {"state": {"target": ["5", "27"], "time": [2240, 4692]}, "edge": {"target": [], "time": []}}, "mouseover": {"state": {"target": ["6", "5", "6", "16", "16", "16", "1", "28", "29", "27", "26", "31"], "time": [1846, 2126, 2428, 2463, 2846, 3463, 3892, 3921, 3952, 4548, 5182, 5441]}, "edge": {"target": [], "time": []}}, "mouseout": {"state": {"target": ["0", "6", "5", "6", "16", "16", "16", "1", "28", "29", "27", "26", "31", "10"], "time": [1099, 1879, 2424, 2459, 2521, 3181, 3808, 3917, 3948, 3980, 5124, 5214, 5474, 15501]}, "edge": {"target": [], "time": []}}}, "displayed_time": "15.39", "trialTime": 16705, "trial_type": "mouselab-mdp", "trial_index": 43, "time_elapsed": 2198511, "internal_node_id": "0.0-4.0-1.0-22.0"}}, {"uniqueid": "w34238420:a43417969", "current_trial": 44, "dateTime": 1691145044043, "trialdata": {"revealed_states": [], "clicked_states": ["27", "5", "6"], "num_clicks_accrued": [0, 0, 0, 0, 0, 0, 0, 0, 0, 0, 0, 0, 0], "stateRewards": ["", 1, -2, 7, -14, 88, -56, -44, -14, 64, -51, -57, -2, 3, -4, -9, -11, 19, -77, -1, 68, 75, -67, -1, 1, -2, 5, -37, 70, -34, -10, -72, 63, -41], "withholdReward": false, "trial_id": "mdp_trial_24", "block": "test", "trialIndex": 29, "score": 75.8, "costs": -4.199999999999999, "simulationMode": [null, null, null, null, null, null], "rewards": [1, -2, 7, -14, 88], "path": ["0", "0", "1", "2", "3", "4", "5"], "rt": [6946, 414, 71, 515, 597, 355], "actions": ["up", "up", "up", "up", "right", "up"], "actionTimes": [8291, 8710, 9318, 10358, 11486, 12382], "queries": {"click": {"state": {"target": ["27", "5", "6"], "time": [3092, 5067, 6814]}, "edge": {"target": [], "time": []}}, "mouseover": {"state": {"target": ["27", "27", "27", "27", "11", "9", "9", "5", "6"], "time": [1395, 2072, 2568, 2896, 3279, 3594, 4210, 4820, 6648]}, "edge": {"target": [], "time": []}}, "mouseout": {"state": {"target": ["28", "27", "27", "27", "27", "11", "9", "9", "5", "5", "6", "15", "18", "0"], "time": [271, 1425, 2319, 2655, 3209, 3380, 3994, 4560, 5611, 6416, 7298, 15022, 15210, 15538]}, "edge": {"target": [], "time": []}}}, "displayed_time": "15.35", "trialTime": 16134, "trial_type": "mouselab-mdp", "trial_index": 44, "time_elapsed": 2215014, "internal_node_id": "0.0-4.0-1.0-23.0"}}, {"uniqueid": "w34238420:a43417969", "current_trial": 45, "dateTime": 1691145062086, "trialdata": {"revealed_states": [], "clicked_states": ["9", "5", "16"], "num_clicks_accrued": [0, 0, 0, 0, 0, 0, 0, 0, 0, 0, 0, 0, 0], "stateRewards": ["", -1, -2, -1, -10, -57, 73, -72, -16, 75, -14, -46, -2, -3, -7, -1, -61, -60, 76, -4, 50, 4, 14, 2, 2, -7, 12, -65, -32, 15, -8, -76, -25, -61], "withholdReward": false, "trial_id": "mdp_trial_25", "block": "test", "trialIndex": 30, "score": 50.8, "costs": -4.199999999999999, "simulationMode": [null, null, null, null, null], "rewards": [-1, -2, -1, -16, 75], "path": ["0", "0", "1", "2", "3", "8", "9"], "rt": [6928, 169, 37, 946, 523], "actions": ["up", "up", "up", "left", "up"], "actionTimes": [8050, 8754, 9306, 10778, 11842], "queries": {"click": {"state": {"target": ["9", "5", "16"], "time": [1923, 3554, 5302]}, "edge": {"target": [], "time": []}}, "mouseover": {"state": {"target": ["1", "10", "8", "9", "11", "27", "3", "5", "6", "16", "18"], "time": [1182, 1374, 1640, 1734, 2245, 2670, 3096, 3372, 3823, 4652, 6044]}, "edge": {"target": [], "time": []}}, "mouseout": {"state": {"target": ["0", "0", "1", "10", "8", "9", "11", "27", "3", "5", "6", "16", "18"], "time": [187, 592, 1218, 1437, 1665, 2107, 2382, 2933, 3152, 3765, 4542, 5875, 17439]}, "edge": {"target": [], "time": []}}}, "displayed_time": "15.13", "trialTime": 17654, "trial_type": "mouselab-mdp", "trial_index": 45, "time_elapsed": 2233057, "internal_node_id": "0.0-4.0-1.0-24.0"}}, {"uniqueid": "w34238420:a43417969", "current_trial": 46, "dateTime": 1691145079522, "trialdata": {"revealed_states": [], "clicked_states": ["9", "5"], "num_clicks_accrued": [0, 0, 0, 0, 0, 0, 0, 0, 0, 0, 0, 0, 0], "stateRewards": ["", -2, -1, -1, 5, -54, -87, 35, 2, -8, 20, -22, 1, 3, 6, 13, -75, -32, -55, -3, 56, 62, -22, -1, -4, -1, -7, -51, 84, 70, 7, -15, 5, 55], "withholdReward": false, "trial_id": "mdp_trial_26", "block": "test", "trialIndex": 31, "score": -66.8, "costs": -2.8, "simulationMode": [null, null, null, null, null], "rewards": [-1, -4, -1, -7, -51], "path": ["0", "0", "23", "24", "25", "26", "27"], "rt": [8382, 178, 89, 71, 43], "actions": ["left", "left", "left", "up", "up"], "actionTimes": [9562, 10282, 10898, 11490, 12058], "queries": {"click": {"state": {"target": ["9", "5"], "time": [2175, 5490]}, "edge": {"target": [], "time": []}}, "mouseover": {"state": {"target": ["1", "9", "5", "5", "4", "5", "4", "7", "3", "10"], "time": [1536, 1974, 3019, 3336, 4240, 5162, 6182, 6731, 7881, 8069]}, "edge": {"target": [], "time": []}}, "mouseout": {"state": {"target": ["0", "0", "1", "9", "5", "5", "4", "5", "4", "7", "3", "10"], "time": [599, 1256, 1570, 2455, 3100, 4010, 5036, 6040, 6457, 7272, 7912, 8270]}, "edge": {"target": [], "time": []}}}, "displayed_time": "15.18", "trialTime": 17066, "trial_type": "mouselab-mdp", "trial_index": 46, "time_elapsed": 2250492, "internal_node_id": "0.0-4.0-1.0-25.0"}}, {"uniqueid": "w34238420:a43417969", "current_trial": 47, "dateTime": 1691145114386, "trialdata": {"revealed_states": [], "clicked_states": ["16", "11", "27", "3", "8"], "num_clicks_accrued": [0, 0, 0, 0, 0, 0, 0, 0, 0, 0, 0, 0, 0], "stateRewards": ["", -2, 3, 3, -14, 62, 36, 49, 16, 11, 17, -84, 2, -1, 6, 2, -82, -73, 49, -6, -87, 48, 50, -1, -2, -1, -16, -11, 37, -44, 4, 55, 73, -10], "withholdReward": false, "trial_id": "mdp_trial_27", "block": "test", "trialIndex": 32, "score": 24, "costs": -7, "simulationMode": [null, null, null, null, null], "rewards": [-2, 3, 3, 16, 11], "path": ["0", "0", "1", "2", "3", "8", "9"], "rt": [17806, 56, 341, 461, 9812], "actions": ["up", "up", "up", "left", "up"], "actionTimes": [19241, 19825, 20705, 21689, 32033], "queries": {"click": {"state": {"target": ["16", "11", "27", "3", "8"], "time": [2637, 4753, 8725, 12264, 15481]}, "edge": {"target": [], "time": []}}, "mouseover": {"state": {"target": ["18", "15", "17", "16", "3", "8", "11", "11", "27", "27", "26", "26", "28", "13", "13", "7", "4", "3", "2", "2", "4", "8"], "time": [2065, 2185, 2239, 2505, 3251, 3422, 3562, 3978, 5343, 7440, 9170, 10987, 11193, 11534, 11636, 11784, 11909, 12111, 12738, 14659, 14815, 15237]}, "edge": {"target": [], "time": []}}, "mouseout": {"state": {"target": ["1", "18", "15", "17", "16", "3", "8", "11", "11", "27", "27", "26", "26", "28", "13", "13", "7", "4", "3", "2", "2", "4", "8", "8", "3", "8", "10", "23"], "time": [800, 2159, 2213, 2347, 3086, 3309, 3530, 3592, 5015, 6549, 9058, 9411, 11190, 11219, 11566, 11692, 11831, 11972, 12561, 13135, 14753, 14878, 15794, 24972, 29659, 30191, 30217, 31316]}, "edge": {"target": [], "time": []}}}, "displayed_time": "32.57", "trialTime": 34521, "trial_type": "mouselab-mdp", "trial_index": 47, "time_elapsed": 2285356, "internal_node_id": "0.0-4.0-1.0-26.0"}}, {"uniqueid": "w34238420:a43417969", "current_trial": 48, "dateTime": 1691145139289, "trialdata": {"revealed_states": [], "clicked_states": ["9", "5"], "num_clicks_accrued": [0, 0, 0, 0, 0, 0, 0, 0, 0, 0, 0, 0, 0], "stateRewards": ["", 2, 3, -3, 12, -43, 81, -82, -15, 58, -7, -75, -1, -1, 3, -5, 50, -25, -8, 4, 66, 65, -66, 2, -4, 2, -1, -10, 10, 37, 11, 88, -37, 8], "withholdReward": false, "trial_id": "mdp_trial_28", "block": "test", "trialIndex": 33, "score": 42.2, "costs": -2.8, "simulationMode": [null, null, null, null, null], "rewards": [2, 3, -3, -15, 58], "path": ["0", "0", "1", "2", "3", "8", "9"], "rt": [8703, 389, 94, 152, 493], "actions": ["up", "up", "up", "left", "up"], "actionTimes": [12648, 13552, 14176, 14856, 15872], "queries": {"click": {"state": {"target": ["9", "5"], "time": [7548, 9652]}, "edge": {"target": [], "time": []}}, "mouseover": {"state": {"target": ["0", "2", "3", "8", "9", "8", "5", "5", "6"], "time": [6059, 6905, 6997, 7154, 7421, 8251, 8317, 8835, 10769]}, "edge": {"target": [], "time": []}}, "mouseout": {"state": {"target": ["0", "2", "3", "8", "9", "8", "5", "5", "6", "2", "8", "8", "3", "7", "18", "13", "22"], "time": [6101, 6937, 7024, 7278, 8087, 8282, 8349, 10304, 21933, 22655, 22811, 23139, 23186, 23247, 23389, 23451, 23514]}, "edge": {"target": [], "time": []}}}, "displayed_time": "18.95", "trialTime": 24544, "trial_type": "mouselab-mdp", "trial_index": 48, "time_elapsed": 2310260, "internal_node_id": "0.0-4.0-1.0-27.0"}}, {"uniqueid": "w34238420:a43417969", "current_trial": 49, "dateTime": 1691145155186, "trialdata": {"revealed_states": [], "clicked_states": ["9", "16"], "num_clicks_accrued": [0, 0, 0, 0, 0, 0, 0, 0, 0, 0, 0, 0, 0], "stateRewards": ["", 1, -2, -3, 14, -42, -87, -37, -11, -50, 33, -44, -2, 4, -7, 13, 48, -75, -66, 12, 23, -2, 82, 1, -4, 3, 12, 51, -15, -26, -11, -52, -29, 82], "withholdReward": false, "trial_id": "mdp_trial_29", "block": "test", "trialIndex": 34, "score": 53.2, "costs": -2.8, "simulationMode": [null, null, null, null, null], "rewards": [-2, 4, -7, 13, 48], "path": ["0", "0", "12", "13", "14", "15", "16"], "rt": [7714, 318, 18, 429, 383], "actions": ["right", "right", "right", "up", "up"], "actionTimes": [9089, 9944, 10477, 11425, 12328], "queries": {"click": {"state": {"target": ["9", "16"], "time": [3206, 5745]}, "edge": {"target": [], "time": []}}, "mouseover": {"state": {"target": ["1", "2", "8", "9", "3", "4", "16", "28", "26", "28", "28"], "time": [2111, 2198, 2360, 2907, 3844, 3972, 4378, 6929, 7770, 7935, 8407]}, "edge": {"target": [], "time": []}}, "mouseout": {"state": {"target": ["23", "28", "26", "24", "23", "1", "1", "0", "1", "2", "8", "9", "3", "4", "16", "28", "26", "28", "28"], "time": [186, 218, 391, 468, 491, 608, 859, 1922, 2173, 2234, 2407, 3679, 3937, 4024, 6351, 7485, 7907, 8282, 8433]}, "edge": {"target": [], "time": []}}}, "displayed_time": "15.38", "trialTime": 15521, "trial_type": "mouselab-mdp", "trial_index": 49, "time_elapsed": 2326156, "internal_node_id": "0.0-4.0-1.0-28.0"}}, {"uniqueid": "w34238420:a43417969", "current_trial": 50, "dateTime": 1691145179699, "trialdata": {"revealed_states": [], "clicked_states": ["27", "9", "14", "21"], "num_clicks_accrued": [0, 0, 0, 0, 0, 0, 0, 0, 0, 0, 0, 0, 0], "stateRewards": ["", 2, -3, -4, -1, 25, -16, 16, 10, -71, -20, -55, 1, 3, -4, -9, 1, 32, 11, -6, 32, -50, -41, -1, 4, 4, -8, 7, -81, 70, 2, -52, 45, -10], "withholdReward": false, "trial_id": "mdp_trial_30", "block": "test", "trialIndex": 35, "score": 13.4, "costs": -5.6, "simulationMode": [null, null, null, null, null], "rewards": [2, -3, -4, -1, 25], "path": ["0", "0", "1", "2", "3", "4", "5"], "rt": [14194, 1020, 259, 254, 585], "actions": ["up", "up", "up", "right", "up"], "actionTimes": [16190, 17735, 18518, 19302, 20430], "queries": {"click": {"state": {"target": ["27", "9", "14", "21"], "time": [3528, 5847, 9503, 12463]}, "edge": {"target": [], "time": []}}, "mouseover": {"state": {"target": ["1", "10", "27", "27", "8", "9", "5", "6", "15", "14", "19", "21"], "time": [2603, 2697, 2837, 3353, 4154, 4582, 6573, 8305, 8774, 9243, 10038, 12189]}, "edge": {"target": [], "time": []}}, "mouseout": {"state": {"target": ["0", "1", "10", "27", "27", "8", "9", "5", "6", "15", "14", "19", "21", "21"], "time": [2307, 2631, 2743, 2864, 4012, 4350, 6246, 8180, 8525, 8821, 9725, 11931, 12490, 15010]}, "edge": {"target": [], "time": []}}}, "displayed_time": "20.97", "trialTime": 24151, "trial_type": "mouselab-mdp", "trial_index": 50, "time_elapsed": 2350669, "internal_node_id": "0.0-4.0-1.0-29.0"}}, {"uniqueid": "w34238420:a43417969", "current_trial": 51, "dateTime": 1691145203601, "trialdata": {"revealed_states": [], "clicked_states": [], "num_clicks_accrued": [0, 0, 0, 0, 0, 0, 0, 0, 0, 0, 0, 0, 0], "stateRewards": ["", -2, 1, -3, -16, -39, -52, 30, -7, -41, -59, 11, 2, 1, 8, 2, -11, -26, -42, -13, 87, -59, -48, -1, -1, -1, 16, -79, 31, 50, -1, -84, 34, -82], "withholdReward": false, "trial_id": "mdp_trial_31", "block": "test", "trialIndex": 36, "score": 10, "costs": 0, "simulationMode": [null, null, null, null, null], "rewards": [-2, 1, -3, -16, 30], "path": ["0", "0", "1", "2", "3", "4", "7"], "rt": [7798, 173, 469, 132, 334], "actions": ["up", "up", "up", "right", "down"], "actionTimes": [15318, 16030, 17022, 17678, 18534], "queries": {"click": {"state": {"target": [], "time": []}, "edge": {"target": [], "time": []}}, "mouseover": {"state": {"target": ["0", "1", "2", "10", "10", "3", "8", "9", "9", "11", "27"], "time": [8026, 8116, 8195, 8552, 9147, 9553, 10271, 10460, 11398, 13006, 13209]}, "edge": {"target": [], "time": []}}, "mouseout": {"state": {"target": ["19", "0", "0", "1", "2", "10", "10", "3", "8", "9", "9", "11", "27"], "time": [3208, 7549, 8084, 8162, 8365, 8616, 9173, 9912, 10298, 11006, 12787, 13084, 13234]}, "edge": {"target": [], "time": []}}}, "displayed_time": "21.53", "trialTime": 22583, "trial_type": "mouselab-mdp", "trial_index": 51, "time_elapsed": 2374572, "internal_node_id": "0.0-4.0-1.0-30.0"}}, {"uniqueid": "w34238420:a43417969", "current_trial": 52, "dateTime": 1691145221041, "trialdata": {"revealed_states": [], "clicked_states": ["11", "5", "27"], "num_clicks_accrued": [0, 0, 0, 0, 0, 0, 0, 0, 0, 0, 0, 0, 0], "stateRewards": ["", -2, -4, -2, -13, -15, 87, -19, -6, -80, 30, 12, 1, 1, -8, 2, 55, 56, 15, 11, -68, -7, 55, -2, 3, -3, -3, 48, 62, 4, 1, -3, 69, -33], "withholdReward": false, "trial_id": "mdp_trial_32", "block": "test", "trialIndex": 37, "score": 38.8, "costs": -4.199999999999999, "simulationMode": [null, null, null, null, null], "rewards": [-2, 3, -3, -3, 48], "path": ["0", "0", "23", "24", "25", "26", "27"], "rt": [9633, 124, 17, 92, 68], "actions": ["left", "left", "left", "up", "up"], "actionTimes": [11241, 11897, 12441, 13073, 13657], "queries": {"click": {"state": {"target": ["11", "5", "27"], "time": [3089, 5254, 8745]}, "edge": {"target": [], "time": []}}, "mouseover": {"state": {"target": ["1", "2", "8", "11", "5", "5", "4", "4", "6", "7", "13", "23", "24", "25", "26", "27", "26", "28"], "time": [2095, 2222, 2549, 2846, 4117, 4548, 5834, 7033, 7471, 7612, 7799, 8081, 8145, 8377, 8430, 8626, 9950, 10439]}, "edge": {"target": [], "time": []}}, "mouseout": {"state": {"target": ["0", "1", "2", "8", "11", "5", "5", "4", "4", "6", "7", "13", "23", "24", "25", "26", "27", "26", "28"], "time": [1662, 2190, 2365, 2800, 3616, 4149, 5750, 6030, 7176, 7526, 7659, 7827, 8112, 8237, 8403, 8502, 9116, 10084, 10720]}, "edge": {"target": [], "time": []}}}, "displayed_time": "15.61", "trialTime": 17065, "trial_type": "mouselab-mdp", "trial_index": 52, "time_elapsed": 2392011, "internal_node_id": "0.0-4.0-1.0-31.0"}}, {"uniqueid": "w34238420:a43417969", "current_trial": 53, "dateTime": 1691145238801, "trialdata": {"revealed_states": [], "clicked_states": ["9", "16"], "num_clicks_accrued": [0, 0, 0, 0, 0, 0, 0, 0, 0, 0, 0, 0, 0], "stateRewards": ["", -2, 1, -7, 9, 8, 25, 61, -7, -17, 69, -81, 1, 4, -4, -11, 16, 67, 44, 3, 6, -45, -54, -2, 3, 6, -11, -15, 32, -47, 3, -39, -6, -88], "withholdReward": false, "trial_id": "mdp_trial_33", "block": "test", "trialIndex": 38, "score": 31.2, "costs": -2.8, "simulationMode": [null, null, null, null, null], "rewards": [1, 4, -4, -11, 44], "path": ["0", "0", "12", "13", "14", "15", "18"], "rt": [8219, 103, 480, 1016, 37], "actions": ["right", "right", "right", "up", "left"], "actionTimes": [9868, 10499, 11500, 13044, 13603], "queries": {"click": {"state": {"target": ["9", "16"], "time": [3589, 6394]}, "edge": {"target": [], "time": []}}, "mouseover": {"state": {"target": ["8", "11", "9", "3", "6", "15", "16", "15", "14"], "time": [2430, 3104, 3400, 4575, 5290, 5979, 6244, 6940, 9275]}, "edge": {"target": [], "time": []}}, "mouseout": {"state": {"target": ["12", "0", "8", "11", "9", "3", "6", "15", "16", "15"], "time": [930, 1776, 2774, 3243, 4181, 4689, 5317, 6166, 6767, 7233]}, "edge": {"target": [], "time": []}}}, "displayed_time": "15.65", "trialTime": 17332, "trial_type": "mouselab-mdp", "trial_index": 53, "time_elapsed": 2409771, "internal_node_id": "0.0-4.0-1.0-32.0"}}, {"uniqueid": "w34238420:a43417969", "current_trial": 54, "dateTime": 1691145259841, "trialdata": {"revealed_states": [], "clicked_states": ["27", "5", "21"], "num_clicks_accrued": [0, 0, 0, 0, 0, 0, 0, 0, 0, 0, 0, 0, 0], "stateRewards": ["", -1, 2, -7, -12, -62, 12, -13, 5, 77, -71, 83, 1, -4, 7, 15, -42, -87, -4, 5, -25, 44, 88, -1, 4, -5, -8, 14, 51, 8, -5, 83, -24, -19], "withholdReward": false, "trial_id": "mdp_trial_34", "block": "test", "trialIndex": 39, "score": 48.8, "costs": -4.199999999999999, "simulationMode": [null, null, null, null, null], "rewards": [1, -4, 7, 5, 44], "path": ["0", "0", "12", "13", "14", "19", "21"], "rt": [10002, 396, 588, 103, 81], "actions": ["right", "right", "right", "down", "down"], "actionTimes": [15122, 16074, 17194, 17811, 18442], "queries": {"click": {"state": {"target": ["27", "5", "21"], "time": [6463, 9764, 12167]}, "edge": {"target": [], "time": []}}, "mouseover": {"state": {"target": ["23", "28", "27", "10", "2", "3", "9", "5", "14", "19", "19", "20", "21"], "time": [5734, 5953, 6313, 7060, 7125, 7242, 7535, 9328, 10843, 10933, 11262, 11389, 11734]}, "edge": {"target": [], "time": []}}, "mouseout": {"state": {"target": ["14", "23", "31", "24", "12", "13", "12", "0", "23", "28", "27", "10", "2", "3", "9", "5", "14", "19", "19", "20", "21"], "time": [1014, 1311, 1624, 2155, 2357, 2607, 2936, 3030, 5828, 6015, 7000, 7121, 7185, 7328, 8437, 10333, 10901, 11120, 11342, 11531, 13229]}, "edge": {"target": [], "time": []}}}, "displayed_time": "19.12", "trialTime": 20675, "trial_type": "mouselab-mdp", "trial_index": 54, "time_elapsed": 2430812, "internal_node_id": "0.0-4.0-1.0-33.0"}}, {"uniqueid": "w34238420:a43417969", "current_trial": 55, "dateTime": 1691145278729, "trialdata": {"revealed_states": [], "clicked_states": ["9", "5"], "num_clicks_accrued": [0, 0, 0, 0, 0, 0, 0, 0, 0, 0, 0, 0, 0], "stateRewards": ["", 1, 2, -3, -6, 50, -7, 7, -7, -80, 21, -1, 2, 2, 4, -1, 33, 84, 1, 14, -53, 81, 6, -2, -2, -3, -9, -87, -38, -59, -5, -74, -3, -71], "withholdReward": false, "trial_id": "mdp_trial_35", "block": "test", "trialIndex": 40, "score": 41.2, "costs": -2.8, "simulationMode": [null, null, null, null, null], "rewards": [1, 2, -3, -6, 50], "path": ["0", "0", "1", "2", "3", "4", "5"], "rt": [6574, 163, 445, 378, 61], "actions": ["up", "up", "up", "right", "up"], "actionTimes": [8268, 8964, 9941, 10844, 11428], "queries": {"click": {"state": {"target": ["9", "5"], "time": [3378, 5429]}, "edge": {"target": [], "time": []}}, "mouseover": {"state": {"target": ["1", "2", "8", "9", "5", "5", "4", "3", "10", "28"], "time": [2372, 2543, 3137, 3231, 4121, 4932, 5980, 6179, 6347, 7231]}, "edge": {"target": [], "time": []}}, "mouseout": {"state": {"target": ["0", "1", "2", "8", "9", "5", "5", "5", "4", "3", "10", "28", "8", "3"], "time": [2262, 2496, 2622, 3163, 3814, 4642, 5498, 5868, 6065, 6238, 6378, 7452, 15653, 16043]}, "edge": {"target": [], "time": []}}}, "displayed_time": "15.70", "trialTime": 18341, "trial_type": "mouselab-mdp", "trial_index": 55, "time_elapsed": 2449699, "internal_node_id": "0.0-4.0-1.0-34.0"}}, {"uniqueid": "w34238420:a43417969", "current_trial": 56, "dateTime": 1691145300237, "trialdata": {"revealed_states": [], "clicked_states": ["27", "5", "9"], "num_clicks_accrued": [0, 0, 0, 0, 0, 0, 0, 0, 0, 0, 0, 0, 0], "stateRewards": ["", 1, -3, -2, 14, 49, -40, -39, 2, 26, -61, 73, 1, -4, -8, 12, 79, 29, -65, -13, 55, -26, 27, -1, 3, 3, 9, -17, -60, -18, -8, 35, -88, 69], "withholdReward": false, "trial_id": "mdp_trial_36", "block": "test", "trialIndex": 41, "score": 54.8, "costs": -4.199999999999999, "simulationMode": [null, null, null, null, null], "rewards": [1, -3, -2, 14, 49], "path": ["0", "0", "1", "2", "3", "4", "5"], "rt": [11572, 66, 427, 243, 31], "actions": ["up", "up", "up", "right", "up"], "actionTimes": [13378, 13961, 14905, 15673, 16233], "queries": {"click": {"state": {"target": ["27", "5", "9"], "time": [3611, 6634, 10722]}, "edge": {"target": [], "time": []}}, "mouseover": {"state": {"target": ["28", "27", "8", "4", "16", "16", "6", "5", "9", "8", "10", "24", "32", "24", "28", "9", "8", "10"], "time": [2563, 3219, 4145, 4236, 4299, 4607, 5953, 6423, 7211, 8234, 8344, 8639, 9827, 10297, 10328, 10609, 11262, 11376]}, "edge": {"target": [], "time": []}}, "mouseout": {"state": {"target": ["0", "10", "28", "23", "0", "28", "27", "8", "4", "16", "16", "6", "5", "9", "8", "10", "24", "32", "24", "28", "9", "8", "10", "10", "13", "13", "13", "22", "12"], "time": [62, 421, 671, 1125, 2314, 2625, 3887, 4204, 4267, 4331, 5875, 6172, 6835, 8132, 8297, 8422, 8734, 10234, 10324, 10356, 11128, 11319, 11902, 19000, 19281, 19877, 20187, 20219, 20986]}, "edge": {"target": [], "time": []}}}, "displayed_time": "16.77", "trialTime": 21105, "trial_type": "mouselab-mdp", "trial_index": 56, "time_elapsed": 2471208, "internal_node_id": "0.0-4.0-1.0-35.0"}}, {"uniqueid": "w34238420:a43417969", "current_trial": 57, "dateTime": 1691145320117, "trialdata": {"revealed_states": [], "clicked_states": ["9"], "num_clicks_accrued": [0, 0, 0, 0, 0, 0, 0, 0, 0, 0, 0, 0, 0], "stateRewards": ["", -2, 1, -5, 2, -68, 80, 33, 10, 67, -59, 20, -1, -3, 3, 14, 74, -2, 24, -16, 63, 80, 46, -1, 4, 6, 12, 83, -38, -43, -4, 43, 14, -79], "withholdReward": false, "trial_id": "mdp_trial_37", "block": "test", "trialIndex": 42, "score": 69.6, "costs": -1.4, "simulationMode": [null, null, null, null, null], "rewards": [-2, 1, -5, 10, 67], "path": ["0", "0", "1", "2", "3", "8", "9"], "rt": [5384, 247, 453, 656, 16], "actions": ["up", "up", "up", "left", "up"], "actionTimes": [7146, 7915, 8890, 10082, 10626], "queries": {"click": {"state": {"target": ["9"], "time": [3355]}, "edge": {"target": [], "time": []}}, "mouseover": {"state": {"target": ["0", "1", "2", "3", "9", "8", "3", "5", "15", "20", "21"], "time": [1894, 2550, 2625, 2848, 3035, 3925, 4176, 4455, 5098, 5285, 5519]}, "edge": {"target": [], "time": []}}, "mouseout": {"state": {"target": ["12", "7", "2", "1", "0", "1", "2", "3", "9", "8", "3", "5", "15", "20", "21"], "time": [113, 269, 612, 674, 2488, 2596, 2691, 2988, 3811, 4093, 4260, 4914, 5130, 5311, 14177]}, "edge": {"target": [], "time": []}}}, "displayed_time": "15.76", "trialTime": 19441, "trial_type": "mouselab-mdp", "trial_index": 57, "time_elapsed": 2491088, "internal_node_id": "0.0-4.0-1.0-36.0"}}, {"uniqueid": "w34238420:a43417969", "current_trial": 58, "dateTime": 1691145338478, "trialdata": {"revealed_states": [], "clicked_states": ["27", "9", "16"], "num_clicks_accrued": [0, 0, 0, 0, 0, 0, 0, 0, 0, 0, 0, 0, 0], "stateRewards": ["", -1, 3, 8, 10, -86, 61, -36, 10, 17, -60, 24, -1, -3, 3, 11, 50, 60, 33, -3, -20, 58, -6, 1, -4, -4, 13, -70, -71, 43, 14, 52, 82, -11], "withholdReward": false, "trial_id": "mdp_trial_38", "block": "test", "trialIndex": 43, "score": 55.8, "costs": -4.199999999999999, "simulationMode": [null, null, null, null, null], "rewards": [-1, -3, 3, 11, 50], "path": ["0", "0", "12", "13", "14", "15", "16"], "rt": [11039, 105, 457, 190, 105], "actions": ["right", "right", "right", "up", "up"], "actionTimes": [12686, 13318, 14302, 15022, 15646], "queries": {"click": {"state": {"target": ["27", "9", "16"], "time": [3066, 7455, 9842]}, "edge": {"target": [], "time": []}}, "mouseover": {"state": {"target": ["1", "10", "11", "26", "27", "8", "5", "9", "5", "4", "7", "18", "16", "16", "15"], "time": [1997, 2183, 2371, 2686, 2888, 3486, 4177, 5122, 7900, 8761, 8852, 9021, 9278, 9528, 10572]}, "edge": {"target": [], "time": []}}, "mouseout": {"state": {"target": ["10", "10", "1", "10", "11", "26", "27", "8", "5", "9", "5", "4", "7", "18", "16", "16", "15"], "time": [527, 901, 2074, 2231, 2512, 2746, 3291, 3574, 4855, 7814, 8543, 8821, 8884, 9137, 9325, 10463, 10974]}, "edge": {"target": [], "time": []}}}, "displayed_time": "16.17", "trialTime": 17998, "trial_type": "mouselab-mdp", "trial_index": 58, "time_elapsed": 2509448, "internal_node_id": "0.0-4.0-1.0-37.0"}}, {"uniqueid": "w34238420:a43417969", "current_trial": 59, "dateTime": 1691145387637, "trialdata": {"revealed_states": [], "clicked_states": ["9", "21", "33"], "num_clicks_accrued": [0, 0, 0, 0, 0, 0, 0, 0, 0, 0, 0, 0, 0], "stateRewards": ["", -1, 4, -5, 9, 29, -75, -42, -16, 24, -28, -41, 2, -3, 1, 10, 60, 47, 55, -1, -53, 22, -40, 2, -3, -6, 4, -26, 44, 54, 15, -76, 42, 14], "withholdReward": false, "trial_id": "mdp_trial_39", "block": "test", "trialIndex": 44, "score": 16.8, "costs": -4.199999999999999, "simulationMode": [null, null, null, null, null], "rewards": [2, -3, 1, -1, 22], "path": ["0", "0", "12", "13", "14", "19", "21"], "rt": [8589, 164, 457, 474, 144], "actions": ["right", "right", "right", "down", "down"], "actionTimes": [10994, 11681, 12681, 13681, 14361], "queries": {"click": {"state": {"target": ["9", "21", "33"], "time": [3989, 5940, 8017]}, "edge": {"target": [], "time": []}}, "mouseover": {"state": {"target": ["1", "2", "3", "9", "11", "29", "33", "22", "19", "21", "33"], "time": [2677, 3083, 3297, 3724, 4441, 4586, 4837, 5227, 5559, 5754, 7220]}, "edge": {"target": [], "time": []}}, "mouseout": {"state": {"target": ["14", "22", "1", "10", "2", "1", "1", "2", "3", "9", "11", "29", "33", "22", "19", "21", "33", "32"], "time": [238, 441, 894, 1285, 1567, 1832, 2787, 3272, 3458, 4383, 4472, 4644, 4951, 5451, 5630, 6396, 8721, 47303]}, "edge": {"target": [], "time": []}}}, "displayed_time": "16.41", "trialTime": 48745, "trial_type": "mouselab-mdp", "trial_index": 59, "time_elapsed": 2558608, "internal_node_id": "0.0-4.0-1.0-38.0"}}, {"uniqueid": "w34238420:a43417969", "current_trial": 60, "dateTime": 1691145405350, "trialdata": {"revealed_states": [], "clicked_states": ["9", "21"], "num_clicks_accrued": [0, 0, 0, 0, 0, 0, 0, 0, 0, 0, 0, 0, 0], "stateRewards": ["", 1, 1, -3, 7, 49, 78, 26, -5, 26, 48, -43, -1, -3, 2, -5, 4, -1, -60, 10, -35, 51, 81, -2, 1, -7, -5, -39, -86, -54, 4, -3, 74, 77], "withholdReward": false, "trial_id": "mdp_trial_40", "block": "test", "trialIndex": 45, "score": 56.2, "costs": -2.8, "simulationMode": [null, null, null, null, null], "rewards": [-1, -3, 2, 10, 51], "path": ["0", "0", "12", "13", "14", "19", "21"], "rt": [7936, 113, 406, 307, 68], "actions": ["right", "right", "right", "down", "down"], "actionTimes": [10029, 10668, 11605, 12445, 13045], "queries": {"click": {"state": {"target": ["9", "21"], "time": [3465, 6965]}, "edge": {"target": [], "time": []}}, "mouseover": {"state": {"target": ["23", "10", "8", "9", "2", "7", "4", "4", "6", "16", "15", "14", "19", "21", "22", "12", "1"], "time": [2670, 2874, 2986, 3390, 4393, 4617, 5093, 5921, 6186, 6296, 6351, 6497, 6650, 6705, 7602, 7664, 7799]}, "edge": {"target": [], "time": []}}, "mouseout": {"state": {"target": ["31", "0", "23", "10", "8", "9", "2", "7", "4", "4", "6", "16", "15", "14", "19", "21", "22", "12", "1"], "time": [670, 2121, 2718, 2921, 3264, 3842, 4478, 4910, 5177, 6154, 6234, 6323, 6379, 6624, 6677, 7536, 7633, 7726, 8693]}, "edge": {"target": [], "time": []}}}, "displayed_time": "16.09", "trialTime": 17340, "trial_type": "mouselab-mdp", "trial_index": 60, "time_elapsed": 2576321, "internal_node_id": "0.0-4.0-1.0-39.0"}}, {"uniqueid": "w34238420:a43417969", "current_trial": 61, "dateTime": 1691145506961, "trialdata": {"rt": 101465, "response": {"Q0": "$-88 to $88", "Q1": "$-32 to $32", "Q2": "$-16 to $16", "Q3": "The cost for clicking on nodes varied between nodes.", "Q4": "Slightly motivated"}, "question_order": [0, 1, 2, 3, 4], "trial_id": "final_quiz_control", "trial_type": "survey-multi-choice", "trial_index": 61, "time_elapsed": 2677932, "internal_node_id": "0.0-4.0-2.0"}}, {"uniqueid": "w34238420:a43417969", "current_trial": 62, "dateTime": 1691145604933, "trialdata": {"rt": 97184, "response": {"Q0": "I tried to make as much as i could ", "Q1": "yes, by using the inspector more then once ", "Q2": "no"}, "trial_id": "self_report_control", "trial_type": "survey-text", "trial_index": 62, "time_elapsed": 2775904, "internal_node_id": "0.0-4.0-3.0"}}, {"uniqueid": "w34238420:a43417969", "current_trial": 63, "dateTime": 1691145667271, "trialdata": {"rt": 62333, "response": {"gender": "male", "age": "27", "colorblind": "0", "effort": "1"}, "trial_type": "survey-html-form", "trial_index": 63, "time_elapsed": 2838242, "internal_node_id": "0.0-4.0-4.0"}}, {"uniqueid": "w34238420:a43417969", "current_trial": 64, "dateTime": 1691145694298, "trialdata": {"rt": 27019, "response": {"Q0": "no", "Q1": "no", "Q2": "no"}, "trial_type": "survey-text", "trial_index": 64, "time_elapsed": 2865269, "internal_node_id": "0.0-4.0-5.0"}}, {"uniqueid": "w34238420:a43417969", "current_trial": 65, "dateTime": 1691145706654, "trialdata": {"rt": 12351, "stimulus": "Press 'Finish HIT' in order to reach the completion code. Once the data has been saved, you will receive the code either in this window or in the original browser window where you started the experiment.\n", "response": 0, "trial_type": "html-button-response", "trial_index": 65, "time_elapsed": 2877625, "internal_node_id": "0.0-5.0"}}, {"uniqueid": "w34238420:a43417969", "current_trial": 66, "dateTime": 1691145707698, "trialdata": {"success": true, "trial_type": "fullscreen", "trial_index": 66, "time_elapsed": 2878669, "internal_node_id": "0.0-6.0"}}], "questiondata": {"params": {"CODE": "C6DMOQA6", "MIN_TIME": 14, "inspectCost": 1, "startTime": "Fri Aug 04 2023 11:53:38 GMT+0200 (South Africa Standard Time)", "bonusRate": 0.002, "variance": "1_2_4_8_44", "branching": "31123"}, "final_score": 832}, "eventdata": [{"eventtype": "initialized", "value": null, "timestamp": 1691142817316, "interval": 0}, {"eventtype": "window_resize", "value": [1360, 674], "timestamp": 1691142817316, "interval": 0}, {"eventtype": "window_resize", "value": [1360, 674], "timestamp": 1691142817824, "interval": 508}, {"eventtype": "window_resize", "value": [1360, 768], "timestamp": 1691142835591, "interval": 17767}, {"eventtype": "focus", "value": "off", "timestamp": 1691143745126, "interval": 909535}, {"eventtype": "focus", "value": "on", "timestamp": 1691143745127, "interval": 1}, {"eventtype": "focus", "value": "off", "timestamp": 1691144226978, "interval": 481851}, {"eventtype": "focus", "value": "on", "timestamp": 1691144226979, "interval": 1}], "useragent": "Mozilla/5.0 (Windows NT 10.0; Win64; x64) AppleWebKit/537.36 (KHTML, like Gecko) Chrome/115.0.0.0 Safari/537.36 Edg/115.0.1901.188", "mode": "live", "id": "w34238420:a43417969", "status": "user data saved", "Beginhit": "2023-08-04 09:53:17.8168", "Beginexp": "2023-08-04 09:54:03.172408", "Endhit": "2023-08-04 10:41:50.971722", "psiturkStatus": 3, "browser": "<redacted>", "platform": "windows", "language": "en-GB"}