{"condition": 1, "counterbalance": 0, "assignmentId": "a40278983", "workerId": "w85568180", "hitId": "h23873250", "currenttrial": 62, "bonus": 0, "data": [{"current_trial": 0, "dateTime": 1693482962052, "trialdata": {"internal_node_id": "0.0-0.0", "success": true, "time_elapsed": 4596, "trial_index": 0, "trial_type": "fullscreen"}, "uniqueid": "w85568180:a40278983"}, {"current_trial": 1, "dateTime": 1693482996301, "trialdata": {"internal_node_id": "0.0-1.0", "rt": 34232, "time_elapsed": 38846, "trial_id": "exp_instructions_misaligned", "trial_index": 1, "trial_type": "instructions", "view_history": [{"page_index": 0, "viewing_time": 34231}]}, "uniqueid": "w85568180:a40278983"}, {"current_trial": 2, "dateTime": 1693483232710, "trialdata": {"internal_node_id": "0.0-2.0-1.0", "rt": 236404, "time_elapsed": 275255, "trial_id": "mouselab_instructions_1_misaligned", "trial_index": 2, "trial_type": "instructions", "view_history": [{"page_index": 0, "viewing_time": 74365}, {"page_index": 1, "viewing_time": 95556}, {"page_index": 2, "viewing_time": 20682}, {"page_index": 3, "viewing_time": 45800}]}, "uniqueid": "w85568180:a40278983"}, {"current_trial": 3, "dateTime": 1693483273918, "trialdata": {"actionTimes": [15346, 18093, 20343, 22920, 24592], "actions": ["left", "left", "left", "up", "left"], "block": "test", "clicked_states": ["30"], "costs": -0.5, "displayed_time": "25.13", "internal_node_id": "0.0-2.0-2.0-0.0", "num_clicks_accrued": [0, 0, 0, 0, 0, 0, 0, 0, 0, 0, 0, 0, 0], "path": ["0", "0", "23", "24", "25", "26", "29"], "queries": {"click": {"edge": {"target": [], "time": []}, "state": {"target": ["30"], "time": [12950]}}, "mouseout": {"edge": {"target": [], "time": []}, "state": {"target": ["0", "23", "24", "25", "30", "24", "10", "3", "5"], "time": [9523, 9650, 9932, 10136, 35311, 35413, 35580, 35680, 36213]}}, "mouseover": {"edge": {"target": [], "time": []}, "state": {"target": ["23", "24", "25", "30"], "time": [9583, 9715, 10115, 10315]}}}, "revealed_states": [], "rewards": [-10, -10, 10, -10, -10], "rt": [7590, 2201, 1717, 2044, 1115], "score": -27, "simulationMode": [null, null, null, null, null], "stateRewards": ["", 10, -10, 10, 10, 10, -10, -10, 10, 10, 10, 10, -10, 10, -10, 10, 10, 10, -10, 10, -10, -10, 10, -10, -10, 10, -10, 10, -10, -10, -10, 10, -10, -10], "time_elapsed": 316461, "trialIndex": 0, "trialTime": 39742, "trial_id": "practice_1", "trial_index": 3, "trial_type": "mouselab-mdp", "withholdReward": false}, "uniqueid": "w85568180:a40278983"}, {"current_trial": 4, "dateTime": 1693483294376, "trialdata": {"actionTimes": [10061, 11157, 12218, 13370, 14464], "actions": ["right", "right", "right", "down", "right"], "block": "test", "clicked_states": ["8"], "costs": -0.5, "displayed_time": "14.99", "internal_node_id": "0.0-2.0-2.0-1.0", "num_clicks_accrued": [0, 0, 0, 0, 0, 0, 0, 0, 0, 0, 0, 0, 0], "path": ["0", "0", "12", "13", "14", "19", "20"], "queries": {"click": {"edge": {"target": [], "time": []}, "state": {"target": ["8"], "time": [7271]}}, "mouseout": {"edge": {"target": [], "time": []}, "state": {"target": ["6", "7", "1", "3", "8", "8", "10", "29", "25", "31"], "time": [2809, 2859, 5886, 6635, 7475, 16447, 18129, 18645, 18710, 18760]}}, "mouseover": {"edge": {"target": [], "time": []}, "state": {"target": ["1", "3", "8"], "time": [5863, 6612, 6745]}}}, "revealed_states": [], "rewards": [10, -10, -10, -10, -10], "rt": [5019, 569, 532, 631, 578], "score": -27, "simulationMode": [null, null, null, null, null], "stateRewards": ["", 10, 10, 10, -10, 10, -10, 10, 10, -10, 10, 10, 10, -10, -10, 10, -10, -10, 10, -10, -10, 10, 10, -10, 10, 10, -10, -10, -10, -10, -10, -10, -10, 10], "time_elapsed": 336920, "trialIndex": 1, "trialTime": 19419, "trial_id": "practice_2", "trial_index": 4, "trial_type": "mouselab-mdp", "withholdReward": false}, "uniqueid": "w85568180:a40278983"}, {"current_trial": 5, "dateTime": 1693483340883, "trialdata": {"internal_node_id": "0.0-2.0-3.0", "rt": 46498, "time_elapsed": 383428, "trial_id": "mouselab_instructions_2_misaligned", "trial_index": 5, "trial_type": "instructions", "view_history": [{"page_index": 0, "viewing_time": 39760}, {"page_index": 1, "viewing_time": 6737}]}, "uniqueid": "w85568180:a40278983"}, {"current_trial": 6, "dateTime": 1693483404694, "trialdata": {"correct": {"Q0": "The cost for clicking on nodes may vary between nodes.", "Q1": "The better I perform the higher my bonus will be.", "Q2": "No, the amount of cash at each node of the web may be different each time.", "Q3": "To get the highest total score.", "Q4": "Only before moving the spider.", "Q5": "3 seconds"}, "internal_node_id": "0.0-2.0-4.0", "question_order": [0, 1, 2, 3, 4, 5], "response": {"Q0": "The cost for clicking on nodes may vary between nodes.", "Q1": "The better I perform the higher my bonus will be.", "Q2": "No, the structure of the web will be different each time.", "Q3": "To get the highest total score.", "Q4": "Only before moving the spider.", "Q5": "3 seconds"}, "rt": 63798, "time_elapsed": 447239, "trial_id": "mouselab_quiz_misaligned", "trial_index": 6, "trial_type": "survey-multi-choice"}, "uniqueid": "w85568180:a40278983"}, {"current_trial": 7, "dateTime": 1693483419436, "trialdata": {"internal_node_id": "0.0-2.1-0.1-0.1", "success": true, "time_elapsed": 461981, "trial_index": 7, "trial_type": "fullscreen"}, "uniqueid": "w85568180:a40278983"}, {"current_trial": 8, "dateTime": 1693483529873, "trialdata": {"internal_node_id": "0.0-2.1-1.1", "rt": 110428, "time_elapsed": 572418, "trial_id": "mouselab_instructions_1_misaligned", "trial_index": 8, "trial_type": "instructions", "view_history": [{"page_index": 0, "viewing_time": 9804}, {"page_index": 1, "viewing_time": 77950}, {"page_index": 2, "viewing_time": 12958}, {"page_index": 3, "viewing_time": 9714}]}, "uniqueid": "w85568180:a40278983"}, {"current_trial": 9, "dateTime": 1693483562635, "trialdata": {"actionTimes": [17017, 18526, 20048, 21249, 22734], "actions": ["right", "right", "right", "up", "up"], "block": "test", "clicked_states": ["26", "3", "15", "1", "2", "13"], "costs": -3, "displayed_time": "23.24", "internal_node_id": "0.0-2.1-2.1-0.1", "num_clicks_accrued": [0, 0, 0, 0, 0, 0, 0, 0, 0, 0, 0, 0, 0], "path": ["0", "0", "12", "13", "14", "15", "16"], "queries": {"click": {"edge": {"target": [], "time": []}, "state": {"target": ["26", "3", "15", "1", "2", "13"], "time": [4715, 6260, 7855, 10777, 12005, 13309]}}, "mouseout": {"edge": {"target": [], "time": []}, "state": {"target": ["0", "0", "23", "24", "26", "10", "2", "3", "4", "6", "15", "1", "2", "7", "14", "13", "12"], "time": [2418, 3896, 4020, 4077, 5417, 5567, 5838, 6854, 6962, 7112, 8898, 11530, 12220, 12654, 12844, 13967, 30221]}}, "mouseover": {"edge": {"target": [], "time": []}, "state": {"target": ["0", "23", "24", "26", "10", "2", "3", "4", "6", "15", "1", "2", "7", "14", "13", "12"], "time": [3871, 3969, 4053, 4320, 5505, 5674, 5923, 6896, 7002, 7471, 9220, 11597, 12598, 12699, 12954, 14023]}}}, "revealed_states": [], "rewards": [-10, 10, -10, 10, 10], "rt": [13521, 979, 1003, 629, 955], "score": 10.5, "simulationMode": [null, null, null, null, null], "stateRewards": ["", 10, -10, 10, 10, 10, -10, -10, 10, 10, 10, 10, -10, 10, -10, 10, 10, 10, -10, 10, -10, -10, 10, -10, -10, 10, -10, 10, -10, -10, -10, 10, -10, -10], "time_elapsed": 605178, "trialIndex": 2, "trialTime": 31684, "trial_id": "practice_1", "trial_index": 9, "trial_type": "mouselab-mdp", "withholdReward": false}, "uniqueid": "w85568180:a40278983"}, {"current_trial": 10, "dateTime": 1693483613430, "trialdata": {"actionTimes": [39698, 41015, 42233, 43533, 44683], "actions": ["up", "up", "up", "left", "left"], "block": "test", "clicked_states": ["23", "24", "1", "12", "18", "14", "22", "2", "3", "25", "26", "8", "9", "11"], "costs": -7, "displayed_time": "45.22", "internal_node_id": "0.0-2.1-2.1-1.1", "num_clicks_accrued": [0, 0, 0, 0, 0, 0, 0, 0, 0, 0, 0, 0, 0], "path": ["0", "0", "1", "2", "3", "8", "11"], "queries": {"click": {"edge": {"target": [], "time": []}, "state": {"target": ["23", "24", "1", "12", "18", "14", "22", "2", "3", "25", "26", "8", "9", "11"], "time": [15988, 17081, 18289, 19515, 21712, 23215, 24301, 26588, 27768, 29039, 30227, 31775, 34122, 35870]}}, "mouseout": {"edge": {"target": [], "time": []}, "state": {"target": ["0", "23", "24", "1", "1", "12", "13", "18", "14", "14", "22", "13", "2", "2", "3", "28", "25", "26", "8", "4", "9", "11", "10", "1", "18", "15", "17", "14"], "time": [15039, 16540, 17550, 17683, 18990, 19730, 21221, 22574, 23429, 23713, 24813, 25905, 26055, 27234, 28315, 28463, 29256, 31202, 32440, 33704, 34636, 36356, 38087, 48086, 48183, 48220, 48638, 49285]}}, "mouseover": {"edge": {"target": [], "time": []}, "state": {"target": ["23", "24", "1", "1", "12", "13", "18", "14", "22", "13", "2", "2", "3", "28", "25", "26", "8", "4", "9", "11", "10", "1"], "time": [15089, 16688, 17619, 17916, 19129, 20064, 21304, 22855, 23848, 24879, 25987, 26229, 27367, 28421, 28733, 29772, 31453, 32548, 33788, 34968, 36472, 38192]}}}, "revealed_states": [], "rewards": [10, 10, 10, 10, 10], "rt": [25310, 767, 670, 786, 620], "score": 46.5, "simulationMode": [null, null, null, null, null], "stateRewards": ["", 10, 10, 10, -10, 10, -10, 10, 10, -10, 10, 10, 10, -10, -10, 10, -10, -10, 10, -10, -10, 10, 10, -10, 10, 10, -10, -10, -10, -10, -10, -10, -10, 10], "time_elapsed": 655974, "trialIndex": 3, "trialTime": 49671, "trial_id": "practice_2", "trial_index": 10, "trial_type": "mouselab-mdp", "withholdReward": false}, "uniqueid": "w85568180:a40278983"}, {"current_trial": 11, "dateTime": 1693483646555, "trialdata": {"internal_node_id": "0.0-2.1-3.1", "rt": 33117, "time_elapsed": 689100, "trial_id": "mouselab_instructions_2_misaligned", "trial_index": 11, "trial_type": "instructions", "view_history": [{"page_index": 0, "viewing_time": 29826}, {"page_index": 1, "viewing_time": 3289}]}, "uniqueid": "w85568180:a40278983"}, {"current_trial": 12, "dateTime": 1693483707701, "trialdata": {"correct": {"Q0": "The cost for clicking on nodes may vary between nodes.", "Q1": "The better I perform the higher my bonus will be.", "Q2": "No, the amount of cash at each node of the web may be different each time.", "Q3": "To get the highest total score.", "Q4": "Only before moving the spider.", "Q5": "3 seconds"}, "internal_node_id": "0.0-2.1-4.1", "question_order": [0, 1, 2, 3, 4, 5], "response": {"Q0": "The cost for clicking on nodes may vary between nodes.", "Q1": "The better I perform the higher my bonus will be.", "Q2": "No, the amount of cash at each node of the web may be different each time.", "Q3": "To get the highest total score.", "Q4": "Only before moving the spider.", "Q5": "3 seconds"}, "rt": 61138, "time_elapsed": 750246, "trial_id": "mouselab_quiz_misaligned", "trial_index": 12, "trial_type": "survey-multi-choice"}, "uniqueid": "w85568180:a40278983"}, {"current_trial": 13, "dateTime": 1693483716816, "trialdata": {"internal_node_id": "0.0-4.0-0.0", "question_order": [0], "response": {"Q0": "No"}, "rt": 9094, "time_elapsed": 759361, "trial_id": "repeat_check", "trial_index": 13, "trial_type": "survey-multi-choice"}, "uniqueid": "w85568180:a40278983"}, {"current_trial": 14, "dateTime": 1693483722407, "trialdata": {"internal_node_id": "0.0-6.0-0.0", "response": " ", "rt": 5570, "stimulus": "\n<h1> Get ready to start the game! </h1>\n\nThank you for reading the instructions. Get ready start with the 40 rounds of this game.\n<br><br>\nIf you need to take a break, feel free to take one after the end of a round, before continuing to the next one.\n<br><br>\nRemember, the more money the spider gets, the bigger your bonus will be!\n<br><br>\n<div style='text-align: center;'>Press <code>space</code> to begin.</div>\n\n<br><br>\n(If, at any point, the <code>space</code> key does not take you to the next page, click once on the text and try again.)", "time_elapsed": 764951, "trial_id": "mdp_ready", "trial_index": 14, "trial_type": "html-keyboard-response"}, "uniqueid": "w85568180:a40278983"}, {"current_trial": 15, "dateTime": 1693483763315, "trialdata": {"actionTimes": [24696, 25659, 31957, 32937, 34064], "actions": ["up", "up", "up", "right", "right"], "block": "test", "clicked_states": ["1", "2", "3", "7", "4", "5", "6"], "costs": -9.05, "displayed_time": "34.61", "internal_node_id": "0.0-6.0-1.0-0.0", "num_clicks_accrued": [0, 0, 0, 0, 0, 0, 0, 0, 0, 0, 0, 0, 0], "path": ["0", "0", "1", "2", "3", "4", "6"], "queries": {"click": {"edge": {"target": [], "time": []}, "state": {"target": ["1", "2", "3", "7", "4", "5", "6"], "time": [7079, 8249, 9405, 10641, 15041, 16247, 19887]}}, "mouseout": {"edge": {"target": [], "time": []}, "state": {"target": ["0", "1", "2", "3", "7", "10", "4", "5", "6", "6", "7", "2"], "time": [6577, 7764, 8924, 10059, 10848, 14347, 15260, 16895, 17926, 20475, 21013, 21957]}}, "mouseover": {"edge": {"target": [], "time": []}, "state": {"target": ["1", "2", "3", "7", "10", "4", "5", "6", "6", "7", "2"], "time": [6699, 7856, 8998, 10284, 11224, 14665, 15669, 17629, 18594, 20860, 21691]}}}, "revealed_states": [], "rewards": [1, 1, -5, 10, 73], "rt": [18615, 435, 5780, 435, 608], "score": 70.95, "simulationMode": [null, null, null, null, null], "stateRewards": ["", 1, 1, -5, 10, -31, 73, 14, -8, -23, 63, -70, -1, 2, 8, 7, 25, -59, 27, -10, -40, -71, -15, -2, 3, -8, -5, -19, 77, -34, 7, 67, 63, 19], "time_elapsed": 805859, "trialIndex": 4, "trialTime": 39801, "trial_id": "mdp_trial_1", "trial_index": 15, "trial_type": "mouselab-mdp", "withholdReward": false}, "uniqueid": "w85568180:a40278983"}, {"current_trial": 16, "dateTime": 1693483823181, "trialdata": {"actionTimes": [48209, 49519, 51112, 52374, 53689], "actions": ["up", "up", "up", "left", "down"], "block": "test", "clicked_states": ["23", "24", "12", "13", "14", "15", "1", "2", "10", "3", "4", "6"], "costs": -9.6, "displayed_time": "54.24", "internal_node_id": "0.0-6.0-1.0-1.0", "num_clicks_accrued": [0, 0, 0, 0, 0, 0, 0, 0, 0, 0, 0, 0, 0], "path": ["0", "0", "1", "2", "3", "8", "10"], "queries": {"click": {"edge": {"target": [], "time": []}, "state": {"target": ["23", "24", "12", "13", "14", "15", "1", "2", "10", "3", "4", "6"], "time": [26834, 28208, 29480, 30500, 31545, 33136, 34523, 35489, 36693, 40540, 42743, 44081]}}, "mouseout": {"edge": {"target": [], "time": []}, "state": {"target": ["12", "0", "23", "24", "12", "13", "14", "18", "15", "1", "2", "2", "10", "10", "8", "3", "4", "6", "7"], "time": [23748, 26334, 27595, 28433, 30007, 31101, 32342, 32714, 33624, 34960, 35683, 36184, 36894, 37311, 38343, 42012, 43495, 45275, 45725]}}, "mouseover": {"edge": {"target": [], "time": []}, "state": {"target": ["23", "24", "12", "13", "14", "18", "15", "1", "2", "10", "8", "3", "4", "6", "7"], "time": [26359, 27834, 29058, 30055, 31164, 32511, 32796, 34091, 35027, 36258, 37886, 38460, 42129, 43613, 45558]}}}, "revealed_states": [], "rewards": [-2, 1, -7, -7, 69], "rt": [22521, 758, 1036, 720, 778], "score": 44.4, "simulationMode": [null, null, null, null, null], "stateRewards": ["", -2, 1, -7, 9, 8, 25, 61, -7, -17, 69, -81, 1, 4, -4, -11, 16, 67, 44, 3, 6, -45, -54, -2, 3, 6, -11, -15, 32, -47, 3, -39, -6, -88], "time_elapsed": 865725, "trialIndex": 5, "trialTime": 58660, "trial_id": "mdp_trial_2", "trial_index": 16, "trial_type": "mouselab-mdp", "withholdReward": false}, "uniqueid": "w85568180:a40278983"}, {"current_trial": 17, "dateTime": 1693483861005, "trialdata": {"actionTimes": [20226, 21433, 22662, 23925, 25124], "actions": ["up", "up", "up", "right", "up"], "block": "test", "clicked_states": ["1", "2", "3", "4", "6", "5"], "costs": -6.9, "displayed_time": "25.69", "internal_node_id": "0.0-6.0-1.0-2.0", "num_clicks_accrued": [0, 0, 0, 0, 0, 0, 0, 0, 0, 0, 0, 0, 0], "path": ["0", "0", "1", "2", "3", "4", "5"], "queries": {"click": {"edge": {"target": [], "time": []}, "state": {"target": ["1", "2", "3", "4", "6", "5"], "time": [6953, 8150, 9320, 10583, 11861, 15422]}}, "mouseout": {"edge": {"target": [], "time": []}, "state": {"target": ["0", "1", "2", "3", "4", "6", "5", "7", "1", "0"], "time": [6426, 7582, 8760, 10089, 11454, 12522, 15871, 19276, 19508, 27675]}}, "mouseover": {"edge": {"target": [], "time": []}, "state": {"target": ["0", "1", "2", "3", "4", "6", "5", "7", "1"], "time": [6377, 6509, 7770, 8829, 10207, 11553, 12737, 16038, 19375]}}}, "revealed_states": [], "rewards": [2, 3, 8, 14, 69], "rt": [14332, 644, 656, 701, 652], "score": 89.1, "simulationMode": [null, null, null, null, null], "stateRewards": ["", 2, 3, 8, 14, 69, -27, 17, 2, -71, -65, -10, 2, -3, 7, 8, 65, -10, 65, -12, 73, -12, 13, -2, -2, 6, 10, -79, -69, -18, 10, -85, 67, 74], "time_elapsed": 903549, "trialIndex": 6, "trialTime": 36533, "trial_id": "mdp_trial_3", "trial_index": 17, "trial_type": "mouselab-mdp", "withholdReward": false}, "uniqueid": "w85568180:a40278983"}, {"current_trial": 18, "dateTime": 1693483911884, "trialdata": {"actionTimes": [43214, 44019, 44970, 46085, 47249], "actions": ["right", "right", "right", "up", "right"], "block": "test", "clicked_states": ["23", "24", "25", "30", "32", "33", "31", "29", "26", "27", "28", "12", "13", "14", "15", "17"], "costs": -21.8, "displayed_time": "47.85", "internal_node_id": "0.0-6.0-1.0-3.0", "num_clicks_accrued": [0, 0, 0, 0, 0, 0, 0, 0, 0, 0, 0, 0, 0], "path": ["0", "0", "12", "13", "14", "15", "17"], "queries": {"click": {"edge": {"target": [], "time": []}, "state": {"target": ["23", "24", "25", "30", "32", "33", "31", "29", "26", "27", "28", "12", "13", "14", "15", "17"], "time": [6107, 7209, 8353, 9381, 10563, 14160, 17662, 21197, 24617, 26292, 30743, 34267, 35399, 36597, 37813, 38849]}}, "mouseout": {"edge": {"target": [], "time": []}, "state": {"target": ["12", "0", "23", "23", "24", "25", "25", "30", "32", "33", "30", "31", "25", "29", "26", "27", "28", "12", "13", "14", "15", "17", "16"], "time": [2799, 4835, 4917, 6668, 7833, 8565, 8895, 10113, 10768, 14393, 14712, 18212, 18380, 21628, 25112, 26877, 31662, 34860, 36109, 37371, 38448, 39442, 48698]}}, "mouseover": {"edge": {"target": [], "time": []}, "state": {"target": ["23", "23", "24", "25", "30", "32", "33", "30", "31", "25", "29", "26", "27", "28", "12", "13", "14", "15", "17", "16"], "time": [4860, 5722, 6945, 7928, 8959, 10281, 11451, 14646, 14779, 18314, 18958, 21744, 25331, 27008, 32061, 35028, 36209, 37457, 38528, 39586]}}}, "revealed_states": [], "rewards": [-2, 2, -5, 13, 63], "rt": [39025, 279, 393, 557, 588], "score": 49.2, "simulationMode": [null, null, null, null, null], "stateRewards": ["", 1, -1, 8, 4, 76, -33, -17, -3, -1, -54, -74, -2, 2, -5, 13, -51, 63, 83, 1, 84, 29, -36, 2, -1, 7, -12, -10, -44, -43, -14, 8, -69, 19], "time_elapsed": 954427, "trialIndex": 7, "trialTime": 49442, "trial_id": "mdp_trial_4", "trial_index": 18, "trial_type": "mouselab-mdp", "withholdReward": false}, "uniqueid": "w85568180:a40278983"}, {"current_trial": 19, "dateTime": 1693483955692, "trialdata": {"actionTimes": [36093, 36799, 37681, 38937, 39916], "actions": ["up", "up", "up", "right", "right"], "block": "test", "clicked_states": ["1", "2", "3", "8", "11", "9", "10", "5", "4", "7", "6"], "costs": -17.05, "displayed_time": "40.46", "internal_node_id": "0.0-6.0-1.0-4.0", "num_clicks_accrued": [0, 0, 0, 0, 0, 0, 0, 0, 0, 0, 0, 0, 0], "path": ["0", "0", "1", "2", "3", "4", "6"], "queries": {"click": {"edge": {"target": [], "time": []}, "state": {"target": ["1", "2", "3", "8", "11", "9", "10", "5", "4", "7", "6"], "time": [7746, 9251, 10474, 11714, 12889, 16342, 19855, 23268, 26721, 28226, 31218]}}, "mouseout": {"edge": {"target": [], "time": []}, "state": {"target": ["16", "0", "0", "1", "2", "3", "8", "11", "9", "8", "10", "4", "5", "4", "7", "6"], "time": [4443, 5210, 6976, 8348, 9838, 11307, 12457, 13490, 16759, 16875, 20069, 20843, 23722, 27238, 28687, 41743]}}, "mouseover": {"edge": {"target": [], "time": []}, "state": {"target": ["1", "2", "3", "8", "11", "9", "8", "10", "4", "5", "4", "7", "6"], "time": [7062, 8920, 9964, 11377, 12570, 13628, 16818, 17041, 20725, 20906, 23872, 27336, 28837]}}}, "revealed_states": [], "rewards": [2, 3, -3, 12, 81], "rt": [30021, 162, 326, 714, 411], "score": 77.95, "simulationMode": [null, null, null, null, null], "stateRewards": ["", 2, 3, -3, 12, -43, 81, -82, -15, 58, -7, -75, -1, -1, 3, -5, 50, -25, -8, 4, 66, 65, -66, 2, -4, 2, -1, -10, 10, 37, 11, 88, -37, 8], "time_elapsed": 998236, "trialIndex": 8, "trialTime": 42550, "trial_id": "mdp_trial_5", "trial_index": 19, "trial_type": "mouselab-mdp", "withholdReward": false}, "uniqueid": "w85568180:a40278983"}, {"current_trial": 20, "dateTime": 1693484001683, "trialdata": {"actionTimes": [37824, 38503, 39353, 40815, 41935], "actions": ["right", "right", "right", "down", "right"], "block": "test", "clicked_states": ["12", "13", "14", "19", "22", "21", "20", "17", "16", "18", "33"], "costs": -17.650000000000002, "displayed_time": "42.46", "internal_node_id": "0.0-6.0-1.0-5.0", "num_clicks_accrued": [0, 0, 0, 0, 0, 0, 0, 0, 0, 0, 0, 0, 0], "path": ["0", "0", "12", "13", "14", "19", "20"], "queries": {"click": {"edge": {"target": [], "time": []}, "state": {"target": ["12", "13", "14", "19", "22", "21", "20", "17", "16", "18", "33"], "time": [5517, 7060, 8127, 9586, 10738, 14321, 17900, 21368, 24903, 28343, 32959]}}, "mouseout": {"edge": {"target": [], "time": []}, "state": {"target": ["6", "18", "13", "12", "13", "14", "19", "22", "21", "21", "20", "15", "17", "16", "18", "14", "13", "12", "0", "23", "24", "30", "33", "31", "32"], "time": [1033, 4554, 4837, 6144, 7699, 9133, 10363, 11567, 13111, 14732, 18463, 19054, 21798, 25134, 28863, 29313, 29931, 30030, 32028, 32085, 32400, 32600, 33428, 33779, 43733]}}, "mouseover": {"edge": {"target": [], "time": []}, "state": {"target": ["18", "13", "12", "13", "14", "19", "22", "21", "21", "20", "15", "17", "16", "18", "14", "13", "12", "0", "23", "24", "30", "33", "31", "32"], "time": [4504, 4704, 4921, 6743, 7753, 9189, 10467, 11748, 13281, 14799, 18631, 19080, 21947, 25728, 29262, 29364, 29947, 31994, 32059, 32097, 32450, 32651, 33729, 36069]}}}, "revealed_states": [], "rewards": [-2, 3, -6, 8, 34], "rt": [35051, 142, 322, 917, 604], "score": 19.349999999999998, "simulationMode": [null, null, null, null, null], "stateRewards": ["", 1, -3, -6, -5, 47, 80, -29, 11, -71, 10, -29, -2, 3, -6, 12, 2, -78, -6, 8, 34, -16, -5, -1, 3, 3, -13, 84, -36, -62, -3, -27, 66, 15], "time_elapsed": 1044227, "trialIndex": 9, "trialTime": 44723, "trial_id": "mdp_trial_6", "trial_index": 20, "trial_type": "mouselab-mdp", "withholdReward": false}, "uniqueid": "w85568180:a40278983"}, {"current_trial": 21, "dateTime": 1693484045143, "trialdata": {"actionTimes": [34920, 35463, 36891, 38369, 39301], "actions": ["up", "up", "up", "left", "down"], "block": "test", "clicked_states": ["1", "2", "3", "4", "5", "6", "7", "11", "9", "10", "12"], "costs": -15.250000000000002, "displayed_time": "39.87", "internal_node_id": "0.0-6.0-1.0-6.0", "num_clicks_accrued": [0, 0, 0, 0, 0, 0, 0, 0, 0, 0, 0, 0, 0], "path": ["0", "0", "1", "2", "3", "8", "10"], "queries": {"click": {"edge": {"target": [], "time": []}, "state": {"target": ["1", "2", "3", "4", "5", "6", "7", "11", "9", "10", "12"], "time": [7512, 8854, 9884, 11109, 12405, 15925, 19392, 22872, 26052, 29590, 33056]}}, "mouseout": {"edge": {"target": [], "time": []}, "state": {"target": ["32", "31", "23", "0", "1", "2", "3", "4", "5", "6", "7", "11", "9", "9", "9", "8", "10", "18", "15", "15", "18", "12"], "time": [4608, 4691, 4791, 7026, 8061, 9409, 10708, 11320, 13139, 16441, 19933, 23337, 23483, 26269, 26856, 27088, 29801, 30271, 30788, 31085, 31304, 41176]}}, "mouseover": {"edge": {"target": [], "time": []}, "state": {"target": ["1", "2", "3", "4", "5", "6", "7", "11", "9", "9", "8", "10", "18", "15", "15", "18", "12"], "time": [7111, 8139, 9458, 10775, 12027, 13256, 16535, 20370, 23390, 23750, 26921, 27252, 30204, 30736, 31021, 31188, 31421]}}}, "revealed_states": [], "rewards": [-1, -4, -1, -15, 59], "rt": [28466, 6, 867, 947, 379], "score": 22.75, "simulationMode": [null, null, null, null, null], "stateRewards": ["", -1, -4, -1, -5, -28, -23, -15, -15, -38, 59, -87, 2, 2, -5, 9, -55, -39, -71, -6, 85, -85, -11, -1, -2, 5, -10, 1, 25, 41, -4, 69, -35, 86], "time_elapsed": 1087687, "trialIndex": 10, "trialTime": 42196, "trial_id": "mdp_trial_7", "trial_index": 21, "trial_type": "mouselab-mdp", "withholdReward": false}, "uniqueid": "w85568180:a40278983"}, {"current_trial": 22, "dateTime": 1693484082922, "trialdata": {"actionTimes": [26011, 29642, 30851, 31931, 32929], "actions": ["right", "right", "right", "down", "left"], "block": "test", "clicked_states": ["12", "13", "14", "19", "20", "21", "22"], "costs": -9.05, "displayed_time": "33.47", "internal_node_id": "0.0-6.0-1.0-7.0", "num_clicks_accrued": [0, 0, 0, 0, 0, 0, 0, 0, 0, 0, 0, 0, 0], "path": ["0", "0", "12", "13", "14", "19", "22"], "queries": {"click": {"edge": {"target": [], "time": []}, "state": {"target": ["12", "13", "14", "19", "20", "21", "22"], "time": [9661, 10635, 11674, 12599, 13816, 17558, 21153]}}, "mouseout": {"edge": {"target": [], "time": []}, "state": {"target": ["12", "12", "13", "14", "19", "20", "21", "22", "17", "14"], "time": [7125, 10270, 11282, 12211, 13491, 14775, 18106, 21707, 34976, 35642]}}, "mouseover": {"edge": {"target": [], "time": []}, "state": {"target": ["12", "13", "14", "19", "20", "21", "22", "17"], "time": [9196, 10309, 11340, 12287, 13546, 14911, 18390, 22107]}}}, "revealed_states": [], "rewards": [1, -3, -3, -9, 48], "rt": [17496, 1442, 675, 554, 455], "score": 24.95, "simulationMode": [null, null, null, null, null], "stateRewards": ["", -1, 2, -2, 13, -56, -28, 10, 14, 53, -80, -29, 1, -3, -3, -14, 14, 9, -40, -9, 18, 18, 48, 1, 1, 1, -9, 64, -39, -9, 7, -52, -78, 7], "time_elapsed": 1125466, "trialIndex": 11, "trialTime": 36432, "trial_id": "mdp_trial_8", "trial_index": 22, "trial_type": "mouselab-mdp", "withholdReward": false}, "uniqueid": "w85568180:a40278983"}, {"current_trial": 23, "dateTime": 1693484111673, "trialdata": {"actionTimes": [21187, 21971, 23007, 24162, 25189], "actions": ["left", "left", "left", "down", "right"], "block": "test", "clicked_states": ["23", "24", "25", "30", "33", "32", "31"], "costs": -9.05, "displayed_time": "25.75", "internal_node_id": "0.0-6.0-1.0-8.0", "num_clicks_accrued": [0, 0, 0, 0, 0, 0, 0, 0, 0, 0, 0, 0, 0], "path": ["0", "0", "23", "24", "25", "30", "31"], "queries": {"click": {"edge": {"target": [], "time": []}, "state": {"target": ["23", "24", "25", "30", "33", "32", "31"], "time": [4328, 5391, 6752, 7848, 9281, 12938, 16460]}}, "mouseout": {"edge": {"target": [], "time": []}, "state": {"target": ["0", "23", "24", "25", "30", "33", "30", "32", "31", "26"], "time": [833, 5021, 6335, 7465, 8814, 10152, 10385, 13159, 17215, 17569]}}, "mouseover": {"edge": {"target": [], "time": []}, "state": {"target": ["23", "24", "25", "30", "33", "32", "31", "26", "29"], "time": [4016, 5097, 6401, 7548, 8831, 10628, 13473, 17511, 17796]}}}, "revealed_states": [], "rewards": [1, -1, -7, 7, 36], "rt": [18291, 182, 492, 568, 459], "score": 26.95, "simulationMode": [null, null, null, null, null], "stateRewards": ["", 1, -1, 8, -3, 38, 85, -20, -4, 8, 23, 73, 2, -4, 6, -13, 44, 7, -28, -11, -77, 45, -69, 1, -1, -7, -11, 75, -51, -87, 7, 36, -53, -26], "time_elapsed": 1154217, "trialIndex": 12, "trialTime": 27344, "trial_id": "mdp_trial_9", "trial_index": 23, "trial_type": "mouselab-mdp", "withholdReward": false}, "uniqueid": "w85568180:a40278983"}, {"current_trial": 24, "dateTime": 1693484152720, "trialdata": {"actionTimes": [32726, 33401, 34320, 35318, 36281], "actions": ["right", "right", "right", "down", "left"], "block": "test", "clicked_states": ["1", "2", "3", "4", "8", "24", "23", "12", "13", "14", "15", "17", "22"], "costs": -11.149999999999999, "displayed_time": "36.85", "internal_node_id": "0.0-6.0-1.0-9.0", "num_clicks_accrued": [0, 0, 0, 0, 0, 0, 0, 0, 0, 0, 0, 0, 0], "path": ["0", "0", "12", "13", "14", "19", "22"], "queries": {"click": {"edge": {"target": [], "time": []}, "state": {"target": ["1", "2", "3", "4", "8", "24", "23", "12", "13", "14", "15", "17", "22"], "time": [9914, 11291, 12824, 14034, 15407, 17474, 18305, 19544, 20464, 21801, 23218, 24185, 27815]}}, "mouseout": {"edge": {"target": [], "time": []}, "state": {"target": ["29", "28", "0", "1", "2", "1", "2", "7", "3", "4", "3", "8", "10", "24", "23", "12", "13", "14", "15", "17", "14", "22", "21", "22", "22"], "time": [5764, 5898, 8587, 8654, 9516, 10889, 11865, 12316, 13624, 14729, 14779, 16673, 16837, 17705, 18499, 20062, 21229, 22000, 23812, 25579, 25911, 28328, 31699, 31883, 38367]}}, "mouseover": {"edge": {"target": [], "time": []}, "state": {"target": ["1", "2", "1", "2", "7", "3", "4", "8", "10", "24", "23", "12", "13", "14", "15", "17", "14", "22", "21"], "time": [8621, 8718, 9584, 10979, 11882, 12465, 13681, 15025, 16756, 17003, 17966, 19193, 20162, 21330, 22627, 23924, 25744, 26727, 28841]}}}, "revealed_states": [], "rewards": [2, 2, -7, 2, 75], "rt": [24778, 150, 342, 455, 385], "score": 62.85, "simulationMode": [null, null, null, null, null], "stateRewards": ["", -2, -1, -3, -1, -78, -6, 2, -1, 22, -88, 32, 2, 2, -7, -8, -51, -17, 54, 2, -44, 54, 75, 2, -2, -8, -15, -29, 12, -67, 15, -1, -47, -47], "time_elapsed": 1195264, "trialIndex": 13, "trialTime": 39727, "trial_id": "mdp_trial_10", "trial_index": 24, "trial_type": "mouselab-mdp", "withholdReward": false}, "uniqueid": "w85568180:a40278983"}, {"current_trial": 25, "dateTime": 1693484179473, "trialdata": {"actionTimes": [18706, 19358, 19904, 21220, 22129], "actions": ["left", "left", "left", "down", "right"], "block": "test", "clicked_states": ["31", "32", "33"], "costs": -6.449999999999999, "displayed_time": "22.69", "internal_node_id": "0.0-6.0-1.0-10.0", "num_clicks_accrued": [0, 0, 0, 0, 0, 0, 0, 0, 0, 0, 0, 0, 0], "path": ["0", "0", "23", "24", "25", "30", "31"], "queries": {"click": {"edge": {"target": [], "time": []}, "state": {"target": ["31", "32", "33"], "time": [6503, 10274, 13916]}}, "mouseout": {"edge": {"target": [], "time": []}, "state": {"target": ["22", "12", "0", "23", "31", "31", "32", "33", "29"], "time": [3114, 3243, 5672, 5713, 5827, 7168, 10906, 15323, 15625]}}, "mouseover": {"edge": {"target": [], "time": []}, "state": {"target": ["0", "23", "31", "31", "32", "33", "29"], "time": [5646, 5681, 5741, 6078, 7401, 11090, 15506]}}}, "revealed_states": [], "rewards": [1, -4, -2, 9, 66], "rt": [13764, 120, 7, 717, 355], "score": 63.55, "simulationMode": [null, null, null, null, null], "stateRewards": ["", 1, 4, 7, -16, -84, -6, -46, -12, -7, -49, -26, -1, 2, -4, 2, 22, 37, -64, 1, 88, -13, -10, 1, -4, -2, 5, 2, -10, -34, 9, 66, 55, 38], "time_elapsed": 1222016, "trialIndex": 14, "trialTime": 25279, "trial_id": "mdp_trial_11", "trial_index": 25, "trial_type": "mouselab-mdp", "withholdReward": false}, "uniqueid": "w85568180:a40278983"}, {"current_trial": 26, "dateTime": 1693484247998, "trialdata": {"actionTimes": [59996, 60827, 61945, 62895, 63877], "actions": ["right", "right", "right", "up", "left"], "block": "test", "clicked_states": ["11", "9", "6", "7", "29", "33", "28", "27", "32", "21", "20", "22", "17", "16", "18"], "costs": -32.24999999999999, "displayed_time": "64.45", "internal_node_id": "0.0-6.0-1.0-11.0", "num_clicks_accrued": [0, 0, 0, 0, 0, 0, 0, 0, 0, 0, 0, 0, 0], "path": ["0", "0", "12", "13", "14", "15", "18"], "queries": {"click": {"edge": {"target": [], "time": []}, "state": {"target": ["11", "9", "6", "7", "29", "33", "28", "27", "32", "21", "20", "22", "17", "16", "18"], "time": [4322, 7837, 11525, 15055, 18655, 22189, 25875, 29502, 33038, 37494, 41043, 44545, 48069, 51558, 55603]}}, "mouseout": {"edge": {"target": [], "time": []}, "state": {"target": ["10", "8", "11", "9", "5", "6", "7", "29", "29", "33", "28", "27", "26", "32", "21", "20", "22", "14", "17", "16", "18", "13"], "time": [3637, 3706, 4531, 8408, 8524, 13456, 15907, 16506, 19456, 22688, 26406, 30021, 30121, 33270, 38010, 41625, 45137, 45533, 48305, 52159, 65989, 66604]}}, "mouseover": {"edge": {"target": [], "time": []}, "state": {"target": ["10", "8", "11", "9", "5", "6", "7", "29", "29", "33", "28", "27", "26", "32", "21", "20", "22", "14", "17", "16", "18"], "time": [3612, 3676, 4028, 5456, 8462, 9307, 13508, 16390, 16675, 19869, 23156, 26854, 30037, 30488, 37124, 39615, 42487, 45469, 45974, 48816, 52175]}}}, "revealed_states": [], "rewards": [1, 1, -1, -6, 56], "rt": [57253, 271, 558, 407, 343], "score": 18.750000000000007, "simulationMode": [null, null, null, null, null], "stateRewards": ["", 1, 2, -3, -5, 66, -50, -47, -5, 1, 28, -27, 1, 1, -1, -6, 37, -25, 56, 1, -82, -66, -40, -1, -4, -7, 15, -61, -23, 26, 10, 14, -56, 29], "time_elapsed": 1290542, "trialIndex": 15, "trialTime": 67075, "trial_id": "mdp_trial_12", "trial_index": 26, "trial_type": "mouselab-mdp", "withholdReward": false}, "uniqueid": "w85568180:a40278983"}, {"current_trial": 27, "dateTime": 1693484267843, "trialdata": {"actionTimes": [8708, 9414, 10332, 11527, 12502], "actions": ["left", "left", "left", "down", "left"], "block": "test", "clicked_states": ["33"], "costs": -2.15, "displayed_time": "16.46", "internal_node_id": "0.0-6.0-1.0-12.0", "num_clicks_accrued": [0, 0, 0, 0, 0, 0, 0, 0, 0, 0, 0, 0, 0], "path": ["0", "0", "23", "24", "25", "30", "33"], "queries": {"click": {"edge": {"target": [], "time": []}, "state": {"target": ["33"], "time": [4010]}}, "mouseout": {"edge": {"target": [], "time": []}, "state": {"target": ["0", "23", "24", "30", "33"], "time": [1136, 3184, 3287, 3553, 14806]}}, "mouseover": {"edge": {"target": [], "time": []}, "state": {"target": ["23", "24", "30", "33"], "time": [3155, 3216, 3436, 3638]}}}, "revealed_states": [], "rewards": [2, -2, 6, -6, 80], "rt": [6250, 166, 379, 658, 407], "score": 77.85, "simulationMode": [null, null, null, null, null], "stateRewards": ["", 2, 3, -2, -8, -8, -41, 74, 15, -23, -80, 1, 1, 3, 3, -15, -63, -78, 67, 13, 75, -41, 86, 2, -2, 6, -3, -8, -49, 50, -6, 83, 74, 80], "time_elapsed": 1310386, "trialIndex": 16, "trialTime": 18520, "trial_id": "mdp_trial_13", "trial_index": 27, "trial_type": "mouselab-mdp", "withholdReward": false}, "uniqueid": "w85568180:a40278983"}, {"current_trial": 28, "dateTime": 1693484298435, "trialdata": {"actionTimes": [21873, 22657, 23668, 24689, 25653], "actions": ["right", "right", "right", "up", "up"], "block": "test", "clicked_states": ["29", "32", "16"], "costs": -6.449999999999999, "displayed_time": "26.20", "internal_node_id": "0.0-6.0-1.0-13.0", "num_clicks_accrued": [0, 0, 0, 0, 0, 0, 0, 0, 0, 0, 0, 0, 0], "path": ["0", "0", "12", "13", "14", "15", "16"], "queries": {"click": {"edge": {"target": [], "time": []}, "state": {"target": ["29", "32", "16"], "time": [7440, 12513, 16956]}}, "mouseout": {"edge": {"target": [], "time": []}, "state": {"target": ["33", "30", "31", "0", "12", "0", "28", "29", "26", "24", "31", "32", "12", "18"], "time": [2139, 3952, 3978, 4021, 4320, 6648, 6718, 11488, 11546, 11606, 11672, 13402, 16257, 16471]}}, "mouseover": {"edge": {"target": [], "time": []}, "state": {"target": ["28", "29", "26", "24", "31", "32", "12", "18", "16"], "time": [6689, 7376, 11517, 11575, 11634, 12071, 16222, 16387, 16604]}}}, "revealed_states": [], "rewards": [2, 4, -2, -13, 36], "rt": [15870, 233, 468, 427, 385], "score": 20.55, "simulationMode": [null, null, null, null, null], "stateRewards": ["", 1, 3, -2, 15, 51, 15, -19, 11, 67, -45, -73, 2, 4, -2, -13, 36, 9, -28, 10, -30, 31, 16, 1, 2, -1, -16, 14, -22, 36, -1, 88, -5, 45], "time_elapsed": 1340978, "trialIndex": 17, "trialTime": 29059, "trial_id": "mdp_trial_14", "trial_index": 28, "trial_type": "mouselab-mdp", "withholdReward": false}, "uniqueid": "w85568180:a40278983"}, {"current_trial": 29, "dateTime": 1693484346152, "trialdata": {"actionTimes": [38802, 39679, 40588, 41479, 42329], "actions": ["right", "right", "right", "down", "down"], "block": "test", "clicked_states": ["29", "33", "21"], "costs": -6.449999999999999, "displayed_time": "42.84", "internal_node_id": "0.0-6.0-1.0-14.0", "num_clicks_accrued": [0, 0, 0, 0, 0, 0, 0, 0, 0, 0, 0, 0, 0], "path": ["0", "0", "12", "13", "14", "19", "21"], "queries": {"click": {"edge": {"target": [], "time": []}, "state": {"target": ["29", "33", "21"], "time": [25898, 30010, 34422]}}, "mouseout": {"edge": {"target": [], "time": []}, "state": {"target": ["16", "18", "23", "24", "26", "29", "29", "33", "31", "22", "21", "21"], "time": [22595, 22631, 25208, 25253, 25496, 26156, 29414, 33631, 33694, 33802, 34631, 45261]}}, "mouseover": {"edge": {"target": [], "time": []}, "state": {"target": ["23", "24", "26", "29", "33", "31", "22", "21"], "time": [25180, 25219, 25397, 25547, 29663, 33664, 33763, 34164]}}}, "revealed_states": [], "rewards": [-1, 3, 2, 4, 49], "rt": [14512, 338, 395, 320, 298], "score": 50.55, "simulationMode": [null, null, null, null, null], "stateRewards": ["", 2, -4, 4, 9, 69, 9, -75, 12, -86, 66, 25, -1, 3, 2, -13, -88, -3, 1, 4, -69, 49, -84, 2, -1, 4, 2, -18, -81, -52, -15, -69, -54, 25], "time_elapsed": 1388696, "trialIndex": 18, "trialTime": 45949, "trial_id": "mdp_trial_15", "trial_index": 29, "trial_type": "mouselab-mdp", "withholdReward": false}, "uniqueid": "w85568180:a40278983"}, {"current_trial": 30, "dateTime": 1693484376986, "trialdata": {"actionTimes": [20775, 21373, 22658, 23878, 24949], "actions": ["up", "up", "up", "left", "down"], "block": "test", "clicked_states": ["10", "11", "9", "7"], "costs": -8.6, "displayed_time": "25.47", "internal_node_id": "0.0-6.0-1.0-15.0", "num_clicks_accrued": [0, 0, 0, 0, 0, 0, 0, 0, 0, 0, 0, 0, 0], "path": ["0", "0", "1", "2", "3", "8", "10"], "queries": {"click": {"edge": {"target": [], "time": []}, "state": {"target": ["10", "11", "9", "7"], "time": [6093, 9909, 13584, 17099]}}, "mouseout": {"edge": {"target": [], "time": []}, "state": {"target": ["0", "0", "10", "11", "9", "6", "7", "6"], "time": [2489, 5207, 7505, 10752, 15369, 15534, 26668, 26738]}}, "mouseover": {"edge": {"target": [], "time": []}, "state": {"target": ["10", "11", "9", "6", "7"], "time": [5673, 7836, 10884, 15487, 15968]}}}, "revealed_states": [], "rewards": [1, 1, -6, 16, 66], "rt": [16310, 20, 744, 609, 495], "score": 69.4, "simulationMode": [null, null, null, null, null], "stateRewards": ["", 1, 1, -6, -2, 7, 77, 3, 16, -16, 66, 31, -1, 3, -8, -6, 33, -50, -48, 7, -60, -66, 36, 2, -3, 3, -7, -12, -61, -79, -4, 8, 74, -70], "time_elapsed": 1419530, "trialIndex": 19, "trialTime": 29147, "trial_id": "mdp_trial_16", "trial_index": 30, "trial_type": "mouselab-mdp", "withholdReward": false}, "uniqueid": "w85568180:a40278983"}, {"current_trial": 31, "dateTime": 1693484417680, "trialdata": {"actionTimes": [33232, 33809, 34582, 35574, 36419], "actions": ["right", "right", "right", "up", "up"], "block": "test", "clicked_states": ["27", "33", "9", "5", "6", "16"], "costs": -12.9, "displayed_time": "36.97", "internal_node_id": "0.0-6.0-1.0-16.0", "num_clicks_accrued": [0, 0, 0, 0, 0, 0, 0, 0, 0, 0, 0, 0, 0], "path": ["0", "0", "12", "13", "14", "15", "16"], "queries": {"click": {"edge": {"target": [], "time": []}, "state": {"target": ["27", "33", "9", "5", "6", "16"], "time": [8481, 13379, 17797, 21474, 25077, 28653]}}, "mouseout": {"edge": {"target": [], "time": []}, "state": {"target": ["16", "0", "23", "27", "29", "33", "23", "10", "8", "9", "5", "5", "6", "16", "17", "17", "22"], "time": [4274, 7643, 7707, 12092, 12325, 14172, 17014, 17176, 17308, 18572, 18752, 22038, 25809, 29354, 29699, 37994, 38722]}}, "mouseover": {"edge": {"target": [], "time": []}, "state": {"target": ["23", "27", "29", "33", "23", "10", "8", "9", "5", "5", "6", "16", "17", "17"], "time": [7673, 8143, 12157, 13041, 16976, 17044, 17220, 17435, 18635, 19090, 22588, 26055, 29589, 29887]}}}, "revealed_states": [], "rewards": [-1, -4, -5, 7, 66], "rt": [27168, 37, 224, 451, 265], "score": 50.1, "simulationMode": [null, null, null, null, null], "stateRewards": ["", -2, 2, -5, -6, 10, -66, -58, -10, -11, -63, -70, -1, -4, -5, 7, 66, -64, -43, -3, 45, -37, 4, -2, -2, -6, -4, -30, 33, 43, 15, -32, -65, -59], "time_elapsed": 1460224, "trialIndex": 20, "trialTime": 39248, "trial_id": "mdp_trial_17", "trial_index": 31, "trial_type": "mouselab-mdp", "withholdReward": false}, "uniqueid": "w85568180:a40278983"}, {"current_trial": 32, "dateTime": 1693484443016, "trialdata": {"actionTimes": [16863, 18050, 18906, 19923, 21187], "actions": ["right", "right", "right", "down", "left"], "block": "test", "clicked_states": ["21", "20", "22"], "costs": -6.449999999999999, "displayed_time": "21.73", "internal_node_id": "0.0-6.0-1.0-17.0", "num_clicks_accrued": [0, 0, 0, 0, 0, 0, 0, 0, 0, 0, 0, 0, 0], "path": ["0", "0", "12", "13", "14", "19", "22"], "queries": {"click": {"edge": {"target": [], "time": []}, "state": {"target": ["21", "20", "22"], "time": [4564, 8847, 12392]}}, "mouseout": {"edge": {"target": [], "time": []}, "state": {"target": ["0", "0", "22", "21", "20", "22", "14"], "time": [906, 3062, 3660, 5419, 10589, 13073, 13158]}}, "mouseover": {"edge": {"target": [], "time": []}, "state": {"target": ["22", "21", "20", "22", "14", "17"], "time": [3626, 3774, 6018, 10732, 13089, 13305]}}}, "revealed_states": [], "rewards": [1, 2, -2, 3, 85], "rt": [14678, 620, 251, 466, 698], "score": 82.55, "simulationMode": [null, null, null, null, null], "stateRewards": ["", -1, 2, 5, -6, 13, -64, -47, 8, -79, -80, -33, 1, 2, -2, -16, 56, -71, -10, 3, 29, 44, 85, -1, 4, 5, 4, -36, -56, 19, 8, 52, -13, -2], "time_elapsed": 1485560, "trialIndex": 21, "trialTime": 23955, "trial_id": "mdp_trial_18", "trial_index": 32, "trial_type": "mouselab-mdp", "withholdReward": false}, "uniqueid": "w85568180:a40278983"}, {"current_trial": 33, "dateTime": 1693484490208, "trialdata": {"actionTimes": [38818, 40006, 40981, 42141, 43365], "actions": ["left", "left", "left", "down", "right"], "block": "test", "clicked_states": ["31", "33", "32"], "costs": -6.449999999999999, "displayed_time": "43.94", "internal_node_id": "0.0-6.0-1.0-18.0", "num_clicks_accrued": [0, 0, 0, 0, 0, 0, 0, 0, 0, 0, 0, 0, 0], "path": ["0", "0", "23", "24", "25", "30", "31"], "queries": {"click": {"edge": {"target": [], "time": []}, "state": {"target": ["31", "33", "32"], "time": [25230, 30774, 34653]}}, "mouseout": {"edge": {"target": [], "time": []}, "state": {"target": ["17", "15", "18", "0", "12", "13", "12", "0", "31", "31", "31", "30", "33", "30", "32"], "time": [3067, 3107, 3153, 22332, 23668, 23767, 23851, 24131, 24516, 26517, 30152, 30220, 31604, 31695, 34864]}}, "mouseover": {"edge": {"target": [], "time": []}, "state": {"target": ["12", "13", "12", "0", "31", "31", "30", "33", "30", "32"], "time": [23627, 23681, 23795, 24100, 24484, 24832, 30182, 30384, 31650, 34249]}}}, "revealed_states": [], "rewards": [2, -4, 5, 7, 71], "rt": [15322, 666, 445, 637, 650], "score": 74.55, "simulationMode": [null, null, null, null, null], "stateRewards": ["", 2, 4, 7, 7, -79, -2, -21, -5, -53, 47, -21, 1, -3, -1, 7, 83, 7, 84, -7, 80, -37, 69, 2, -4, 5, 2, 4, -20, -30, 7, 71, 44, -81], "time_elapsed": 1532751, "trialIndex": 22, "trialTime": 45525, "trial_id": "mdp_trial_19", "trial_index": 33, "trial_type": "mouselab-mdp", "withholdReward": false}, "uniqueid": "w85568180:a40278983"}, {"current_trial": 34, "dateTime": 1693484521721, "trialdata": {"actionTimes": [21749, 22685, 23506, 24734, 25737], "actions": ["left", "left", "left", "down", "left"], "block": "test", "clicked_states": ["31", "33"], "costs": -4.3, "displayed_time": "26.32", "internal_node_id": "0.0-6.0-1.0-19.0", "num_clicks_accrued": [0, 0, 0, 0, 0, 0, 0, 0, 0, 0, 0, 0, 0], "path": ["0", "0", "23", "24", "25", "30", "33"], "queries": {"click": {"edge": {"target": [], "time": []}, "state": {"target": ["31", "33"], "time": [13714, 17239]}}, "mouseout": {"edge": {"target": [], "time": []}, "state": {"target": ["0", "0", "31", "31", "31", "30", "33", "33", "30", "32"], "time": [9500, 12252, 12466, 12949, 13915, 15258, 16131, 17442, 18107, 29527]}}, "mouseover": {"edge": {"target": [], "time": []}, "state": {"target": ["31", "31", "31", "30", "33", "33", "30", "32"], "time": [12366, 12883, 13332, 15209, 15302, 16436, 18046, 18296]}}}, "revealed_states": [], "rewards": [2, -4, -8, 5, 88], "rt": [10181, 408, 223, 682, 420], "score": 78.7, "simulationMode": [null, null, null, null, null], "stateRewards": ["", -1, 4, -8, 12, 14, 69, -8, 5, -72, -14, 56, -1, -1, -1, 9, 67, 19, 11, -9, -88, -58, 3, 2, -4, -8, 4, 62, 77, -74, 5, -31, 65, 88], "time_elapsed": 1564265, "trialIndex": 23, "trialTime": 29859, "trial_id": "mdp_trial_20", "trial_index": 34, "trial_type": "mouselab-mdp", "withholdReward": false}, "uniqueid": "w85568180:a40278983"}, {"current_trial": 35, "dateTime": 1693484548127, "trialdata": {"actionTimes": [18007, 18846, 19840, 20761, 21730], "actions": ["right", "right", "right", "down", "left"], "block": "test", "clicked_states": ["21", "20", "22"], "costs": -6.449999999999999, "displayed_time": "22.30", "internal_node_id": "0.0-6.0-1.0-20.0", "num_clicks_accrued": [0, 0, 0, 0, 0, 0, 0, 0, 0, 0, 0, 0, 0], "path": ["0", "0", "12", "13", "14", "19", "22"], "queries": {"click": {"edge": {"target": [], "time": []}, "state": {"target": ["21", "20", "22"], "time": [6231, 9830, 13371]}}, "mouseout": {"edge": {"target": [], "time": []}, "state": {"target": ["30", "31", "0", "12", "22", "21", "20", "19", "22"], "time": [1655, 1687, 2037, 4653, 4725, 6787, 10259, 10338, 13901]}}, "mouseover": {"edge": {"target": [], "time": []}, "state": {"target": ["12", "22", "21", "20", "19", "22", "17"], "time": [4624, 4691, 5841, 6921, 10275, 10398, 14115]}}}, "revealed_states": [], "rewards": [-2, -4, -1, 4, 88], "rt": [14605, 283, 455, 392, 395], "score": 78.55, "simulationMode": [null, null, null, null, null], "stateRewards": ["", -1, 4, -3, 3, 57, -61, 5, -11, 23, -1, 34, -2, -4, -1, -13, 27, 38, -36, 4, -45, 21, 88, 1, -2, -1, 1, -69, -5, -78, -12, -9, 38, -54], "time_elapsed": 1590671, "trialIndex": 24, "trialTime": 24776, "trial_id": "mdp_trial_21", "trial_index": 35, "trial_type": "mouselab-mdp", "withholdReward": false}, "uniqueid": "w85568180:a40278983"}, {"current_trial": 36, "dateTime": 1693484716470, "trialdata": {"actionTimes": [158579, 159563, 160594, 161776, 163404], "actions": ["left", "left", "left", "up", "right"], "block": "test", "clicked_states": ["23", "24", "33", "32", "31", "29", "27", "28"], "costs": -13.000000000000002, "displayed_time": "163.98", "internal_node_id": "0.0-6.0-1.0-21.0", "num_clicks_accrued": [0, 0, 0, 0, 0, 0, 0, 0, 0, 0, 0, 0, 0], "path": ["0", "0", "23", "24", "25", "26", "28"], "queries": {"click": {"edge": {"target": [], "time": []}, "state": {"target": ["23", "24", "33", "32", "31", "29", "27", "28"], "time": [134083, 135162, 136333, 139802, 143305, 147716, 151272, 154841]}}, "mouseout": {"edge": {"target": [], "time": []}, "state": {"target": ["16", "1", "23", "24", "33", "32", "32", "31", "25", "29", "27", "28", "23"], "time": [130684, 131084, 134615, 135628, 137268, 138836, 140361, 146975, 147061, 148713, 151798, 165801, 166581]}}, "mouseover": {"edge": {"target": [], "time": []}, "state": {"target": ["23", "24", "33", "32", "32", "31", "25", "29", "27", "28"], "time": [133636, 134724, 135871, 137961, 139075, 140662, 147030, 147368, 148782, 152125]}}}, "revealed_states": [], "rewards": [1, 3, 4, 12, 54], "rt": [26069, 463, 446, 612, 1088], "score": 61, "simulationMode": [null, null, null, null, null], "stateRewards": ["", -2, 1, 6, -2, -10, -78, -69, 14, -15, 7, -1, 1, -1, -2, 13, 77, 32, 87, 5, -74, 30, -26, 1, 3, 4, 12, 39, 54, -43, 2, 10, 23, 13], "time_elapsed": 1759014, "trialIndex": 25, "trialTime": 166936, "trial_id": "mdp_trial_22", "trial_index": 36, "trial_type": "mouselab-mdp", "withholdReward": false}, "uniqueid": "w85568180:a40278983"}, {"current_trial": 37, "dateTime": 1693484741278, "trialdata": {"actionTimes": [16518, 17384, 18352, 19534, 20570], "actions": ["right", "right", "right", "down", "down"], "block": "test", "clicked_states": ["19", "20", "21"], "costs": -5.85, "displayed_time": "21.12", "internal_node_id": "0.0-6.0-1.0-22.0", "num_clicks_accrued": [0, 0, 0, 0, 0, 0, 0, 0, 0, 0, 0, 0, 0], "path": ["0", "0", "12", "13", "14", "19", "21"], "queries": {"click": {"edge": {"target": [], "time": []}, "state": {"target": ["19", "20", "21"], "time": [6562, 8065, 11890]}}, "mouseout": {"edge": {"target": [], "time": []}, "state": {"target": ["0", "0", "12", "13", "14", "19", "20", "21", "22"], "time": [2396, 5477, 5517, 5581, 5646, 7290, 8675, 12477, 22744]}}, "mouseover": {"edge": {"target": [], "time": []}, "state": {"target": ["12", "13", "14", "19", "20", "21", "22"], "time": [5490, 5551, 5614, 6261, 7359, 8943, 12592]}}}, "revealed_states": [], "rewards": [-2, 2, 8, -8, 51], "rt": [12172, 328, 408, 643, 463], "score": 45.15, "simulationMode": [null, null, null, null, null], "stateRewards": ["", -2, -3, 8, -4, -30, 31, 69, 9, 66, 87, 64, -2, 2, 8, 5, 47, 16, -39, -8, -54, 51, -19, 1, -2, -2, -11, -25, -26, 43, -9, 19, -84, 86], "time_elapsed": 1783821, "trialIndex": 26, "trialTime": 23225, "trial_id": "mdp_trial_23", "trial_index": 37, "trial_type": "mouselab-mdp", "withholdReward": false}, "uniqueid": "w85568180:a40278983"}, {"current_trial": 38, "dateTime": 1693484761235, "trialdata": {"actionTimes": [9376, 10261, 11263, 12407, 13488], "actions": ["left", "left", "left", "down", "left"], "block": "test", "clicked_states": ["33"], "costs": -2.15, "displayed_time": "16.68", "internal_node_id": "0.0-6.0-1.0-23.0", "num_clicks_accrued": [0, 0, 0, 0, 0, 0, 0, 0, 0, 0, 0, 0, 0], "path": ["0", "0", "23", "24", "25", "30", "33"], "queries": {"click": {"edge": {"target": [], "time": []}, "state": {"target": ["33"], "time": [4362]}}, "mouseout": {"edge": {"target": [], "time": []}, "state": {"target": ["13", "12", "0", "30", "33", "32"], "time": [979, 1078, 3681, 3947, 4582, 6979]}}, "mouseover": {"edge": {"target": [], "time": []}, "state": {"target": ["30", "33", "32", "32"], "time": [3797, 4046, 5560, 7947]}}}, "revealed_states": [], "rewards": [-2, -3, 4, -1, 84], "rt": [6699, 337, 468, 563, 545], "score": 79.85, "simulationMode": [null, null, null, null, null], "stateRewards": ["", 1, 2, 3, 16, 63, -25, 16, -4, -14, 82, -66, -1, -3, -3, -11, -14, 19, 46, 3, -34, -82, 66, -2, -3, 4, -5, -63, 77, -37, -1, -45, -41, 84], "time_elapsed": 1803777, "trialIndex": 27, "trialTime": 18453, "trial_id": "mdp_trial_24", "trial_index": 38, "trial_type": "mouselab-mdp", "withholdReward": false}, "uniqueid": "w85568180:a40278983"}, {"current_trial": 39, "dateTime": 1693484839387, "trialdata": {"actionTimes": [69628, 70298, 71196, 72363, 73429], "actions": ["up", "up", "up", "left", "down"], "block": "test", "clicked_states": ["33", "32", "31", "21", "20", "22", "16", "17", "18", "29", "27", "28", "9", "5", "6", "7", "11", "10"], "costs": -38.69999999999999, "displayed_time": "74.00", "internal_node_id": "0.0-6.0-1.0-24.0", "num_clicks_accrued": [0, 0, 0, 0, 0, 0, 0, 0, 0, 0, 0, 0, 0], "path": ["0", "0", "1", "2", "3", "8", "10"], "queries": {"click": {"edge": {"target": [], "time": []}, "state": {"target": ["33", "32", "31", "21", "20", "22", "16", "17", "18", "29", "27", "28", "9", "5", "6", "7", "11", "10"], "time": [3962, 7673, 11250, 14739, 18442, 22342, 25927, 29410, 32901, 36523, 40088, 43648, 47148, 50555, 54034, 57433, 60996, 64600]}}, "mouseout": {"edge": {"target": [], "time": []}, "state": {"target": ["30", "24", "23", "0", "31", "30", "33", "33", "33", "32", "32", "31", "21", "20", "22", "16", "17", "18", "26", "29", "27", "28", "9", "5", "5", "6", "7", "2", "2", "7", "11", "10"], "time": [811, 861, 910, 3213, 3279, 3343, 3479, 4172, 4947, 5912, 8159, 11478, 14963, 18907, 22913, 26487, 29911, 33580, 33822, 36926, 40617, 44239, 47732, 50783, 51163, 54674, 54753, 54860, 55418, 57962, 61574, 75873]}}, "mouseover": {"edge": {"target": [], "time": []}, "state": {"target": ["31", "30", "33", "33", "32", "32", "31", "21", "20", "22", "16", "17", "18", "26", "29", "27", "28", "9", "5", "6", "7", "2", "2", "7", "11", "10"], "time": [3248, 3312, 3374, 3629, 5120, 7034, 8274, 12276, 15424, 19091, 23236, 26507, 30144, 33593, 33838, 37118, 40742, 44537, 47848, 51334, 54689, 54768, 55352, 55637, 58268, 61638]}}}, "revealed_states": [], "rewards": [1, 4, -8, 13, 40], "rt": [67272, 110, 345, 595, 528], "score": 11.300000000000011, "simulationMode": [null, null, null, null, null], "stateRewards": ["", 1, 4, -8, -5, -15, -7, 21, 13, -30, 40, -65, 1, 1, 5, -14, 35, 27, -38, -11, 36, -58, -47, -2, 4, -3, 13, -16, -49, 22, 15, -56, -44, -10], "time_elapsed": 1881931, "trialIndex": 28, "trialTime": 76758, "trial_id": "mdp_trial_25", "trial_index": 39, "trial_type": "mouselab-mdp", "withholdReward": false}, "uniqueid": "w85568180:a40278983"}, {"current_trial": 40, "dateTime": 1693484882597, "trialdata": {"actionTimes": [35484, 36361, 37345, 38382, 39457], "actions": ["left", "left", "left", "up", "up"], "block": "test", "clicked_states": ["33", "32", "31", "27"], "costs": -8.6, "displayed_time": "40.00", "internal_node_id": "0.0-6.0-1.0-25.0", "num_clicks_accrued": [0, 0, 0, 0, 0, 0, 0, 0, 0, 0, 0, 0, 0], "path": ["0", "0", "23", "24", "25", "26", "27"], "queries": {"click": {"edge": {"target": [], "time": []}, "state": {"target": ["33", "32", "31", "27"], "time": [19471, 22804, 26550, 30680]}}, "mouseout": {"edge": {"target": [], "time": []}, "state": {"target": ["8", "10", "1", "0", "30", "33", "33", "32", "31", "26", "27", "29"], "time": [15270, 15817, 16100, 18896, 18984, 19693, 20362, 23680, 30118, 30188, 30908, 41219]}}, "mouseover": {"edge": {"target": [], "time": []}, "state": {"target": ["0", "30", "33", "32", "31", "26", "27", "29"], "time": [18860, 18943, 19103, 20475, 23795, 30155, 30251, 31681]}}}, "revealed_states": [], "rewards": [1, -3, -2, -1, 68], "rt": [17588, 315, 445, 483, 525], "score": 54.4, "simulationMode": [null, null, null, null, null], "stateRewards": ["", 1, 2, 8, -2, 23, -69, -18, -16, 54, -21, 71, -1, -4, 7, 11, 43, -6, 88, 6, -55, 72, 43, 1, -3, -2, -1, 68, -31, -54, 4, -8, 25, -2], "time_elapsed": 1925141, "trialIndex": 29, "trialTime": 41870, "trial_id": "mdp_trial_26", "trial_index": 40, "trial_type": "mouselab-mdp", "withholdReward": false}, "uniqueid": "w85568180:a40278983"}, {"current_trial": 41, "dateTime": 1693484922345, "trialdata": {"actionTimes": [31271, 32097, 33038, 33987, 34995], "actions": ["up", "up", "up", "right", "up"], "block": "test", "clicked_states": ["9", "5", "10", "11", "7", "6"], "costs": -12.9, "displayed_time": "35.53", "internal_node_id": "0.0-6.0-1.0-26.0", "num_clicks_accrued": [0, 0, 0, 0, 0, 0, 0, 0, 0, 0, 0, 0, 0], "path": ["0", "0", "1", "2", "3", "4", "5"], "queries": {"click": {"edge": {"target": [], "time": []}, "state": {"target": ["9", "5", "10", "11", "7", "6"], "time": [8178, 11984, 16140, 19958, 23809, 27528]}}, "mouseout": {"edge": {"target": [], "time": []}, "state": {"target": ["28", "12", "8", "9", "5", "5", "10", "11", "4", "6", "7", "6"], "time": [4932, 5249, 7708, 8729, 8885, 12228, 16697, 20557, 20676, 22564, 24345, 36781]}}, "mouseover": {"edge": {"target": [], "time": []}, "state": {"target": ["8", "9", "5", "5", "10", "11", "4", "6", "7", "6"], "time": [7669, 7801, 8842, 9775, 14087, 17182, 20574, 20689, 22847, 24433]}}}, "revealed_states": [], "rewards": [-1, -3, 3, 5, 56], "rt": [24506, 234, 374, 424, 482], "score": 47.1, "simulationMode": [null, null, null, null, null], "stateRewards": ["", -1, -3, 3, 5, 56, 39, 50, -1, -80, 33, -46, 1, -2, -6, -8, 87, 48, 54, -11, -20, -64, -54, -2, 3, -7, -3, 12, 88, 35, -16, -46, -70, -3], "time_elapsed": 1964889, "trialIndex": 30, "trialTime": 38137, "trial_id": "mdp_trial_27", "trial_index": 41, "trial_type": "mouselab-mdp", "withholdReward": false}, "uniqueid": "w85568180:a40278983"}, {"current_trial": 42, "dateTime": 1693484958719, "trialdata": {"actionTimes": [26960, 27714, 28720, 29878, 30889], "actions": ["up", "up", "up", "right", "up"], "block": "test", "clicked_states": ["10", "9", "11", "7", "6", "5"], "costs": -12.9, "displayed_time": "31.46", "internal_node_id": "0.0-6.0-1.0-27.0", "num_clicks_accrued": [0, 0, 0, 0, 0, 0, 0, 0, 0, 0, 0, 0, 0], "path": ["0", "0", "1", "2", "3", "4", "5"], "queries": {"click": {"edge": {"target": [], "time": []}, "state": {"target": ["10", "9", "11", "7", "6", "5"], "time": [4509, 8053, 11543, 15229, 18784, 22274]}}, "mouseout": {"edge": {"target": [], "time": []}, "state": {"target": ["6", "0", "1", "10", "8", "9", "11", "8", "7", "6", "5", "4", "26", "29", "27"], "time": [904, 3784, 3852, 5310, 5614, 8666, 12043, 12171, 15742, 19263, 23234, 24314, 24435, 24900, 34682]}}, "mouseover": {"edge": {"target": [], "time": []}, "state": {"target": ["1", "10", "8", "9", "11", "8", "7", "6", "5", "4", "26", "29", "27"], "time": [3816, 4170, 5485, 5748, 8983, 12061, 12450, 15759, 19602, 23248, 24374, 24447, 25950]}}}, "revealed_states": [], "rewards": [2, -1, 5, 8, 75], "rt": [24339, 181, 463, 631, 440], "score": 76.1, "simulationMode": [null, null, null, null, null], "stateRewards": ["", 2, -1, 5, 8, 75, -35, -77, 1, -9, -81, -58, 1, 2, -7, 5, 77, -16, 19, 16, -10, -18, 40, -2, 3, 7, -5, 64, 1, -62, 10, 27, 10, 65], "time_elapsed": 2001263, "trialIndex": 31, "trialTime": 34685, "trial_id": "mdp_trial_28", "trial_index": 42, "trial_type": "mouselab-mdp", "withholdReward": false}, "uniqueid": "w85568180:a40278983"}, {"current_trial": 43, "dateTime": 1693485002534, "trialdata": {"actionTimes": [35030, 35894, 36775, 38005, 39009], "actions": ["left", "left", "left", "down", "down"], "block": "test", "clicked_states": ["25", "29", "27", "33", "32", "31"], "costs": -11.700000000000001, "displayed_time": "39.53", "internal_node_id": "0.0-6.0-1.0-28.0", "num_clicks_accrued": [0, 0, 0, 0, 0, 0, 0, 0, 0, 0, 0, 0, 0], "path": ["0", "0", "23", "24", "25", "30", "32"], "queries": {"click": {"edge": {"target": [], "time": []}, "state": {"target": ["25", "29", "27", "33", "32", "31"], "time": [15424, 16631, 20336, 23969, 27434, 31531]}}, "mouseout": {"edge": {"target": [], "time": []}, "state": {"target": ["33", "30", "31", "0", "23", "25", "29", "27", "33", "32", "31"], "time": [11013, 11059, 11111, 14814, 14998, 15633, 16824, 21162, 24444, 28008, 40631]}}, "mouseover": {"edge": {"target": [], "time": []}, "state": {"target": ["23", "25", "29", "27", "33", "32", "31"], "time": [14845, 15010, 16096, 17380, 21677, 24743, 28109]}}}, "revealed_states": [], "rewards": [-1, 3, -8, 2, 61], "rt": [21265, 334, 366, 663, 450], "score": 45.3, "simulationMode": [null, null, null, null, null], "stateRewards": ["", -1, 3, -5, -2, -13, -9, -34, -7, -81, 32, 35, -2, -2, 1, -14, -32, 81, 7, 4, 82, 56, -8, -1, 3, -8, 6, -24, -24, -53, 2, 38, 61, 54], "time_elapsed": 2045078, "trialIndex": 32, "trialTime": 42250, "trial_id": "mdp_trial_29", "trial_index": 43, "trial_type": "mouselab-mdp", "withholdReward": false}, "uniqueid": "w85568180:a40278983"}, {"current_trial": 44, "dateTime": 1693485042016, "trialdata": {"actionTimes": [29699, 30729, 31714, 32817, 33797], "actions": ["right", "right", "right", "up", "up"], "block": "test", "clicked_states": ["21", "20", "22", "16"], "costs": -8.6, "displayed_time": "34.34", "internal_node_id": "0.0-6.0-1.0-29.0", "num_clicks_accrued": [0, 0, 0, 0, 0, 0, 0, 0, 0, 0, 0, 0, 0], "path": ["0", "0", "12", "13", "14", "15", "16"], "queries": {"click": {"edge": {"target": [], "time": []}, "state": {"target": ["21", "20", "22", "16"], "time": [13852, 17695, 21324, 24993]}}, "mouseout": {"edge": {"target": [], "time": []}, "state": {"target": ["12", "0", "0", "12", "22", "21", "20", "19", "22", "16", "17", "14", "13"], "time": [6642, 7105, 13091, 13180, 13252, 14072, 18136, 18248, 21869, 25638, 36789, 36839, 37354]}}, "mouseover": {"edge": {"target": [], "time": []}, "state": {"target": ["12", "22", "21", "20", "19", "22", "16", "17"], "time": [13125, 13211, 13523, 17257, 18151, 18262, 22319, 25654]}}}, "revealed_states": [], "rewards": [-2, 1, -4, -5, 86], "rt": [17255, 454, 427, 512, 414], "score": 67.4, "simulationMode": [null, null, null, null, null], "stateRewards": ["", -2, -3, 1, -14, 48, -49, 67, -1, -35, -48, 3, -2, 1, -4, -5, 86, -84, 39, 1, 48, 41, -42, -1, -4, 2, -7, 18, -86, 17, 7, -9, 57, -69], "time_elapsed": 2084560, "trialIndex": 33, "trialTime": 37881, "trial_id": "mdp_trial_30", "trial_index": 44, "trial_type": "mouselab-mdp", "withholdReward": false}, "uniqueid": "w85568180:a40278983"}, {"current_trial": 45, "dateTime": 1693485118840, "trialdata": {"actionTimes": [67995, 68698, 69581, 70748, 71750], "actions": ["up", "up", "up", "left", "down"], "block": "test", "clicked_states": ["33", "32", "31", "16", "17", "18", "20", "21", "22", "5", "6", "7", "10", "11", "9"], "costs": -32.24999999999999, "displayed_time": "72.27", "internal_node_id": "0.0-6.0-1.0-30.0", "num_clicks_accrued": [0, 0, 0, 0, 0, 0, 0, 0, 0, 0, 0, 0, 0], "path": ["0", "0", "1", "2", "3", "8", "10"], "queries": {"click": {"edge": {"target": [], "time": []}, "state": {"target": ["33", "32", "31", "16", "17", "18", "20", "21", "22", "5", "6", "7", "10", "11", "9"], "time": [13563, 17260, 20910, 24406, 27970, 31526, 35056, 38638, 42130, 45634, 49190, 52659, 56215, 59780, 63291]}}, "mouseout": {"edge": {"target": [], "time": []}, "state": {"target": ["0", "0", "23", "24", "25", "30", "33", "32", "31", "22", "15", "16", "17", "15", "18", "20", "20", "21", "22", "7", "5", "6", "7", "2", "10", "11", "9"], "time": [10357, 12827, 12900, 12943, 13010, 13142, 13787, 17821, 21459, 21583, 22028, 25133, 29405, 29505, 32019, 32129, 35620, 39187, 42652, 42769, 46201, 49718, 53300, 53378, 56445, 60567, 74004]}}, "mouseover": {"edge": {"target": [], "time": []}, "state": {"target": ["23", "24", "25", "30", "33", "32", "31", "22", "15", "16", "17", "15", "18", "20", "20", "21", "22", "7", "5", "6", "7", "2", "10", "11", "9"], "time": [12861, 12910, 12976, 13058, 13242, 14742, 17938, 21527, 21971, 22043, 25686, 29422, 29620, 32079, 32405, 35677, 39518, 42708, 43249, 46260, 50001, 53315, 53439, 56856, 60732]}}}, "revealed_states": [], "rewards": [2, 3, -1, 2, 79], "rt": [55732, 161, 331, 613, 466], "score": 52.75000000000001, "simulationMode": [null, null, null, null, null], "stateRewards": ["", 2, 3, -1, 16, -78, -11, 46, 2, -20, 79, -67, 2, 3, 2, 11, -83, -42, -58, -11, -67, -22, 55, 2, -1, -1, -16, -83, -82, 23, -11, -29, 13, 13], "time_elapsed": 2161384, "trialIndex": 34, "trialTime": 75146, "trial_id": "mdp_trial_31", "trial_index": 45, "trial_type": "mouselab-mdp", "withholdReward": false}, "uniqueid": "w85568180:a40278983"}, {"current_trial": 46, "dateTime": 1693485153043, "trialdata": {"actionTimes": [22540, 23314, 24226, 25271, 26264], "actions": ["left", "left", "left", "down", "right"], "block": "test", "clicked_states": ["32", "33", "31"], "costs": -6.449999999999999, "displayed_time": "26.84", "internal_node_id": "0.0-6.0-1.0-31.0", "num_clicks_accrued": [0, 0, 0, 0, 0, 0, 0, 0, 0, 0, 0, 0, 0], "path": ["0", "0", "23", "24", "25", "30", "31"], "queries": {"click": {"edge": {"target": [], "time": []}, "state": {"target": ["32", "33", "31"], "time": [10078, 14152, 17813]}}, "mouseout": {"edge": {"target": [], "time": []}, "state": {"target": ["9", "2", "1", "0", "30", "32", "33", "30", "31", "26", "27", "10", "1", "0"], "time": [6195, 6377, 6510, 9047, 9730, 10281, 16077, 16426, 18337, 18457, 27678, 27795, 27987, 28411]}}, "mouseover": {"edge": {"target": [], "time": []}, "state": {"target": ["30", "32", "33", "30", "31", "26", "27"], "time": [9530, 9782, 13847, 16142, 16594, 18403, 18622]}}}, "revealed_states": [], "rewards": [-2, -1, 5, 13, 86], "rt": [14458, 210, 350, 468, 455], "score": 94.55, "simulationMode": [null, null, null, null, null], "stateRewards": ["", 2, -1, 1, 10, -52, 86, -22, -2, -14, -63, 38, 1, 3, 7, -8, 11, -32, -27, 9, -71, 40, -87, -2, -1, 5, -7, 12, 31, -57, 13, 86, -58, 29], "time_elapsed": 2195586, "trialIndex": 35, "trialTime": 32561, "trial_id": "mdp_trial_32", "trial_index": 46, "trial_type": "mouselab-mdp", "withholdReward": false}, "uniqueid": "w85568180:a40278983"}, {"current_trial": 47, "dateTime": 1693485212391, "trialdata": {"actionTimes": [50987, 51692, 52623, 53508, 54523], "actions": ["up", "up", "up", "right", "down"], "block": "test", "clicked_states": ["31", "32", "33", "29", "27", "28", "10", "11", "9", "5", "6", "7"], "costs": -25.799999999999994, "displayed_time": "55.10", "internal_node_id": "0.0-6.0-1.0-32.0", "num_clicks_accrued": [0, 0, 0, 0, 0, 0, 0, 0, 0, 0, 0, 0, 0], "path": ["0", "0", "1", "2", "3", "4", "7"], "queries": {"click": {"edge": {"target": [], "time": []}, "state": {"target": ["31", "32", "33", "29", "27", "28", "10", "11", "9", "5", "6", "7"], "time": [6861, 10571, 14120, 17634, 21190, 24760, 28284, 31871, 35398, 38923, 42480, 45945]}}, "mouseout": {"edge": {"target": [], "time": []}, "state": {"target": ["0", "31", "31", "31", "32", "33", "29", "27", "28", "10", "8", "8", "10", "11", "9", "5", "6", "7"], "time": [6218, 6319, 7086, 9297, 11000, 14697, 18097, 21845, 25469, 25580, 25725, 26097, 28828, 32395, 35962, 39477, 43011, 46776]}}, "mouseover": {"edge": {"target": [], "time": []}, "state": {"target": ["31", "31", "32", "33", "29", "27", "28", "10", "8", "8", "10", "11", "9", "5", "6", "7", "16"], "time": [6283, 6486, 9673, 11160, 15136, 18196, 22083, 25492, 25597, 26033, 26112, 28993, 32510, 36127, 39496, 43075, 47043]}}}, "revealed_states": [], "rewards": [2, 2, 3, -15, 73], "rt": [46400, 150, 395, 330, 460], "score": 39.2, "simulationMode": [null, null, null, null, null], "stateRewards": ["", 2, 2, 3, -15, 23, -14, 73, -7, -32, -20, -6, 1, 1, -5, -12, 73, 6, -84, 11, -81, -57, 13, -2, -1, -4, -8, -52, -58, 49, 13, 5, -41, -41], "time_elapsed": 2254934, "trialIndex": 36, "trialTime": 57634, "trial_id": "mdp_trial_33", "trial_index": 47, "trial_type": "mouselab-mdp", "withholdReward": false}, "uniqueid": "w85568180:a40278983"}, {"current_trial": 48, "dateTime": 1693485234747, "trialdata": {"actionTimes": [9137, 9942, 10879, 11832, 12953], "actions": ["left", "left", "left", "down", "down"], "block": "test", "clicked_states": ["32"], "costs": -2.15, "displayed_time": "17.24", "internal_node_id": "0.0-6.0-1.0-33.0", "num_clicks_accrued": [0, 0, 0, 0, 0, 0, 0, 0, 0, 0, 0, 0, 0], "path": ["0", "0", "23", "24", "25", "30", "32"], "queries": {"click": {"edge": {"target": [], "time": []}, "state": {"target": ["32"], "time": [4611]}}, "mouseout": {"edge": {"target": [], "time": []}, "state": {"target": ["23", "31", "32", "33"], "time": [4018, 4092, 5165, 6134]}}, "mouseover": {"edge": {"target": [], "time": []}, "state": {"target": ["23", "31", "32", "33", "30"], "time": [3985, 4056, 4201, 5497, 8334]}}}, "revealed_states": [], "rewards": [1, 1, -8, 14, 71], "rt": [5902, 228, 362, 382, 537], "score": 76.85, "simulationMode": [null, null, null, null, null], "stateRewards": ["", -2, 2, 2, -6, 9, 37, 50, -13, -7, -18, -75, -2, -4, 4, 7, 23, -57, -66, -7, -81, -48, -76, 1, 1, -8, 1, 51, -2, 70, 14, 59, 71, -37], "time_elapsed": 2277291, "trialIndex": 37, "trialTime": 20731, "trial_id": "mdp_trial_34", "trial_index": 48, "trial_type": "mouselab-mdp", "withholdReward": false}, "uniqueid": "w85568180:a40278983"}, {"current_trial": 49, "dateTime": 1693485259572, "trialdata": {"actionTimes": [15246, 16098, 17200, 18283, 19414], "actions": ["left", "left", "left", "down", "right"], "block": "test", "clicked_states": ["32", "31"], "costs": -4.3, "displayed_time": "19.96", "internal_node_id": "0.0-6.0-1.0-34.0", "num_clicks_accrued": [0, 0, 0, 0, 0, 0, 0, 0, 0, 0, 0, 0, 0], "path": ["0", "0", "23", "24", "25", "30", "31"], "queries": {"click": {"edge": {"target": [], "time": []}, "state": {"target": ["32", "31"], "time": [6636, 10845]}}, "mouseout": {"edge": {"target": [], "time": []}, "state": {"target": ["30", "23", "0", "31", "32", "31", "33"], "time": [3477, 3643, 5913, 6016, 6872, 11393, 21513]}}, "mouseover": {"edge": {"target": [], "time": []}, "state": {"target": ["31", "32", "31", "33"], "time": [5979, 6295, 10362, 11507]}}}, "revealed_states": [], "rewards": [1, -2, 6, 7, 75], "rt": [10096, 334, 513, 523, 570], "score": 82.7, "simulationMode": [null, null, null, null, null], "stateRewards": ["", -1, -3, -5, -14, -13, -47, 79, 8, -60, -64, 41, -1, 2, 3, 13, -46, 61, -79, -11, -64, -65, 23, 1, -2, 6, -14, 46, 32, 21, 7, 75, -66, 15], "time_elapsed": 2302116, "trialIndex": 38, "trialTime": 22805, "trial_id": "mdp_trial_35", "trial_index": 49, "trial_type": "mouselab-mdp", "withholdReward": false}, "uniqueid": "w85568180:a40278983"}, {"current_trial": 50, "dateTime": 1693485306096, "trialdata": {"actionTimes": [37933, 38639, 39593, 40694, 41705], "actions": ["right", "right", "right", "down", "down"], "block": "test", "clicked_states": ["20", "22", "21"], "costs": -6.449999999999999, "displayed_time": "42.26", "internal_node_id": "0.0-6.0-1.0-35.0", "num_clicks_accrued": [0, 0, 0, 0, 0, 0, 0, 0, 0, 0, 0, 0, 0], "path": ["0", "0", "12", "13", "14", "19", "21"], "queries": {"click": {"edge": {"target": [], "time": []}, "state": {"target": ["20", "22", "21"], "time": [26362, 30017, 33366]}}, "mouseout": {"edge": {"target": [], "time": []}, "state": {"target": ["33", "30", "31", "0", "20", "20", "19", "22", "21", "17", "14"], "time": [21909, 21975, 22024, 22973, 25926, 26624, 27693, 30689, 33890, 43931, 44515]}}, "mouseover": {"edge": {"target": [], "time": []}, "state": {"target": ["20", "20", "19", "22", "21", "17"], "time": [25746, 25965, 27608, 27739, 30814, 34374]}}}, "revealed_states": [], "rewards": [-2, 4, -8, -12, 63], "rt": [13606, 156, 400, 438, 461], "score": 38.55, "simulationMode": [null, null, null, null, null], "stateRewards": ["", 2, -1, -1, 7, 11, -40, -22, -2, 69, 37, 8, -2, 4, -8, -12, -2, -72, -3, -12, 17, 63, 12, 1, 3, -7, 6, 25, 61, 61, -9, 28, -17, 27], "time_elapsed": 2348640, "trialIndex": 39, "trialTime": 44949, "trial_id": "mdp_trial_36", "trial_index": 50, "trial_type": "mouselab-mdp", "withholdReward": false}, "uniqueid": "w85568180:a40278983"}, {"current_trial": 51, "dateTime": 1693485349701, "trialdata": {"actionTimes": [35514, 36250, 37274, 38392, 39393], "actions": ["right", "right", "right", "down", "down"], "block": "test", "clicked_states": ["32", "33", "31", "22", "21"], "costs": -10.75, "displayed_time": "39.98", "internal_node_id": "0.0-6.0-1.0-36.0", "num_clicks_accrued": [0, 0, 0, 0, 0, 0, 0, 0, 0, 0, 0, 0, 0], "path": ["0", "0", "12", "13", "14", "19", "21"], "queries": {"click": {"edge": {"target": [], "time": []}, "state": {"target": ["32", "33", "31", "22", "21"], "time": [14203, 17834, 21491, 24965, 28603]}}, "mouseout": {"edge": {"target": [], "time": []}, "state": {"target": ["0", "31", "32", "33", "30", "31", "22", "21"], "time": [13559, 13640, 14440, 18520, 18636, 22109, 25421, 29075]}}, "mouseover": {"edge": {"target": [], "time": []}, "state": {"target": ["31", "32", "33", "30", "31", "22", "21", "20"], "time": [13606, 13855, 15815, 18536, 18824, 22140, 25491, 29170]}}}, "revealed_states": [], "rewards": [-2, -1, 2, -14, 67], "rt": [22739, 166, 453, 503, 459], "score": 41.25, "simulationMode": [null, null, null, null, null], "stateRewards": ["", -2, 2, 8, -6, -25, 3, 87, 2, -62, -2, 74, -2, -1, 2, -1, 79, 49, -37, -14, 5, 67, -9, -1, 2, -2, 5, 15, 38, 32, -14, -38, -38, 30], "time_elapsed": 2392245, "trialIndex": 40, "trialTime": 41887, "trial_id": "mdp_trial_37", "trial_index": 51, "trial_type": "mouselab-mdp", "withholdReward": false}, "uniqueid": "w85568180:a40278983"}, {"current_trial": 52, "dateTime": 1693485378862, "trialdata": {"actionTimes": [19214, 20276, 21220, 22263, 23416], "actions": ["left", "left", "left", "down", "right"], "block": "test", "clicked_states": ["32", "33", "31", "27"], "costs": -8.6, "displayed_time": "24.03", "internal_node_id": "0.0-6.0-1.0-37.0", "num_clicks_accrued": [0, 0, 0, 0, 0, 0, 0, 0, 0, 0, 0, 0, 0], "path": ["0", "0", "23", "24", "25", "30", "31"], "queries": {"click": {"edge": {"target": [], "time": []}, "state": {"target": ["32", "33", "31", "27"], "time": [4824, 8581, 12169, 15645]}}, "mouseout": {"edge": {"target": [], "time": []}, "state": {"target": ["14", "13", "12", "31", "32", "33", "33", "30", "31", "26", "27"], "time": [979, 1019, 1246, 3910, 5363, 6313, 9420, 9542, 12680, 12819, 13006]}}, "mouseover": {"edge": {"target": [], "time": []}, "state": {"target": ["31", "32", "33", "33", "30", "31", "26", "27", "27"], "time": [3867, 4180, 5547, 8231, 9439, 9939, 12754, 12835, 13179]}}}, "revealed_states": [], "rewards": [-1, 4, -5, -5, 83], "rt": [16493, 513, 372, 499, 602], "score": 67.4, "simulationMode": [null, null, null, null, null], "stateRewards": ["", -1, 2, -7, -12, -62, 12, -13, 5, 77, -71, 83, 1, -4, 7, 15, -42, -87, -4, 5, -25, 44, 88, -1, 4, -5, -8, 14, 51, 8, -5, 83, -24, -19], "time_elapsed": 2421405, "trialIndex": 41, "trialTime": 27193, "trial_id": "mdp_trial_38", "trial_index": 52, "trial_type": "mouselab-mdp", "withholdReward": false}, "uniqueid": "w85568180:a40278983"}, {"current_trial": 53, "dateTime": 1693485420214, "trialdata": {"actionTimes": [32842, 33584, 34533, 35885, 36789], "actions": ["right", "right", "right", "up", "left"], "block": "test", "clicked_states": ["20", "22", "21", "17", "16", "18"], "costs": -12.9, "displayed_time": "37.35", "internal_node_id": "0.0-6.0-1.0-38.0", "num_clicks_accrued": [0, 0, 0, 0, 0, 0, 0, 0, 0, 0, 0, 0, 0], "path": ["0", "0", "12", "13", "14", "15", "18"], "queries": {"click": {"edge": {"target": [], "time": []}, "state": {"target": ["20", "22", "21", "17", "16", "18"], "time": [8753, 13159, 16790, 21071, 24615, 28177]}}, "mouseout": {"edge": {"target": [], "time": []}, "state": {"target": ["23", "0", "12", "13", "20", "20", "22", "21", "14", "17", "17", "16", "18"], "time": [5605, 7858, 7936, 7982, 8107, 9819, 13836, 20342, 20417, 20524, 21654, 25101, 28726]}}, "mouseover": {"edge": {"target": [], "time": []}, "state": {"target": ["12", "13", "20", "20", "22", "21", "14", "17", "17", "16", "18", "33"], "time": [7895, 7947, 8073, 8407, 12807, 13900, 20380, 20453, 20723, 21670, 25280, 28873]}}}, "revealed_states": [], "rewards": [-1, 1, 2, 4, 73], "rt": [25509, 203, 414, 784, 336], "score": 66.1, "simulationMode": [null, null, null, null, null], "stateRewards": ["", -1, -2, 4, 9, 10, -75, 39, 16, -43, 88, -19, -1, 1, 2, 4, -31, 10, 73, 12, 41, -64, -81, -2, 2, -6, 1, -81, -1, -26, 3, -59, -3, -20], "time_elapsed": 2462758, "trialIndex": 42, "trialTime": 39577, "trial_id": "mdp_trial_39", "trial_index": 53, "trial_type": "mouselab-mdp", "withholdReward": false}, "uniqueid": "w85568180:a40278983"}, {"current_trial": 54, "dateTime": 1693485460657, "trialdata": {"actionTimes": [30838, 31603, 32509, 33538, 34456], "actions": ["up", "up", "up", "right", "right"], "block": "test", "clicked_states": ["32", "33", "31", "9", "5", "6", "7"], "costs": -15.05, "displayed_time": "35.00", "internal_node_id": "0.0-6.0-1.0-39.0", "num_clicks_accrued": [0, 0, 0, 0, 0, 0, 0, 0, 0, 0, 0, 0, 0], "path": ["0", "0", "1", "2", "3", "4", "6"], "queries": {"click": {"edge": {"target": [], "time": []}, "state": {"target": ["32", "33", "31", "9", "5", "6", "7"], "time": [5214, 9349, 12872, 16744, 20324, 23920, 27383]}}, "mouseout": {"edge": {"target": [], "time": []}, "state": {"target": ["25", "23", "0", "31", "32", "33", "31", "22", "9", "5", "6"], "time": [871, 1170, 4588, 4671, 5957, 10016, 13368, 15687, 17186, 20852, 24152]}}, "mouseover": {"edge": {"target": [], "time": []}, "state": {"target": ["0", "31", "32", "33", "31", "22", "9", "5", "6", "7"], "time": [4549, 4631, 4871, 8921, 10152, 13821, 16079, 18230, 20968, 24652]}}}, "revealed_states": [], "rewards": [1, -4, 6, -3, 76], "rt": [27298, 219, 376, 471, 357], "score": 60.95, "simulationMode": [null, null, null, null, null], "stateRewards": ["", 1, -4, 6, -3, 40, 76, -51, 5, -24, -63, 44, -2, -2, 8, 1, 76, -85, -58, 10, 59, 20, 11, -2, 3, -3, 3, -82, -10, 54, -7, -57, -6, -32], "time_elapsed": 2503200, "trialIndex": 43, "trialTime": 38740, "trial_id": "mdp_trial_40", "trial_index": 54, "trial_type": "mouselab-mdp", "withholdReward": false}, "uniqueid": "w85568180:a40278983"}, {"current_trial": 55, "dateTime": 1693485525264, "trialdata": {"internal_node_id": "0.0-6.0-2.0", "question_order": [0, 1, 2, 3, 4], "response": {"Q0": "$-2 to $2", "Q1": "$-4 to $4", "Q2": "$-88 to $88", "Q3": "The cost for clicking on nodes varied between nodes.", "Q4": "Very motivated"}, "rt": 64054, "time_elapsed": 2567808, "trial_id": "final_quiz_control", "trial_index": 55, "trial_type": "survey-multi-choice"}, "uniqueid": "w85568180:a40278983"}, {"current_trial": 56, "dateTime": 1693485842925, "trialdata": {"internal_node_id": "0.0-6.0-3.0", "response": {"Q0": "along the game i realized that the pathway nodes or the closest nodes to the center don't really affect the total score as much. so mostly, i was focusing more on the last nodes", "Q1": "yes, instead of clicking on all the nodes to determine my pathway. i focused on revealing less nodes to reduce the cost", "Q2": "it was not difficult to be honest. once you play couple of rounds. you adjust nicely to the game play "}, "rt": 317352, "time_elapsed": 2885469, "trial_id": "self_report_control", "trial_index": 56, "trial_type": "survey-text"}, "uniqueid": "w85568180:a40278983"}, {"current_trial": 57, "dateTime": 1693485895628, "trialdata": {"internal_node_id": "0.0-6.0-4.0", "question_order": [0, 1, 2, 3, 4, 5, 6], "response": {"Q0": "Disagree", "Q1": "Disagree", "Q2": "Agree", "Q3": "Agree", "Q4": "Agree", "Q5": "Agree", "Q6": "Disagree"}, "rt": 52688, "time_elapsed": 2938173, "trial_id": "self_report_2", "trial_index": 57, "trial_type": "survey-multi-choice"}, "uniqueid": "w85568180:a40278983"}, {"current_trial": 58, "dateTime": 1693485929585, "trialdata": {"internal_node_id": "0.0-6.0-5.0", "response": {"age": "26", "colorblind": "0", "effort": "0", "gender": "other"}, "rt": 33916, "time_elapsed": 2972130, "trial_index": 58, "trial_type": "survey-html-form"}, "uniqueid": "w85568180:a40278983"}, {"current_trial": 59, "dateTime": 1693485969689, "trialdata": {"internal_node_id": "0.0-6.0-6.0", "response": {"Q0": "no. the instructions were clear from the start", "Q1": "yes", "Q2": "none"}, "rt": 40073, "time_elapsed": 3012234, "trial_index": 59, "trial_type": "survey-text"}, "uniqueid": "w85568180:a40278983"}, {"current_trial": 60, "dateTime": 1693486004434, "trialdata": {"internal_node_id": "0.0-6.0-7.0", "response": 0, "rt": 34621, "stimulus": "<h1>Completion Code Instructions (1/2)</h1>\n<br><br><br><br>\nYou have reached the end of the experiment! The completion code consists of two parts: (1) a code with 2 characters (2) a code with 6 characters. On this page, you will receive the second part of the code. The first part of the completion code will be on the next page.\n<br><br>\nThe second part of your completion code is: <b>EWEK22</b>\n<br><br>\nPlease note this down. Then, press 'Finish HIT' in order to find the first part of your completion code. Once the data has been saved, you will receive this code either in this window or in the original browser window where you started the experiment.\n", "time_elapsed": 3046978, "trial_index": 60, "trial_type": "html-button-response"}, "uniqueid": "w85568180:a40278983"}, {"current_trial": 61, "dateTime": 1693486005514, "trialdata": {"internal_node_id": "0.0-7.0", "success": true, "time_elapsed": 3048059, "trial_index": 61, "trial_type": "fullscreen"}, "uniqueid": "w85568180:a40278983"}], "questiondata": {"final_score": 2261.45, "params": {"CODE": "C6DMOQA6", "MIN_TIME": 14, "inspectCost": 1, "startTime": "Thu Aug 31 2023 14:48:01 GMT+0200 (South Africa Standard Time)", "bonusRate": 0.002, "variance": "1_2_4_8_44", "branching": "31123"}}, "eventdata": [{"eventtype": "initialized", "interval": 0, "timestamp": 1693482949241, "value": null}, {"eventtype": "window_resize", "interval": 0, "timestamp": 1693482949241, "value": [1032, 608]}, {"eventtype": "window_resize", "interval": 525, "timestamp": 1693482949766, "value": [1032, 608]}, {"eventtype": "window_resize", "interval": 11554, "timestamp": 1693482961320, "value": [1280, 720]}, {"eventtype": "focus", "interval": 454782, "timestamp": 1693483416102, "value": "off"}, {"eventtype": "focus", "interval": 3, "timestamp": 1693483416105, "value": "on"}, {"eventtype": "window_resize", "interval": 293, "timestamp": 1693483416398, "value": [1032, 608]}, {"eventtype": "window_resize", "interval": 2316, "timestamp": 1693483418714, "value": [1280, 720]}, {"eventtype": "window_resize", "interval": 2586637, "timestamp": 1693486005351, "value": [1032, 608]}, {"eventtype": "window_resize", "value": [1032, 608], "timestamp": 1693486081334, "interval": 75983}], "useragent": "Mozilla/5.0 (Windows NT 10.0; Win64; x64) AppleWebKit/537.36 (KHTML, like Gecko) Chrome/116.0.0.0 Safari/537.36", "mode": "live", "id": "w85568180:a40278983", "status": "user data saved", "Beginhit": "2023-08-31 11:55:40.584079", "Beginexp": "2023-08-31 11:56:02.330548", "Endhit": "2023-08-31 12:47:50.628588", "psiturkStatus": 3, "browser": "<redacted>", "platform": "windows", "language": "en-US", "excludeReason": "alreadyparticipated"}