{"condition": 0, "counterbalance": 0, "assignmentId": "a33663319", "workerId": "w54273408", "hitId": "h94199334", "currenttrial": 55, "bonus": 0, "data": [{"uniqueid": "w54273408:a33663319", "current_trial": 0, "dateTime": 1693480824265, "trialdata": {"success": true, "trial_type": "fullscreen", "trial_index": 0, "time_elapsed": 9874, "internal_node_id": "0.0-0.0"}}, {"uniqueid": "w54273408:a33663319", "current_trial": 1, "dateTime": 1693480890347, "trialdata": {"view_history": [{"page_index": 0, "viewing_time": 66074}], "rt": 66076, "trial_id": "exp_instructions_control", "trial_type": "instructions", "trial_index": 1, "time_elapsed": 75956, "internal_node_id": "0.0-1.0"}}, {"uniqueid": "w54273408:a33663319", "current_trial": 2, "dateTime": 1693481202510, "trialdata": {"view_history": [{"page_index": 0, "viewing_time": 126475}, {"page_index": 1, "viewing_time": 82808}, {"page_index": 2, "viewing_time": 37500}, {"page_index": 3, "viewing_time": 65377}], "rt": 312160, "trial_id": "mouselab_instructions_1_control", "trial_type": "instructions", "trial_index": 2, "time_elapsed": 388119, "internal_node_id": "0.0-2.0-1.0"}}, {"uniqueid": "w54273408:a33663319", "current_trial": 3, "dateTime": 1693481329041, "trialdata": {"revealed_states": [], "clicked_states": ["12", "13", "14", "15", "16", "17", "19", "21", "20", "22", "18", "1", "7", "2", "3", "4", "5", "8", "10", "9", "11", "27", "26", "29", "28", "25", "24", "23", "31", "30", "33", "32"], "num_clicks_accrued": [0, 0, 0, 0, 0, 0, 0, 0, 0, 0, 0, 0, 0], "stateRewards": ["", -10, -10, -10, 10, -10, 10, -10, 10, 10, -10, -10, 10, -10, -10, -10, -10, -10, 10, 10, -10, 10, -10, -10, 10, -10, -10, -10, -10, 10, -10, -10, 10, 10], "withholdReward": false, "trial_id": "practice_1", "block": "test", "trialIndex": 0, "score": -2.5, "costs": -16, "simulationMode": [null, null, null, null, null], "rewards": [10, -10, -10, 10, 10], "path": ["0", "0", "12", "13", "14", "19", "21"], "rt": [95931, 930, 12185, 1240, 1619], "actions": ["right", "right", "right", "down", "down"], "actionTimes": [99587, 101020, 113706, 115447, 117555], "queries": {"click": {"state": {"target": ["12", "13", "14", "15", "16", "17", "19", "21", "20", "22", "18", "1", "7", "2", "3", "4", "5", "8", "10", "9", "11", "27", "26", "29", "28", "25", "24", "23", "31", "30", "33", "32"], "time": [6468, 10490, 12958, 15579, 17570, 24656, 26766, 28892, 32654, 34971, 37315, 41249, 43123, 44524, 45814, 46882, 50039, 51360, 53633, 56199, 58233, 60601, 61863, 64211, 65870, 67241, 68485, 70079, 72647, 74434, 75621, 77178]}, "edge": {"target": [], "time": []}}, "mouseover": {"state": {"target": ["12", "13", "14", "15", "16", "15", "14", "19", "14", "15", "15", "14", "15", "17", "19", "21", "20", "19", "22", "13", "18", "12", "0", "1", "7", "2", "3", "4", "6", "5", "8", "11", "10", "8", "9", "11", "27", "26", "28", "29", "28", "28", "25", "24", "23", "31", "31", "25", "30", "33", "32", "12", "13", "14"], "time": [5307, 9191, 12257, 14491, 17075, 20040, 20173, 20441, 20790, 20906, 21623, 21957, 22390, 23923, 26123, 28390, 30672, 34289, 34473, 36324, 36905, 39622, 39838, 40806, 42756, 44090, 45421, 46638, 47454, 49354, 50923, 51956, 52954, 55371, 55704, 57356, 60220, 61589, 62470, 63770, 64837, 65454, 66688, 68104, 69072, 71236, 72236, 73438, 74069, 75053, 76470, 81570, 81589, 82046]}, "edge": {"target": [], "time": []}}, "mouseout": {"state": {"target": ["12", "2", "2", "1", "12", "13", "14", "15", "16", "15", "14", "19", "14", "15", "16", "16", "15", "14", "15", "17", "19", "21", "20", "19", "22", "13", "18", "12", "0", "1", "7", "2", "3", "4", "6", "5", "8", "11", "10", "8", "9", "11", "11", "27", "26", "28", "29", "26", "28", "28", "25", "24", "23", "31", "31", "25", "30", "33", "32", "12", "13", "14"], "time": [null, null, 424, 590, 8892, 12125, 14357, 15798, 19957, 20090, 20273, 20707, 20823, 20923, 21024, 21540, 21774, 22356, 23806, 25890, 28239, 30324, 34255, 34390, 36075, 36640, 39572, 39638, 40669, 42472, 43956, 45239, 46539, 47421, 48605, 50250, 51888, 52821, 55324, 55421, 57072, 58457, 59987, 61454, 62084, 63403, 64721, 64787, 64855, 66654, 68071, 69020, 71054, 71919, 72859, 73985, 75003, 76255, 81521, 81587, 81602, 82070]}, "edge": {"target": [], "time": []}}}, "displayed_time": "118.05", "trialTime": 125312, "trial_type": "mouselab-mdp", "trial_index": 3, "time_elapsed": 514649, "internal_node_id": "0.0-2.0-2.0-0.0"}}, {"uniqueid": "w54273408:a33663319", "current_trial": 4, "dateTime": 1693481379699, "trialdata": {"revealed_states": [], "clicked_states": ["12", "23"], "num_clicks_accrued": [0, 0, 0, 0, 0, 0, 0, 0, 0, 0, 0, 0, 0], "stateRewards": ["", -10, -10, 10, -10, -10, -10, -10, 10, 10, 10, 10, 10, -10, 10, -10, 10, -10, -10, 10, 10, 10, 10, -10, -10, -10, -10, -10, -10, 10, 10, -10, -10, 10], "withholdReward": false, "trial_id": "practice_2", "block": "test", "trialIndex": 1, "score": 32.5, "costs": -1, "simulationMode": [null, null, null, null, null], "rewards": [10, -10, 10, 10, 10], "path": ["0", "0", "12", "13", "14", "19", "21"], "rt": [7173, 11097, 4893, 1913, 2983], "actions": ["right", "right", "right", "down", "down"], "actionTimes": [13394, 24991, 30385, 32789, 36275], "queries": {"click": {"state": {"target": ["12", "23"], "time": [9560, 11086]}, "edge": {"target": [], "time": []}}, "mouseover": {"state": {"target": ["0", "12", "0", "23"], "time": [8975, 9208, 10494, 10625]}, "edge": {"target": [], "time": []}}, "mouseout": {"state": {"target": ["12", "14", "13", "12", "0", "12", "0", "23", "12", "0", "1", "13", "14"], "time": [2903, 2957, 4340, 4557, 9058, 10491, 10540, 11909, 19043, 20423, 21724, 47529, 47556]}, "edge": {"target": [], "time": []}}}, "displayed_time": "36.77", "trialTime": 50379, "trial_type": "mouselab-mdp", "trial_index": 4, "time_elapsed": 565308, "internal_node_id": "0.0-2.0-2.0-1.0"}}, {"uniqueid": "w54273408:a33663319", "current_trial": 5, "dateTime": 1693481481314, "trialdata": {"view_history": [{"page_index": 0, "viewing_time": 69906}, {"page_index": 1, "viewing_time": 31702}], "rt": 101609, "trial_id": "mouselab_instructions_2_control", "trial_type": "instructions", "trial_index": 5, "time_elapsed": 666923, "internal_node_id": "0.0-2.0-3.0"}}, {"uniqueid": "w54273408:a33663319", "current_trial": 6, "dateTime": 1693481542704, "trialdata": {"rt": 61381, "response": {"Q0": "The cost for clicking on nodes may vary between nodes.", "Q1": "The better I perform the higher my bonus will be.", "Q2": "No, the amount of cash at each node of the web may be different each time.", "Q3": "To get the highest total score.", "Q4": "Only before moving the spider.", "Q5": "3 seconds"}, "question_order": [0, 1, 2, 3, 4, 5], "correct": {"Q0": "The cost for clicking on nodes may vary between nodes.", "Q1": "The better I perform the higher my bonus will be.", "Q2": "No, the amount of cash at each node of the web may be different each time.", "Q3": "To get the highest total score.", "Q4": "Only before moving the spider.", "Q5": "3 seconds"}, "trial_id": "mouselab_quiz_control", "trial_type": "survey-multi-choice", "trial_index": 6, "time_elapsed": 728313, "internal_node_id": "0.0-2.0-4.0"}}, {"uniqueid": "w54273408:a33663319", "current_trial": 7, "dateTime": 1693481565519, "trialdata": {"rt": 22805, "response": {"Q0": "No"}, "question_order": [0], "trial_id": "repeat_check", "trial_type": "survey-multi-choice", "trial_index": 7, "time_elapsed": 751127, "internal_node_id": "0.0-4.0-0.0"}}, {"uniqueid": "w54273408:a33663319", "current_trial": 8, "dateTime": 1693481594254, "trialdata": {"rt": 28725, "stimulus": "\n<h1> Get ready to start the game! </h1>\n\nThank you for reading the instructions. Get ready start with the 40 rounds of this game.\n<br><br>\nIf you need to take a break, feel free to take one after the end of a round, before continuing to the next one.\n<br><br>\nRemember, the more money the spider gets, the bigger your bonus will be!\n<br><br>\n<div style='text-align: center;'>Press <code>space</code> to begin.</div>\n\n<br><br>\n(If, at any point, the <code>space</code> key does not take you to the next page, click once on the text and try again.)", "response": " ", "trial_id": "mdp_ready", "trial_type": "html-keyboard-response", "trial_index": 8, "time_elapsed": 779863, "internal_node_id": "0.0-6.0-0.0"}}, {"uniqueid": "w54273408:a33663319", "current_trial": 9, "dateTime": 1693481625497, "trialdata": {"revealed_states": [], "clicked_states": ["12", "13"], "num_clicks_accrued": [0, 0, 0, 0, 0, 0, 0, 0, 0, 0, 0, 0, 0], "stateRewards": ["", 2, 3, -2, -8, -8, -41, 74, 15, -23, -80, 1, 1, 3, 3, -15, -63, -78, 67, 13, 75, -41, 86, 2, -2, 6, -3, -8, -49, 50, -6, 83, 74, 80], "withholdReward": false, "trial_id": "mdp_trial_1", "block": "test", "trialIndex": 2, "score": -23.8, "costs": -2.8, "simulationMode": [null, null, null, null, null], "rewards": [1, 3, 3, 13, -41], "path": ["0", "0", "12", "13", "14", "19", "21"], "rt": [5251, 546, 5737, 5076, 1415], "actions": ["right", "right", "right", "down", "down"], "actionTimes": [9848, 10887, 17126, 22699, 24604], "queries": {"click": {"state": {"target": ["12", "13"], "time": [6663, 8266]}, "edge": {"target": [], "time": []}}, "mouseover": {"state": {"target": ["12", "13"], "time": [6055, 7871]}, "edge": {"target": [], "time": []}}, "mouseout": {"state": {"target": ["7", "16", "18", "23", "0", "12", "13", "14", "14", "15", "17"], "time": [2620, 2938, 2987, 3904, 5993, 7839, 14759, 14786, 18855, 28403, 28453]}, "edge": {"target": [], "time": []}}}, "displayed_time": "25.10", "trialTime": 30973, "trial_type": "mouselab-mdp", "trial_index": 9, "time_elapsed": 811106, "internal_node_id": "0.0-6.0-1.0-0.0"}}, {"uniqueid": "w54273408:a33663319", "current_trial": 10, "dateTime": 1693481659232, "trialdata": {"revealed_states": [], "clicked_states": ["23", "1", "12"], "num_clicks_accrued": [0, 0, 0, 0, 0, 0, 0, 0, 0, 0, 0, 0, 0], "stateRewards": ["", 1, 4, 5, -5, 58, -80, 75, 6, 25, -39, 46, 2, -2, 4, 2, 59, 31, -22, -12, -61, 15, 72, 1, -2, -7, 8, 77, 76, -23, -7, 71, -15, -3], "withholdReward": false, "trial_id": "mdp_trial_2", "block": "test", "trialIndex": 3, "score": 60.8, "costs": -4.199999999999999, "simulationMode": [null, null, null, null, null], "rewards": [2, -2, 4, 2, 59], "path": ["0", "0", "12", "13", "14", "15", "16"], "rt": [9968, 5392, 938, 2670, 867], "actions": ["right", "right", "right", "up", "up"], "actionTimes": [16305, 22217, 23646, 26811, 28175], "queries": {"click": {"state": {"target": ["23", "1", "12"], "time": [7968, 10830, 13293]}, "edge": {"target": [], "time": []}}, "mouseover": {"state": {"target": ["23", "1", "12"], "time": [7573, 8807, 11808]}, "edge": {"target": [], "time": []}}, "mouseout": {"state": {"target": ["1", "23", "1", "12", "13", "1", "2", "7", "16"], "time": [5740, 8673, 11673, 17895, 20389, 20439, 30388, 30405, 30438]}, "edge": {"target": [], "time": []}}}, "displayed_time": "28.67", "trialTime": 33462, "trial_type": "mouselab-mdp", "trial_index": 10, "time_elapsed": 844840, "internal_node_id": "0.0-6.0-1.0-1.0"}}, {"uniqueid": "w54273408:a33663319", "current_trial": 11, "dateTime": 1693481687104, "trialdata": {"revealed_states": [], "clicked_states": ["23", "24", "25", "26", "1"], "num_clicks_accrued": [0, 0, 0, 0, 0, 0, 0, 0, 0, 0, 0, 0, 0], "stateRewards": ["", -1, 2, -2, 13, -56, -28, 10, 14, 53, -80, -29, 1, -3, -3, -14, 14, 9, -40, -9, 18, 18, 48, 1, 1, 1, -9, 64, -39, -9, 7, -52, -78, 7], "withholdReward": false, "trial_id": "mdp_trial_3", "block": "test", "trialIndex": 4, "score": -75, "costs": -7, "simulationMode": [null, null, null, null, null], "rewards": [1, 1, 1, 7, -78], "path": ["0", "0", "23", "24", "25", "30", "32"], "rt": [16259, 381, 585, 868, 1166], "actions": ["left", "left", "left", "down", "down"], "actionTimes": [19654, 20537, 21624, 22991, 24655], "queries": {"click": {"state": {"target": ["23", "24", "25", "26", "1"], "time": [5508, 8651, 11267, 12829, 16977]}, "edge": {"target": [], "time": []}}, "mouseover": {"state": {"target": ["23", "28", "24", "25", "26", "27", "1", "2"], "time": [5121, 6388, 8272, 9489, 12375, 14838, 16589, 17906]}, "edge": {"target": [], "time": []}}, "mouseout": {"state": {"target": ["25", "24", "0", "23", "28", "24", "25", "26", "27", "1", "2"], "time": [1122, 1155, 4939, 6173, 8173, 9407, 12189, 14506, 16099, 17738, 27057]}, "edge": {"target": [], "time": []}}}, "displayed_time": "25.16", "trialTime": 27567, "trial_type": "mouselab-mdp", "trial_index": 11, "time_elapsed": 872712, "internal_node_id": "0.0-6.0-1.0-2.0"}}, {"uniqueid": "w54273408:a33663319", "current_trial": 12, "dateTime": 1693481734932, "trialdata": {"revealed_states": [], "clicked_states": [], "num_clicks_accrued": [0, 0, 0, 0, 0, 0, 0, 0, 0, 0, 0, 0, 0], "stateRewards": ["", -1, 2, -6, 6, 43, 78, 78, -2, 55, -29, -17, -2, -4, 1, -15, 13, 7, -79, 8, -28, -68, 36, -1, -3, 3, -16, 84, -18, 87, 10, 32, 13, -81], "withholdReward": false, "trial_id": "mdp_trial_4", "block": "test", "trialIndex": 5, "score": -65, "costs": 0, "simulationMode": [null, null, null, null, null], "rewards": [-2, -4, 1, 8, -68], "path": ["0", "0", "12", "13", "14", "19", "21"], "rt": [3296, 762, 1135, 621, 3363], "actions": ["right", "right", "right", "down", "down"], "actionTimes": [8047, 9305, 10944, 12066, 15924], "queries": {"click": {"state": {"target": [], "time": []}, "edge": {"target": [], "time": []}}, "mouseover": {"state": {"target": [], "time": []}, "edge": {"target": [], "time": []}}, "mouseout": {"state": {"target": ["2", "1", "0", "12", "13", "19", "20", "19"], "time": [4059, 4108, 13441, 15026, 15092, 17408, 18341, 23794]}, "edge": {"target": [], "time": []}}}, "displayed_time": "18.75", "trialTime": 47517, "trial_type": "mouselab-mdp", "trial_index": 12, "time_elapsed": 920540, "internal_node_id": "0.0-6.0-1.0-3.0"}}, {"uniqueid": "w54273408:a33663319", "current_trial": 13, "dateTime": 1693481777974, "trialdata": {"revealed_states": [], "clicked_states": [], "num_clicks_accrued": [0, 0, 0, 0, 0, 0, 0, 0, 0, 0, 0, 0, 0], "stateRewards": ["", 2, 3, 6, -5, -74, -53, 17, -12, 46, 44, 18, -2, 4, 1, -8, 22, -23, -49, 9, -45, 55, 81, 1, -1, -7, -16, -83, -71, -45, 2, 51, 82, 61], "withholdReward": false, "trial_id": "mdp_trial_5", "block": "test", "trialIndex": 6, "score": 23, "costs": 0, "simulationMode": [null, null, null, null, null], "rewards": [2, 3, 6, -5, 17], "path": ["0", "0", "1", "2", "3", "4", "7"], "rt": [10418, 3647, 2706, 1989, 1270], "actions": ["up", "up", "up", "right", "down"], "actionTimes": [15563, 19701, 22909, 25393, 27156], "queries": {"click": {"state": {"target": [], "time": []}, "edge": {"target": [], "time": []}}, "mouseover": {"state": {"target": ["12", "1"], "time": [6803, 7785]}, "edge": {"target": [], "time": []}}, "mouseout": {"state": {"target": ["0", "12", "1"], "time": [4734, 7635, 14518]}, "edge": {"target": [], "time": []}}}, "displayed_time": "27.65", "trialTime": 42705, "trial_type": "mouselab-mdp", "trial_index": 13, "time_elapsed": 963582, "internal_node_id": "0.0-6.0-1.0-4.0"}}, {"uniqueid": "w54273408:a33663319", "current_trial": 14, "dateTime": 1693481811640, "trialdata": {"revealed_states": [], "clicked_states": ["1", "12", "23"], "num_clicks_accrued": [0, 0, 0, 0, 0, 0, 0, 0, 0, 0, 0, 0, 0], "stateRewards": ["", -1, -2, -8, 8, -27, -82, 19, -14, -62, 4, 1, -2, 2, 6, 10, 73, -51, -2, 2, 73, -48, 54, -1, 2, -4, 11, -25, 47, 86, 15, 33, 43, -42], "withholdReward": false, "trial_id": "mdp_trial_6", "block": "test", "trialIndex": 7, "score": -91.2, "costs": -4.199999999999999, "simulationMode": [null, null, null, null, null], "rewards": [-1, -2, -8, -14, -62], "path": ["0", "0", "1", "2", "3", "8", "9"], "rt": [14857, 496, 1803, 1045, 1799], "actions": ["up", "up", "up", "left", "up"], "actionTimes": [19555, 20548, 22854, 24396, 26699], "queries": {"click": {"state": {"target": ["1", "12", "23"], "time": [5986, 7815, 9921]}, "edge": {"target": [], "time": []}}, "mouseover": {"state": {"target": ["1", "12", "0", "23", "12", "1"], "time": [5449, 6833, 9033, 9366, 13416, 17332]}, "edge": {"target": [], "time": []}}, "mouseout": {"state": {"target": ["0", "1", "12", "0", "23", "12"], "time": [4489, 6716, 8038, 9068, 12733, 13449]}, "edge": {"target": [], "time": []}}}, "displayed_time": "27.20", "trialTime": 33321, "trial_type": "mouselab-mdp", "trial_index": 14, "time_elapsed": 997248, "internal_node_id": "0.0-6.0-1.0-5.0"}}, {"uniqueid": "w54273408:a33663319", "current_trial": 15, "dateTime": 1693481835338, "trialdata": {"revealed_states": [], "clicked_states": [], "num_clicks_accrued": [0, 0, 0, 0, 0, 0, 0, 0, 0, 0, 0, 0, 0], "stateRewards": ["", 2, 1, -3, 7, 46, 11, -36, 16, 71, 5, 1, 2, -2, -8, -3, -4, 6, 55, 7, 68, -54, 2, 1, 1, 6, -6, 42, -4, -84, -11, -65, 63, 25], "withholdReward": false, "trial_id": "mdp_trial_7", "block": "test", "trialIndex": 8, "score": 44, "costs": 0, "simulationMode": [null, null, null, null, null], "rewards": [1, 1, 6, -6, 42], "path": ["0", "0", "23", "24", "25", "26", "27"], "rt": [9907, 558, 2767, 2289, 677], "actions": ["left", "left", "left", "up", "up"], "actionTimes": [12192, 13241, 16500, 19288, 20458], "queries": {"click": {"state": {"target": [], "time": []}, "edge": {"target": [], "time": []}}, "mouseover": {"state": {"target": ["23", "12"], "time": [7996, 10914]}, "edge": {"target": [], "time": []}}, "mouseout": {"state": {"target": ["1", "23"], "time": [1580, 9913]}, "edge": {"target": [], "time": []}}}, "displayed_time": "20.95", "trialTime": 23335, "trial_type": "mouselab-mdp", "trial_index": 15, "time_elapsed": 1020946, "internal_node_id": "0.0-6.0-1.0-6.0"}}, {"uniqueid": "w54273408:a33663319", "current_trial": 16, "dateTime": 1693481879823, "trialdata": {"revealed_states": [], "clicked_states": ["13", "12"], "num_clicks_accrued": [0, 0, 0, 0, 0, 0, 0, 0, 0, 0, 0, 0, 0], "stateRewards": ["", -1, 3, -7, 16, -32, -74, -48, 2, 10, 15, -30, 1, 1, -2, 10, 12, -83, 67, 13, -66, 47, 65, -2, 4, 2, -14, -8, -57, 24, 9, 65, 12, 46], "withholdReward": false, "trial_id": "mdp_trial_8", "block": "test", "trialIndex": 9, "score": 57.2, "costs": -2.8, "simulationMode": [null, null, null, null, null], "rewards": [1, 1, -2, 13, 47], "path": ["0", "0", "12", "13", "14", "19", "21"], "rt": [6502, 1395, 601, 1499, 507], "actions": ["right", "right", "right", "down", "down"], "actionTimes": [11026, 12918, 14024, 16021, 17029], "queries": {"click": {"state": {"target": ["13", "12"], "time": [6660, 8513]}, "edge": {"target": [], "time": []}}, "mouseover": {"state": {"target": ["12", "13", "12"], "time": [5954, 6038, 7287]}, "edge": {"target": [], "time": []}}, "mouseout": {"state": {"target": ["12", "0", "12", "13", "12"], "time": [3487, 5937, 6004, 7204, 43702]}, "edge": {"target": [], "time": []}}}, "displayed_time": "18.52", "trialTime": 44145, "trial_type": "mouselab-mdp", "trial_index": 16, "time_elapsed": 1065432, "internal_node_id": "0.0-6.0-1.0-7.0"}}, {"uniqueid": "w54273408:a33663319", "current_trial": 17, "dateTime": 1693481906401, "trialdata": {"revealed_states": [], "clicked_states": ["12", "1", "23"], "num_clicks_accrued": [0, 0, 0, 0, 0, 0, 0, 0, 0, 0, 0, 0, 0], "stateRewards": ["", 2, 3, -6, -5, -3, 55, 40, 11, 61, 11, 51, 2, -4, -6, 9, -25, 29, -15, -6, 7, -77, -2, -2, -4, 1, 14, -43, -1, 56, -12, -54, 41, -74], "withholdReward": false, "trial_id": "mdp_trial_9", "block": "test", "trialIndex": 10, "score": 56.8, "costs": -4.199999999999999, "simulationMode": [null, null, null, null, null], "rewards": [2, 3, -6, 11, 51], "path": ["0", "0", "1", "2", "3", "8", "11"], "rt": [11946, 1834, 3394, 995, 238], "actions": ["up", "up", "up", "left", "left"], "actionTimes": [15459, 17788, 21681, 23165, 23908], "queries": {"click": {"state": {"target": ["12", "1", "23"], "time": [5090, 8004, 10188]}, "edge": {"target": [], "time": []}}, "mouseover": {"state": {"target": ["12", "13", "1", "23", "1"], "time": [4752, 6086, 7636, 9669, 14018]}, "edge": {"target": [], "time": []}}, "mouseout": {"state": {"target": ["0", "12", "13", "1", "23", "1"], "time": [4704, 5935, 7204, 9053, 12919, 14352]}, "edge": {"target": [], "time": []}}}, "displayed_time": "24.42", "trialTime": 26191, "trial_type": "mouselab-mdp", "trial_index": 17, "time_elapsed": 1092009, "internal_node_id": "0.0-6.0-1.0-8.0"}}, {"uniqueid": "w54273408:a33663319", "current_trial": 18, "dateTime": 1693481931622, "trialdata": {"revealed_states": [], "clicked_states": ["12", "23", "1"], "num_clicks_accrued": [0, 0, 0, 0, 0, 0, 0, 0, 0, 0, 0, 0, 0], "stateRewards": ["", -2, 1, -8, 12, -65, -79, 16, 7, -80, -17, -45, -2, 2, -5, -2, -85, 23, -4, -7, 48, 27, -76, 2, 3, 5, 2, 43, 71, -13, 7, -49, 59, -31], "withholdReward": false, "trial_id": "mdp_trial_10", "block": "test", "trialIndex": 11, "score": -18.2, "costs": -4.199999999999999, "simulationMode": [null, null, null, null, null], "rewards": [2, 3, 5, 7, -31], "path": ["0", "0", "23", "24", "25", "30", "33"], "rt": [8988, 1161, 1310, 1364, 1856], "actions": ["left", "left", "left", "down", "left"], "actionTimes": [12401, 14077, 15891, 17744, 20103], "queries": {"click": {"state": {"target": ["12", "23", "1"], "time": [5236, 6885, 8701]}, "edge": {"target": [], "time": []}}, "mouseover": {"state": {"target": ["12", "13", "0", "23", "1"], "time": [4896, 5929, 6164, 6229, 7713]}, "edge": {"target": [], "time": []}}, "mouseout": {"state": {"target": ["12", "13", "12", "0", "23", "1"], "time": [5813, 6096, 6130, 6196, 7102, 9463]}, "edge": {"target": [], "time": []}}}, "displayed_time": "20.60", "trialTime": 24858, "trial_type": "mouselab-mdp", "trial_index": 18, "time_elapsed": 1117230, "internal_node_id": "0.0-6.0-1.0-9.0"}}, {"uniqueid": "w54273408:a33663319", "current_trial": 19, "dateTime": 1693481952772, "trialdata": {"revealed_states": [], "clicked_states": [], "num_clicks_accrued": [0, 0, 0, 0, 0, 0, 0, 0, 0, 0, 0, 0, 0], "stateRewards": ["", 1, 2, -3, -5, 66, -50, -47, -5, 1, 28, -27, 1, 1, -1, -6, 37, -25, 56, 1, -82, -66, -40, -1, -4, -7, 15, -61, -23, 26, 10, 14, -56, 29], "withholdReward": false, "trial_id": "mdp_trial_11", "block": "test", "trialIndex": 12, "score": 61, "costs": 0, "simulationMode": [null, null, null, null, null], "rewards": [1, 2, -3, -5, 66], "path": ["0", "0", "1", "2", "3", "4", "5"], "rt": [5094, 2173, 566, 886, 517], "actions": ["up", "up", "up", "right", "up"], "actionTimes": [10325, 12994, 14053, 15438, 16453], "queries": {"click": {"state": {"target": [], "time": []}, "edge": {"target": [], "time": []}}, "mouseover": {"state": {"target": ["1", "0"], "time": [8001, 9751]}, "edge": {"target": [], "time": []}}, "mouseout": {"state": {"target": ["23", "1"], "time": [4585, 9668]}, "edge": {"target": [], "time": []}}}, "displayed_time": "19.23", "trialTime": 20797, "trial_type": "mouselab-mdp", "trial_index": 19, "time_elapsed": 1138380, "internal_node_id": "0.0-6.0-1.0-10.0"}}, {"uniqueid": "w54273408:a33663319", "current_trial": 20, "dateTime": 1693481976605, "trialdata": {"revealed_states": [], "clicked_states": [], "num_clicks_accrued": [0, 0, 0, 0, 0, 0, 0, 0, 0, 0, 0, 0, 0], "stateRewards": ["", 2, -3, -8, 14, -7, -51, 73, 2, 36, 36, -43, -1, 3, -4, 1, 6, 87, -65, 15, 61, -42, -83, -1, 3, -2, -7, 30, -48, 35, 13, 26, 60, 78], "withholdReward": false, "trial_id": "mdp_trial_12", "block": "test", "trialIndex": 13, "score": -70, "costs": 0, "simulationMode": [null, null, null, null, null], "rewards": [-1, 3, -4, 15, -83], "path": ["0", "0", "12", "13", "14", "19", "22"], "rt": [5151, 596, 409, 626, 949], "actions": ["right", "right", "right", "down", "left"], "actionTimes": [12709, 13805, 14718, 15852, 17291], "queries": {"click": {"state": {"target": [], "time": []}, "edge": {"target": [], "time": []}}, "mouseover": {"state": {"target": ["12", "13", "12"], "time": [9991, 10274, 10656]}, "edge": {"target": [], "time": []}}, "mouseout": {"state": {"target": ["0", "12", "13", "12"], "time": [9941, 10107, 10574, 11990]}, "edge": {"target": [], "time": []}}}, "displayed_time": "21.56", "trialTime": 23471, "trial_type": "mouselab-mdp", "trial_index": 20, "time_elapsed": 1162213, "internal_node_id": "0.0-6.0-1.0-11.0"}}, {"uniqueid": "w54273408:a33663319", "current_trial": 21, "dateTime": 1693481994724, "trialdata": {"revealed_states": [], "clicked_states": ["23", "12"], "num_clicks_accrued": [0, 0, 0, 0, 0, 0, 0, 0, 0, 0, 0, 0, 0], "stateRewards": ["", -2, 4, 3, 5, -61, 4, 30, 1, -47, 83, 10, 1, 4, 7, -14, 19, -74, -83, 6, -2, -2, -65, -1, -2, 4, -11, 12, -1, -68, 11, -38, -28, 66], "withholdReward": false, "trial_id": "mdp_trial_13", "block": "test", "trialIndex": 14, "score": -87.8, "costs": -2.8, "simulationMode": [null, null, null, null, null], "rewards": [1, 4, 7, -14, -83], "path": ["0", "0", "12", "13", "14", "15", "18"], "rt": [7432, 719, 1452, 1194, 893], "actions": ["right", "right", "right", "up", "left"], "actionTimes": [8933, 10160, 12110, 13800, 15183], "queries": {"click": {"state": {"target": ["23", "12"], "time": [3536, 6214]}, "edge": {"target": [], "time": []}}, "mouseover": {"state": {"target": ["23", "12"], "time": [3090, 4624]}, "edge": {"target": [], "time": []}}, "mouseout": {"state": {"target": ["23", "12", "12"], "time": [4473, 7505, 8422]}, "edge": {"target": [], "time": []}}}, "displayed_time": "15.67", "trialTime": 17724, "trial_type": "mouselab-mdp", "trial_index": 21, "time_elapsed": 1180333, "internal_node_id": "0.0-6.0-1.0-12.0"}}, {"uniqueid": "w54273408:a33663319", "current_trial": 22, "dateTime": 1693482015019, "trialdata": {"revealed_states": [], "clicked_states": [], "num_clicks_accrued": [0, 0, 0, 0, 0, 0, 0, 0, 0, 0, 0, 0, 0], "stateRewards": ["", 1, -4, -6, 11, -20, 8, -30, 1, -38, 88, 42, 2, 3, 5, -12, -8, -74, 30, -8, 67, -19, 42, 2, -1, 4, 13, 50, -68, 2, -8, -15, 87, -46], "withholdReward": false, "trial_id": "mdp_trial_14", "block": "test", "trialIndex": 15, "score": 34, "costs": 0, "simulationMode": [null, null, null, null, null], "rewards": [1, -4, -6, 1, 42], "path": ["0", "0", "1", "2", "3", "8", "11"], "rt": [2667, 783, 400, 917, 204], "actions": ["up", "up", "up", "left", "left"], "actionTimes": [6868, 8148, 9045, 10460, 11164], "queries": {"click": {"state": {"target": [], "time": []}, "edge": {"target": [], "time": []}}, "mouseover": {"state": {"target": ["1"], "time": [5326]}, "edge": {"target": [], "time": []}}, "mouseout": {"state": {"target": [], "time": []}, "edge": {"target": [], "time": []}}}, "displayed_time": "18.20", "trialTime": 19922, "trial_type": "mouselab-mdp", "trial_index": 22, "time_elapsed": 1200627, "internal_node_id": "0.0-6.0-1.0-13.0"}}, {"uniqueid": "w54273408:a33663319", "current_trial": 23, "dateTime": 1693482037537, "trialdata": {"revealed_states": [], "clicked_states": [], "num_clicks_accrued": [0, 0, 0, 0, 0, 0, 0, 0, 0, 0, 0, 0, 0], "stateRewards": ["", -2, 2, 3, -7, 76, 63, 21, 15, 35, -8, -44, 1, 1, -2, -12, 23, 24, 76, -9, 46, 66, -49, -2, -1, 7, 12, 40, -71, -45, -6, 38, -49, 46], "withholdReward": false, "trial_id": "mdp_trial_15", "block": "test", "trialIndex": 16, "score": 36, "costs": 0, "simulationMode": [null, null, null, null, null], "rewards": [-2, -1, 7, -6, 38], "path": ["0", "0", "23", "24", "25", "30", "31"], "rt": [1899, 375, 551, 878, 570], "actions": ["left", "left", "left", "down", "right"], "actionTimes": [7855, 8729, 9787, 11163, 12223], "queries": {"click": {"state": {"target": [], "time": []}, "edge": {"target": [], "time": []}}, "mouseover": {"state": {"target": ["23"], "time": [6817]}, "edge": {"target": [], "time": []}}, "mouseout": {"state": {"target": ["1", "0"], "time": [5271, 6767]}, "edge": {"target": [], "time": []}}}, "displayed_time": "19.96", "trialTime": 22136, "trial_type": "mouselab-mdp", "trial_index": 23, "time_elapsed": 1223146, "internal_node_id": "0.0-6.0-1.0-14.0"}}, {"uniqueid": "w54273408:a33663319", "current_trial": 24, "dateTime": 1693482055757, "trialdata": {"revealed_states": [], "clicked_states": [], "num_clicks_accrued": [0, 0, 0, 0, 0, 0, 0, 0, 0, 0, 0, 0, 0], "stateRewards": ["", 1, -2, -8, -3, 31, -84, -55, -14, 15, -58, 17, -2, -3, 7, 7, -12, 48, 67, 4, -44, -68, 46, 2, 3, -5, -7, 76, 27, 5, 11, 57, 52, 59], "withholdReward": false, "trial_id": "mdp_trial_16", "block": "test", "trialIndex": 17, "score": 52, "costs": 0, "simulationMode": [null, null, null, null, null], "rewards": [-2, -3, 7, 4, 46], "path": ["0", "0", "12", "13", "14", "19", "22"], "rt": [2766, 286, 306, 332, 842], "actions": ["right", "right", "right", "down", "left"], "actionTimes": [5254, 6044, 6848, 7675, 9017], "queries": {"click": {"state": {"target": [], "time": []}, "edge": {"target": [], "time": []}}, "mouseover": {"state": {"target": [], "time": []}, "edge": {"target": [], "time": []}}, "mouseout": {"state": {"target": ["23", "0"], "time": [1740, 2006]}, "edge": {"target": [], "time": []}}}, "displayed_time": "16.49", "trialTime": 17812, "trial_type": "mouselab-mdp", "trial_index": 24, "time_elapsed": 1241365, "internal_node_id": "0.0-6.0-1.0-15.0"}}, {"uniqueid": "w54273408:a33663319", "current_trial": 25, "dateTime": 1693482089093, "trialdata": {"revealed_states": [], "clicked_states": [], "num_clicks_accrued": [0, 0, 0, 0, 0, 0, 0, 0, 0, 0, 0, 0, 0], "stateRewards": ["", -1, -3, -7, -4, -85, -70, 79, 8, 84, -66, 42, 2, -2, -3, -16, -54, -66, 68, -3, 21, -14, 7, -2, -1, -3, -8, 75, 80, 86, -7, -84, 73, -16], "withholdReward": false, "trial_id": "mdp_trial_17", "block": "test", "trialIndex": 18, "score": -69, "costs": 0, "simulationMode": [null, null, null, null, null], "rewards": [-1, -3, -7, 8, -66], "path": ["0", "0", "1", "2", "3", "8", "10"], "rt": [1992, 493, 202, 618, 451], "actions": ["up", "up", "up", "left", "down"], "actionTimes": [17418, 18413, 19105, 20238, 21187], "queries": {"click": {"state": {"target": [], "time": []}, "edge": {"target": [], "time": []}}, "mouseover": {"state": {"target": [], "time": []}, "edge": {"target": [], "time": []}}, "mouseout": {"state": {"target": [], "time": []}, "edge": {"target": [], "time": []}}}, "displayed_time": "29.43", "trialTime": 32927, "trial_type": "mouselab-mdp", "trial_index": 25, "time_elapsed": 1274701, "internal_node_id": "0.0-6.0-1.0-16.0"}}, {"uniqueid": "w54273408:a33663319", "current_trial": 26, "dateTime": 1693482109694, "trialdata": {"revealed_states": [], "clicked_states": [], "num_clicks_accrued": [0, 0, 0, 0, 0, 0, 0, 0, 0, 0, 0, 0, 0], "stateRewards": ["", 1, 1, -7, -9, -44, 24, -83, -15, 44, -24, 72, -2, -3, 4, -5, 57, 55, 29, -11, 22, 12, -25, -1, 2, 7, 12, 33, -8, 47, -4, 8, 50, -4], "withholdReward": false, "trial_id": "mdp_trial_18", "block": "test", "trialIndex": 19, "score": 0, "costs": 0, "simulationMode": [null, null, null, null, null], "rewards": [-2, -3, 4, -11, 12], "path": ["0", "0", "12", "13", "14", "19", "21"], "rt": [3094, 510, 324, 108, 134], "actions": ["right", "right", "right", "down", "down"], "actionTimes": [4758, 5768, 6597, 7201, 7840], "queries": {"click": {"state": {"target": [], "time": []}, "edge": {"target": [], "time": []}}, "mouseover": {"state": {"target": [], "time": []}, "edge": {"target": [], "time": []}}, "mouseout": {"state": {"target": ["0"], "time": [1404]}, "edge": {"target": [], "time": []}}}, "displayed_time": "15.66", "trialTime": 20201, "trial_type": "mouselab-mdp", "trial_index": 26, "time_elapsed": 1295303, "internal_node_id": "0.0-6.0-1.0-17.0"}}, {"uniqueid": "w54273408:a33663319", "current_trial": 27, "dateTime": 1693482133545, "trialdata": {"revealed_states": [], "clicked_states": [], "num_clicks_accrued": [0, 0, 0, 0, 0, 0, 0, 0, 0, 0, 0, 0, 0], "stateRewards": ["", 1, 2, -3, -6, 50, -7, 7, -7, -80, 21, -1, 2, 2, 4, -1, 33, 84, 1, 14, -53, 81, 6, -2, -2, -3, -9, -87, -38, -59, -5, -74, -3, -71], "withholdReward": false, "trial_id": "mdp_trial_19", "block": "test", "trialIndex": 20, "score": -87, "costs": 0, "simulationMode": [null, null, null, null, null], "rewards": [1, 2, -3, -7, -80], "path": ["0", "0", "1", "2", "3", "8", "9"], "rt": [1639, 323, 90, 1000, 1818], "actions": ["up", "up", "up", "left", "up"], "actionTimes": [9620, 10439, 11023, 12516, 14833], "queries": {"click": {"state": {"target": [], "time": []}, "edge": {"target": [], "time": []}}, "mouseover": {"state": {"target": [], "time": []}, "edge": {"target": [], "time": []}}, "mouseout": {"state": {"target": ["0", "0"], "time": [662, 17519]}, "edge": {"target": [], "time": []}}}, "displayed_time": "21.98", "trialTime": 23444, "trial_type": "mouselab-mdp", "trial_index": 27, "time_elapsed": 1319153, "internal_node_id": "0.0-6.0-1.0-18.0"}}, {"uniqueid": "w54273408:a33663319", "current_trial": 28, "dateTime": 1693482152752, "trialdata": {"revealed_states": [], "clicked_states": [], "num_clicks_accrued": [0, 0, 0, 0, 0, 0, 0, 0, 0, 0, 0, 0, 0], "stateRewards": ["", -2, 2, 2, -6, 9, 37, 50, -13, -7, -18, -75, -2, -4, 4, 7, 23, -57, -66, -7, -81, -48, -76, 1, 1, -8, 1, 51, -2, 70, 14, 59, 71, -37], "withholdReward": false, "trial_id": "mdp_trial_20", "block": "test", "trialIndex": 21, "score": 46, "costs": 0, "simulationMode": [null, null, null, null, null], "rewards": [-2, 2, 2, -6, 50], "path": ["0", "0", "1", "2", "3", "4", "7"], "rt": [1780, 640, 958, 703, 827], "actions": ["up", "up", "up", "right", "down"], "actionTimes": [5000, 6160, 7611, 8808, 10131], "queries": {"click": {"state": {"target": [], "time": []}, "edge": {"target": [], "time": []}}, "mouseover": {"state": {"target": [], "time": []}, "edge": {"target": [], "time": []}}, "mouseout": {"state": {"target": ["19", "22", "0", "12"], "time": [1983, 2017, 11735, 11768]}, "edge": {"target": [], "time": []}}}, "displayed_time": "17.22", "trialTime": 18790, "trial_type": "mouselab-mdp", "trial_index": 28, "time_elapsed": 1338360, "internal_node_id": "0.0-6.0-1.0-19.0"}}, {"uniqueid": "w54273408:a33663319", "current_trial": 29, "dateTime": 1693482171104, "trialdata": {"revealed_states": [], "clicked_states": [], "num_clicks_accrued": [0, 0, 0, 0, 0, 0, 0, 0, 0, 0, 0, 0, 0], "stateRewards": ["", -1, -3, 1, 13, -64, -29, 12, -4, -33, 50, 56, 2, -3, 4, 11, -64, -58, -55, 12, 47, 38, -25, -2, 2, 5, -15, 85, 7, 84, 10, 8, 57, 26], "withholdReward": false, "trial_id": "mdp_trial_21", "block": "test", "trialIndex": 22, "score": -44, "costs": 0, "simulationMode": [null, null, null, null, null], "rewards": [2, -3, 4, 11, -58], "path": ["0", "0", "12", "13", "14", "15", "17"], "rt": [1647, 88, 1059, 665, 627], "actions": ["right", "right", "right", "up", "right"], "actionTimes": [4253, 4838, 6399, 7565, 8694], "queries": {"click": {"state": {"target": [], "time": []}, "edge": {"target": [], "time": []}}, "mouseover": {"state": {"target": [], "time": []}, "edge": {"target": [], "time": []}}, "mouseout": {"state": {"target": ["14", "12", "0", "0", "18", "20", "19"], "time": [281, 1864, 2099, 10234, 10297, 12548, 12580]}, "edge": {"target": [], "time": []}}}, "displayed_time": "16.61", "trialTime": 17906, "trial_type": "mouselab-mdp", "trial_index": 29, "time_elapsed": 1356712, "internal_node_id": "0.0-6.0-1.0-20.0"}}, {"uniqueid": "w54273408:a33663319", "current_trial": 30, "dateTime": 1693482190117, "trialdata": {"revealed_states": [], "clicked_states": [], "num_clicks_accrued": [0, 0, 0, 0, 0, 0, 0, 0, 0, 0, 0, 0, 0], "stateRewards": ["", 2, -1, 8, -2, -16, 69, -39, -7, -13, -27, -86, 2, -2, 2, 13, -34, -16, -20, -5, 19, 81, 32, -2, -1, 2, -14, 20, 80, 58, 4, 70, 12, 73], "withholdReward": false, "trial_id": "mdp_trial_22", "block": "test", "trialIndex": 23, "score": 15, "costs": 0, "simulationMode": [null, null, null, null, null], "rewards": [-2, -1, 2, 4, 12], "path": ["0", "0", "23", "24", "25", "30", "32"], "rt": [2947, 328, 363, 906, 747], "actions": ["left", "left", "left", "down", "down"], "actionTimes": [5948, 6782, 7660, 9087, 10328], "queries": {"click": {"state": {"target": [], "time": []}, "edge": {"target": [], "time": []}}, "mouseover": {"state": {"target": ["23"], "time": [5062]}, "edge": {"target": [], "time": []}}, "mouseout": {"state": {"target": ["32", "33", "30", "31", "0"], "time": [379, 1795, 1845, 1912, 4985]}, "edge": {"target": [], "time": []}}}, "displayed_time": "17.00", "trialTime": 18568, "trial_type": "mouselab-mdp", "trial_index": 30, "time_elapsed": 1375725, "internal_node_id": "0.0-6.0-1.0-21.0"}}, {"uniqueid": "w54273408:a33663319", "current_trial": 31, "dateTime": 1693482223019, "trialdata": {"revealed_states": [], "clicked_states": [], "num_clicks_accrued": [0, 0, 0, 0, 0, 0, 0, 0, 0, 0, 0, 0, 0], "stateRewards": ["", -2, -1, 3, -3, 71, -58, -21, 7, -10, -75, -37, 2, 4, -1, -12, -79, -29, -48, 3, -41, -10, -30, -1, -2, 1, -15, 13, 66, 22, -1, -42, -86, -55], "withholdReward": false, "trial_id": "mdp_trial_23", "block": "test", "trialIndex": 24, "score": 49, "costs": 0, "simulationMode": [null, null, null, null, null], "rewards": [-1, -2, 1, -15, 66], "path": ["0", "0", "23", "24", "25", "26", "28"], "rt": [1739, 171, 316, 1130, 857], "actions": ["left", "left", "left", "up", "right"], "actionTimes": [6720, 7387, 8215, 9862, 11222], "queries": {"click": {"state": {"target": [], "time": []}, "edge": {"target": [], "time": []}}, "mouseover": {"state": {"target": [], "time": []}, "edge": {"target": [], "time": []}}, "mouseout": {"state": {"target": ["23", "16", "14"], "time": [4246, 12496, 14263]}, "edge": {"target": [], "time": []}}}, "displayed_time": "18.99", "trialTime": 32456, "trial_type": "mouselab-mdp", "trial_index": 31, "time_elapsed": 1408628, "internal_node_id": "0.0-6.0-1.0-22.0"}}, {"uniqueid": "w54273408:a33663319", "current_trial": 32, "dateTime": 1693482243197, "trialdata": {"revealed_states": [], "clicked_states": [], "num_clicks_accrued": [0, 0, 0, 0, 0, 0, 0, 0, 0, 0, 0, 0, 0], "stateRewards": ["", 1, -3, -1, 9, -34, -40, 22, -7, 45, 53, -11, 2, 4, 5, 15, 21, 37, -49, -3, 80, -28, -34, 1, -3, 1, 1, -40, -6, -5, -16, -85, -86, 59], "withholdReward": false, "trial_id": "mdp_trial_24", "block": "test", "trialIndex": 25, "score": -5, "costs": 0, "simulationMode": [null, null, null, null, null], "rewards": [1, -3, 1, 1, -5], "path": ["0", "0", "23", "24", "25", "26", "29"], "rt": [2255, 107, 320, 630, 161], "actions": ["left", "left", "left", "up", "left"], "actionTimes": [6353, 6967, 7780, 8910, 9571], "queries": {"click": {"state": {"target": [], "time": []}, "edge": {"target": [], "time": []}}, "mouseover": {"state": {"target": [], "time": []}, "edge": {"target": [], "time": []}}, "mouseout": {"state": {"target": ["13", "12", "0", "12", "13", "14"], "time": [3152, 3191, 10724, 10740, 10757, 10773]}, "edge": {"target": [], "time": []}}}, "displayed_time": "18.10", "trialTime": 19696, "trial_type": "mouselab-mdp", "trial_index": 32, "time_elapsed": 1428805, "internal_node_id": "0.0-6.0-1.0-23.0"}}, {"uniqueid": "w54273408:a33663319", "current_trial": 33, "dateTime": 1693482263560, "trialdata": {"revealed_states": [], "clicked_states": [], "num_clicks_accrued": [0, 0, 0, 0, 0, 0, 0, 0, 0, 0, 0, 0, 0], "stateRewards": ["", 1, 1, -5, 10, -31, 73, 14, -8, -23, 63, -70, -1, 2, 8, 7, 25, -59, 27, -10, -40, -71, -15, -2, 3, -8, -5, -19, 77, -34, 7, 67, 63, 19], "withholdReward": false, "trial_id": "mdp_trial_25", "block": "test", "trialIndex": 26, "score": 41, "costs": 0, "simulationMode": [null, null, null, null, null], "rewards": [-1, 2, 8, 7, 25], "path": ["0", "0", "12", "13", "14", "15", "16"], "rt": [1865, 466, 139, 891, 778], "actions": ["right", "right", "right", "up", "up"], "actionTimes": [5922, 6882, 7521, 8905, 10193], "queries": {"click": {"state": {"target": [], "time": []}, "edge": {"target": [], "time": []}}, "mouseover": {"state": {"target": [], "time": []}, "edge": {"target": [], "time": []}}, "mouseout": {"state": {"target": ["0", "12", "15", "17"], "time": [17646, 17680, 17729, 17764]}, "edge": {"target": [], "time": []}}}, "displayed_time": "18.06", "trialTime": 19884, "trial_type": "mouselab-mdp", "trial_index": 33, "time_elapsed": 1449168, "internal_node_id": "0.0-6.0-1.0-24.0"}}, {"uniqueid": "w54273408:a33663319", "current_trial": 34, "dateTime": 1693482295603, "trialdata": {"revealed_states": [], "clicked_states": [], "num_clicks_accrued": [0, 0, 0, 0, 0, 0, 0, 0, 0, 0, 0, 0, 0], "stateRewards": ["", -2, -3, 1, -7, 39, -67, 16, 5, -20, 73, 66, -1, 4, 5, -3, 23, -68, -87, -8, 3, -3, 17, 1, -4, -2, -13, -32, 34, 61, -5, -11, -18, 12], "withholdReward": false, "trial_id": "mdp_trial_26", "block": "test", "trialIndex": 27, "score": 74, "costs": 0, "simulationMode": [null, null, null, null, null], "rewards": [-2, -3, 1, 5, 73], "path": ["0", "0", "1", "2", "3", "8", "10"], "rt": [3008, 217, 322, 684, 1305], "actions": ["up", "up", "up", "left", "down"], "actionTimes": [18643, 19360, 20200, 21379, 23199], "queries": {"click": {"state": {"target": [], "time": []}, "edge": {"target": [], "time": []}}, "mouseover": {"state": {"target": ["1", "2"], "time": [16725, 17525]}, "edge": {"target": [], "time": []}}, "mouseout": {"state": {"target": ["13", "0", "0", "1", "2"], "time": [1275, 14758, 16614, 17224, 25141]}, "edge": {"target": [], "time": []}}}, "displayed_time": "29.64", "trialTime": 31507, "trial_type": "mouselab-mdp", "trial_index": 34, "time_elapsed": 1481211, "internal_node_id": "0.0-6.0-1.0-25.0"}}, {"uniqueid": "w54273408:a33663319", "current_trial": 35, "dateTime": 1693482328672, "trialdata": {"revealed_states": [], "clicked_states": [], "num_clicks_accrued": [0, 0, 0, 0, 0, 0, 0, 0, 0, 0, 0, 0, 0], "stateRewards": ["", -1, -3, -5, -14, -13, -47, 79, 8, -60, -64, 41, -1, 2, 3, 13, -46, 61, -79, -11, -64, -65, 23, 1, -2, 6, -14, 46, 32, 21, 7, 75, -66, 15], "withholdReward": false, "trial_id": "mdp_trial_27", "block": "test", "trialIndex": 28, "score": 40, "costs": 0, "simulationMode": [null, null, null, null, null], "rewards": [-1, -3, -5, 8, 41], "path": ["0", "0", "1", "2", "3", "8", "11"], "rt": [1783, 22, 121, 949, 133], "actions": ["up", "up", "up", "left", "left"], "actionTimes": [4554, 5073, 5717, 7164, 7798], "queries": {"click": {"state": {"target": [], "time": []}, "edge": {"target": [], "time": []}}, "mouseover": {"state": {"target": [], "time": []}, "edge": {"target": [], "time": []}}, "mouseout": {"state": {"target": ["13", "20"], "time": [312, 10629]}, "edge": {"target": [], "time": []}}}, "displayed_time": "16.77", "trialTime": 32513, "trial_type": "mouselab-mdp", "trial_index": 35, "time_elapsed": 1514280, "internal_node_id": "0.0-6.0-1.0-26.0"}}, {"uniqueid": "w54273408:a33663319", "current_trial": 36, "dateTime": 1693482351855, "trialdata": {"revealed_states": [], "clicked_states": [], "num_clicks_accrued": [0, 0, 0, 0, 0, 0, 0, 0, 0, 0, 0, 0, 0], "stateRewards": ["", -1, -3, -6, 14, 41, 18, 63, -14, 80, 21, 17, -2, -4, -2, -5, 13, 70, 8, -4, -64, -10, -20, 2, -1, 4, -1, -17, -55, 42, -7, 47, 54, 15], "withholdReward": false, "trial_id": "mdp_trial_28", "block": "test", "trialIndex": 29, "score": 0, "costs": 0, "simulationMode": [null, null, null, null, null], "rewards": [-2, -4, -2, -5, 13], "path": ["0", "0", "12", "13", "14", "15", "16"], "rt": [1944, 375, 543, 671, 376], "actions": ["right", "right", "right", "up", "up"], "actionTimes": [5613, 6488, 7538, 8729, 9602], "queries": {"click": {"state": {"target": [], "time": []}, "edge": {"target": [], "time": []}}, "mouseover": {"state": {"target": [], "time": []}, "edge": {"target": [], "time": []}}, "mouseout": {"state": {"target": ["19", "21", "22", "13", "12", "0", "0", "12", "13", "14"], "time": [623, 2189, 2222, 2339, 2957, 3172, 10906, 10923, 10957, 10972]}, "edge": {"target": [], "time": []}}}, "displayed_time": "17.67", "trialTime": 22660, "trial_type": "mouselab-mdp", "trial_index": 36, "time_elapsed": 1537464, "internal_node_id": "0.0-6.0-1.0-27.0"}}, {"uniqueid": "w54273408:a33663319", "current_trial": 37, "dateTime": 1693482416343, "trialdata": {"revealed_states": [], "clicked_states": [], "num_clicks_accrued": [0, 0, 0, 0, 0, 0, 0, 0, 0, 0, 0, 0, 0], "stateRewards": ["", 1, 1, -5, 8, -6, 45, 16, -6, -7, -22, -38, -1, -4, 8, -11, -16, 21, -45, -15, -59, -32, 42, -1, 3, 6, 11, -7, 34, -27, -8, 85, 43, -9], "withholdReward": false, "trial_id": "mdp_trial_29", "block": "test", "trialIndex": 30, "score": 53, "costs": 0, "simulationMode": [null, null, null, null, null], "rewards": [-1, 3, 6, 11, 34], "path": ["0", "0", "23", "24", "25", "26", "28"], "rt": [1892, 226, 221, 743, 135], "actions": ["left", "left", "left", "up", "right"], "actionTimes": [4262, 4986, 5698, 6953, 7578], "queries": {"click": {"state": {"target": [], "time": []}, "edge": {"target": [], "time": []}}, "mouseover": {"state": {"target": [], "time": []}, "edge": {"target": [], "time": []}}, "mouseout": {"state": {"target": ["0", "15", "17"], "time": [9342, 9391, 9407]}, "edge": {"target": [], "time": []}}}, "displayed_time": "16.37", "trialTime": 63983, "trial_type": "mouselab-mdp", "trial_index": 37, "time_elapsed": 1601951, "internal_node_id": "0.0-6.0-1.0-28.0"}}, {"uniqueid": "w54273408:a33663319", "current_trial": 38, "dateTime": 1693482436114, "trialdata": {"revealed_states": [], "clicked_states": [], "num_clicks_accrued": [0, 0, 0, 0, 0, 0, 0, 0, 0, 0, 0, 0, 0], "stateRewards": ["", -2, 2, -5, 1, 42, -63, -58, -6, 2, 16, 81, -2, 4, 7, -10, 33, 3, -33, -2, -52, -84, -27, 2, -3, -3, 15, -74, -14, -5, -5, -84, 79, -31], "withholdReward": false, "trial_id": "mdp_trial_30", "block": "test", "trialIndex": 31, "score": 2, "costs": 0, "simulationMode": [null, null, null, null, null], "rewards": [-2, 4, 7, -10, 3], "path": ["0", "0", "12", "13", "14", "15", "17"], "rt": [2028, 487, 1202, 1520, 126], "actions": ["right", "right", "right", "up", "right"], "actionTimes": [5080, 6088, 7792, 9805, 10429], "queries": {"click": {"state": {"target": [], "time": []}, "edge": {"target": [], "time": []}}, "mouseover": {"state": {"target": [], "time": []}, "edge": {"target": [], "time": []}}, "mouseout": {"state": {"target": ["0", "15", "17"], "time": [14048, 14165, 14248]}, "edge": {"target": [], "time": []}}}, "displayed_time": "17.05", "trialTime": 19250, "trial_type": "mouselab-mdp", "trial_index": 38, "time_elapsed": 1621722, "internal_node_id": "0.0-6.0-1.0-29.0"}}, {"uniqueid": "w54273408:a33663319", "current_trial": 39, "dateTime": 1693482457483, "trialdata": {"revealed_states": [], "clicked_states": [], "num_clicks_accrued": [0, 0, 0, 0, 0, 0, 0, 0, 0, 0, 0, 0, 0], "stateRewards": ["", 2, 4, 7, 7, -79, -2, -21, -5, -53, 47, -21, 1, -3, -1, 7, 83, 7, 84, -7, 80, -37, 69, 2, -4, 5, 2, 4, -20, -30, 7, 71, 44, -81], "withholdReward": false, "trial_id": "mdp_trial_31", "block": "test", "trialIndex": 32, "score": -71, "costs": 0, "simulationMode": [null, null, null, null, null], "rewards": [2, -4, 5, 7, -81], "path": ["0", "0", "23", "24", "25", "30", "33"], "rt": [2159, 965, 243, 1075, 755], "actions": ["left", "left", "left", "down", "left"], "actionTimes": [5587, 7067, 7815, 9410, 10657], "queries": {"click": {"state": {"target": [], "time": []}, "edge": {"target": [], "time": []}}, "mouseover": {"state": {"target": [], "time": []}, "edge": {"target": [], "time": []}}, "mouseout": {"state": {"target": ["0", "18"], "time": [12533, 12583]}, "edge": {"target": [], "time": []}}}, "displayed_time": "17.43", "trialTime": 20838, "trial_type": "mouselab-mdp", "trial_index": 39, "time_elapsed": 1643091, "internal_node_id": "0.0-6.0-1.0-30.0"}}, {"uniqueid": "w54273408:a33663319", "current_trial": 40, "dateTime": 1693482480618, "trialdata": {"revealed_states": [], "clicked_states": [], "num_clicks_accrued": [0, 0, 0, 0, 0, 0, 0, 0, 0, 0, 0, 0, 0], "stateRewards": ["", -2, -3, 1, -14, 48, -49, 67, -1, -35, -48, 3, -2, 1, -4, -5, 86, -84, 39, 1, 48, 41, -42, -1, -4, 2, -7, 18, -86, 17, 7, -9, 57, -69], "withholdReward": false, "trial_id": "mdp_trial_32", "block": "test", "trialIndex": 33, "score": -40, "costs": 0, "simulationMode": [null, null, null, null, null], "rewards": [-2, -3, 1, -1, -35], "path": ["0", "0", "1", "2", "3", "8", "9"], "rt": [2285, 413, 843, 748, 932], "actions": ["up", "up", "up", "left", "up"], "actionTimes": [9552, 10482, 11831, 13084, 14519], "queries": {"click": {"state": {"target": [], "time": []}, "edge": {"target": [], "time": []}}, "mouseover": {"state": {"target": ["1"], "time": [8535]}, "edge": {"target": [], "time": []}}, "mouseout": {"state": {"target": ["19", "12", "0", "0", "1", "18", "15", "21"], "time": [6001, 6317, 6384, 8429, 16401, 16450, 16469, 18335]}, "edge": {"target": [], "time": []}}}, "displayed_time": "21.27", "trialTime": 22592, "trial_type": "mouselab-mdp", "trial_index": 40, "time_elapsed": 1666226, "internal_node_id": "0.0-6.0-1.0-31.0"}}, {"uniqueid": "w54273408:a33663319", "current_trial": 41, "dateTime": 1693482506088, "trialdata": {"revealed_states": [], "clicked_states": [], "num_clicks_accrued": [0, 0, 0, 0, 0, 0, 0, 0, 0, 0, 0, 0, 0], "stateRewards": ["", -2, -1, -4, -15, -14, -67, 32, -3, -59, 63, 31, 2, -1, -7, -15, 71, -66, -27, -3, -54, -39, 72, 2, 1, 1, -13, 77, -40, 35, -9, 35, 75, 57], "withholdReward": false, "trial_id": "mdp_trial_33", "block": "test", "trialIndex": 34, "score": 70, "costs": 0, "simulationMode": [null, null, null, null, null], "rewards": [2, 1, 1, -9, 75], "path": ["0", "0", "23", "24", "25", "30", "32"], "rt": [3596, 584, 445, 327, 259], "actions": ["left", "left", "left", "down", "down"], "actionTimes": [13098, 14173, 15117, 15965, 16714], "queries": {"click": {"state": {"target": [], "time": []}, "edge": {"target": [], "time": []}}, "mouseover": {"state": {"target": [], "time": []}, "edge": {"target": [], "time": []}}, "mouseout": {"state": {"target": ["0", "17"], "time": [8570, 18170]}, "edge": {"target": [], "time": []}}}, "displayed_time": "23.50", "trialTime": 24950, "trial_type": "mouselab-mdp", "trial_index": 41, "time_elapsed": 1691696, "internal_node_id": "0.0-6.0-1.0-32.0"}}, {"uniqueid": "w54273408:a33663319", "current_trial": 42, "dateTime": 1693482524901, "trialdata": {"revealed_states": [], "clicked_states": [], "num_clicks_accrued": [0, 0, 0, 0, 0, 0, 0, 0, 0, 0, 0, 0, 0], "stateRewards": ["", -1, -2, -1, -10, -57, 73, -72, -16, 75, -14, -46, -2, -3, -7, -1, -61, -60, 76, -4, 50, 4, 14, 2, 2, -7, 12, -65, -32, 15, -8, -76, -25, -61], "withholdReward": false, "trial_id": "mdp_trial_34", "block": "test", "trialIndex": 35, "score": -36, "costs": 0, "simulationMode": [null, null, null, null, null], "rewards": [2, 2, -7, -8, -25], "path": ["0", "0", "23", "24", "25", "30", "32"], "rt": [2670, 586, 361, 1082, 285], "actions": ["left", "left", "left", "down", "down"], "actionTimes": [5805, 6914, 7772, 9360, 10148], "queries": {"click": {"state": {"target": [], "time": []}, "edge": {"target": [], "time": []}}, "mouseover": {"state": {"target": [], "time": []}, "edge": {"target": [], "time": []}}, "mouseout": {"state": {"target": ["12", "0", "12"], "time": [1992, 12176, 12191]}, "edge": {"target": [], "time": []}}}, "displayed_time": "17.14", "trialTime": 18269, "trial_type": "mouselab-mdp", "trial_index": 42, "time_elapsed": 1710509, "internal_node_id": "0.0-6.0-1.0-33.0"}}, {"uniqueid": "w54273408:a33663319", "current_trial": 43, "dateTime": 1693482545588, "trialdata": {"revealed_states": [], "clicked_states": [], "num_clicks_accrued": [0, 0, 0, 0, 0, 0, 0, 0, 0, 0, 0, 0, 0], "stateRewards": ["", -1, 1, -2, 5, 73, 15, 61, 8, 7, 38, 76, 2, 2, -4, -6, -6, -26, 43, -5, -45, -85, -35, -2, 1, -4, 15, -10, 69, 72, -11, 84, -49, -38], "withholdReward": false, "trial_id": "mdp_trial_35", "block": "test", "trialIndex": 36, "score": 82, "costs": 0, "simulationMode": [null, null, null, null, null], "rewards": [-1, 1, -2, 8, 76], "path": ["0", "0", "1", "2", "3", "8", "11"], "rt": [1942, 777, 268, 778, 638], "actions": ["up", "up", "up", "left", "left"], "actionTimes": [5058, 6332, 7105, 8384, 9526], "queries": {"click": {"state": {"target": [], "time": []}, "edge": {"target": [], "time": []}}, "mouseover": {"state": {"target": [], "time": []}, "edge": {"target": [], "time": []}}, "mouseout": {"state": {"target": ["12", "0", "0"], "time": [2035, 2103, 13818]}, "edge": {"target": [], "time": []}}}, "displayed_time": "17.12", "trialTime": 20150, "trial_type": "mouselab-mdp", "trial_index": 43, "time_elapsed": 1731196, "internal_node_id": "0.0-6.0-1.0-34.0"}}, {"uniqueid": "w54273408:a33663319", "current_trial": 44, "dateTime": 1693482563402, "trialdata": {"revealed_states": [], "clicked_states": [], "num_clicks_accrued": [0, 0, 0, 0, 0, 0, 0, 0, 0, 0, 0, 0, 0], "stateRewards": ["", 2, -1, -4, -13, 74, 77, 3, 2, -43, -2, -11, 2, 3, 7, 11, -26, -29, -33, -3, -3, -13, -3, 1, 3, -7, 14, -59, 33, 9, -5, 34, 79, 68], "withholdReward": false, "trial_id": "mdp_trial_36", "block": "test", "trialIndex": 37, "score": -13, "costs": 0, "simulationMode": [null, null, null, null, null], "rewards": [2, -1, -4, -13, 3], "path": ["0", "0", "1", "2", "3", "4", "7"], "rt": [2688, 364, 227, 519, 1813], "actions": ["up", "up", "up", "right", "down"], "actionTimes": [4852, 5707, 6437, 7495, 9820], "queries": {"click": {"state": {"target": [], "time": []}, "edge": {"target": [], "time": []}}, "mouseover": {"state": {"target": ["12", "17"], "time": [2291, 2341]}, "edge": {"target": [], "time": []}}, "mouseout": {"state": {"target": ["4", "3", "2", "1", "12", "17"], "time": [392, 1157, 1258, 1491, 2308, 2357]}, "edge": {"target": [], "time": []}}}, "displayed_time": "16.17", "trialTime": 17272, "trial_type": "mouselab-mdp", "trial_index": 44, "time_elapsed": 1749010, "internal_node_id": "0.0-6.0-1.0-35.0"}}, {"uniqueid": "w54273408:a33663319", "current_trial": 45, "dateTime": 1693482581288, "trialdata": {"revealed_states": [], "clicked_states": [], "num_clicks_accrued": [0, 0, 0, 0, 0, 0, 0, 0, 0, 0, 0, 0, 0], "stateRewards": ["", -2, 1, -7, 9, 8, 25, 61, -7, -17, 69, -81, 1, 4, -4, -11, 16, 67, 44, 3, 6, -45, -54, -2, 3, 6, -11, -15, 32, -47, 3, -39, -6, -88], "withholdReward": false, "trial_id": "mdp_trial_37", "block": "test", "trialIndex": 38, "score": 57, "costs": 0, "simulationMode": [null, null, null, null, null], "rewards": [1, 4, -4, -11, 67], "path": ["0", "0", "12", "13", "14", "15", "17"], "rt": [1392, 403, 668, 1700, 48], "actions": ["right", "right", "right", "up", "right"], "actionTimes": [3235, 4142, 5326, 7524, 8072], "queries": {"click": {"state": {"target": [], "time": []}, "edge": {"target": [], "time": []}}, "mouseover": {"state": {"target": [], "time": []}, "edge": {"target": [], "time": []}}, "mouseout": {"state": {"target": ["16", "1", "23", "23", "0", "18", "15"], "time": [253, 387, 420, 1088, 9572, 9620, 9638]}, "edge": {"target": [], "time": []}}}, "displayed_time": "15.84", "trialTime": 17289, "trial_type": "mouselab-mdp", "trial_index": 45, "time_elapsed": 1766897, "internal_node_id": "0.0-6.0-1.0-36.0"}}, {"uniqueid": "w54273408:a33663319", "current_trial": 46, "dateTime": 1693482599614, "trialdata": {"revealed_states": [], "clicked_states": [], "num_clicks_accrued": [0, 0, 0, 0, 0, 0, 0, 0, 0, 0, 0, 0, 0], "stateRewards": ["", -2, 4, -3, -13, 63, -36, 62, 11, 78, 34, -51, 2, -2, 8, -6, -40, -18, 31, 9, 64, 39, 79, 1, 4, -4, 15, -12, 76, 73, -10, -77, 86, -4], "withholdReward": false, "trial_id": "mdp_trial_38", "block": "test", "trialIndex": 39, "score": -86, "costs": 0, "simulationMode": [null, null, null, null, null], "rewards": [1, 4, -4, -10, -77], "path": ["0", "0", "23", "24", "25", "30", "31"], "rt": [3000, 836, 556, 978, 383], "actions": ["left", "left", "left", "down", "right"], "actionTimes": [5593, 6923, 7976, 9451, 10337], "queries": {"click": {"state": {"target": [], "time": []}, "edge": {"target": [], "time": []}}, "mouseover": {"state": {"target": ["0", "23"], "time": [4169, 4501]}, "edge": {"target": [], "time": []}}, "mouseout": {"state": {"target": ["15", "18", "0", "23"], "time": [1135, 1168, 4384, 11201]}, "edge": {"target": [], "time": []}}}, "displayed_time": "16.59", "trialTime": 17712, "trial_type": "mouselab-mdp", "trial_index": 46, "time_elapsed": 1785222, "internal_node_id": "0.0-6.0-1.0-37.0"}}, {"uniqueid": "w54273408:a33663319", "current_trial": 47, "dateTime": 1693482618164, "trialdata": {"revealed_states": [], "clicked_states": [], "num_clicks_accrued": [0, 0, 0, 0, 0, 0, 0, 0, 0, 0, 0, 0, 0], "stateRewards": ["", 1, 2, -5, 14, 54, -14, -25, 16, -5, -87, 78, -1, 1, 3, -3, 52, 53, 53, -10, 73, -69, -48, 2, 3, 1, 8, -62, -7, 85, 7, 82, 52, -28], "withholdReward": false, "trial_id": "mdp_trial_39", "block": "test", "trialIndex": 40, "score": 66, "costs": 0, "simulationMode": [null, null, null, null, null], "rewards": [1, 2, -5, 14, 54], "path": ["0", "0", "1", "2", "3", "4", "5"], "rt": [2372, 755, 346, 736, 1199], "actions": ["up", "up", "up", "right", "up"], "actionTimes": [5176, 6433, 7269, 8510, 10206], "queries": {"click": {"state": {"target": [], "time": []}, "edge": {"target": [], "time": []}}, "mouseover": {"state": {"target": [], "time": []}, "edge": {"target": [], "time": []}}, "mouseout": {"state": {"target": ["0", "22", "19"], "time": [11737, 11787, 11804]}, "edge": {"target": [], "time": []}}}, "displayed_time": "16.80", "trialTime": 17917, "trial_type": "mouselab-mdp", "trial_index": 47, "time_elapsed": 1803773, "internal_node_id": "0.0-6.0-1.0-38.0"}}, {"uniqueid": "w54273408:a33663319", "current_trial": 48, "dateTime": 1693482637542, "trialdata": {"revealed_states": [], "clicked_states": [], "num_clicks_accrued": [0, 0, 0, 0, 0, 0, 0, 0, 0, 0, 0, 0, 0], "stateRewards": ["", 2, -1, -1, 7, 11, -40, -22, -2, 69, 37, 8, -2, 4, -8, -12, -2, -72, -3, -12, 17, 63, 12, 1, 3, -7, 6, 25, 61, 61, -9, 28, -17, 27], "withholdReward": false, "trial_id": "mdp_trial_40", "block": "test", "trialIndex": 41, "score": 45, "costs": 0, "simulationMode": [null, null, null, null, null], "rewards": [-2, 4, -8, -12, 63], "path": ["0", "0", "12", "13", "14", "19", "21"], "rt": [1277, 178, 135, 426, 365], "actions": ["right", "right", "right", "down", "down"], "actionTimes": [4523, 5201, 5843, 6783, 7640], "queries": {"click": {"state": {"target": [], "time": []}, "edge": {"target": [], "time": []}}, "mouseover": {"state": {"target": [], "time": []}, "edge": {"target": [], "time": []}}, "mouseout": {"state": {"target": ["21", "22", "12", "0", "18"], "time": [2054, 2337, 2371, 9904, 9972]}, "edge": {"target": [], "time": []}}}, "displayed_time": "17.25", "trialTime": 18729, "trial_type": "mouselab-mdp", "trial_index": 48, "time_elapsed": 1823150, "internal_node_id": "0.0-6.0-1.0-39.0"}}, {"uniqueid": "w54273408:a33663319", "current_trial": 49, "dateTime": 1693482714064, "trialdata": {"rt": 76514, "response": {"Q0": "$-2 to $2", "Q1": "$-16 to $16", "Q2": "$-32 to $32", "Q3": "The cost for clicking on nodes varied between nodes.", "Q4": "Very motivated"}, "question_order": [0, 1, 2, 3, 4], "trial_id": "final_quiz_control", "trial_type": "survey-multi-choice", "trial_index": 49, "time_elapsed": 1899673, "internal_node_id": "0.0-6.0-2.0"}}, {"uniqueid": "w54273408:a33663319", "current_trial": 50, "dateTime": 1693482858393, "trialdata": {"rt": 144314, "response": {"Q0": "To not click on the nodes before making a move, that way I did not loose much score.", "Q1": "Yes, I stopped opening the nodes and made more moves onto the left.", "Q2": "Opening the nodes for just 3 seconds."}, "trial_id": "self_report_control", "trial_type": "survey-text", "trial_index": 50, "time_elapsed": 2044002, "internal_node_id": "0.0-6.0-3.0"}}, {"uniqueid": "w54273408:a33663319", "current_trial": 51, "dateTime": 1693482908269, "trialdata": {"rt": 49872, "response": {"gender": "female", "age": "29", "colorblind": "0", "effort": "1"}, "trial_type": "survey-html-form", "trial_index": 51, "time_elapsed": 2093877, "internal_node_id": "0.0-6.0-4.0"}}, {"uniqueid": "w54273408:a33663319", "current_trial": 52, "dateTime": 1693482938739, "trialdata": {"rt": 30465, "response": {"Q0": "No", "Q1": "No I have never", "Q2": ""}, "trial_type": "survey-text", "trial_index": 52, "time_elapsed": 2124348, "internal_node_id": "0.0-6.0-5.0"}}, {"uniqueid": "w54273408:a33663319", "current_trial": 53, "dateTime": 1693482952317, "trialdata": {"rt": 13572, "stimulus": "<h1>Completion Code Instructions (1/2)</h1>\n<br><br><br><br>\nYou have reached the end of the experiment! The completion code consists of two parts: (1) a code with 2 characters (2) a code with 6 characters. On this page, you will receive the second part of the code. The first part of the completion code will be on the next page.\n<br><br>\nThe second part of your completion code is: <b>EWEK22</b>\n<br><br>\nPlease note this down. Then, press 'Finish HIT' in order to find the first part of your completion code. Once the data has been saved, you will receive this code either in this window or in the original browser window where you started the experiment.\n", "response": 0, "trial_type": "html-button-response", "trial_index": 53, "time_elapsed": 2137925, "internal_node_id": "0.0-6.0-6.0"}}, {"uniqueid": "w54273408:a33663319", "current_trial": 54, "dateTime": 1693482953323, "trialdata": {"success": true, "trial_type": "fullscreen", "trial_index": 54, "time_elapsed": 2138932, "internal_node_id": "0.0-7.0"}}], "questiondata": {"params": {"CODE": "C6DMOQA6", "MIN_TIME": 14, "inspectCost": 1, "startTime": "Thu Aug 31 2023 13:20:11 GMT+0200 (South Africa Standard Time)", "bonusRate": 0.002, "variance": "1_2_4_8_44", "branching": "31123"}, "final_score": 182.8}, "eventdata": [{"eventtype": "initialized", "value": null, "timestamp": 1693480810939, "interval": 0}, {"eventtype": "window_resize", "value": [1024, 646], "timestamp": 1693480810939, "interval": 0}, {"eventtype": "window_resize", "value": [1024, 646], "timestamp": 1693480811409, "interval": 470}, {"eventtype": "window_resize", "value": [1366, 768], "timestamp": 1693480823527, "interval": 12118}, {"eventtype": "window_resize", "value": [1024, 646], "timestamp": 1693482952584, "interval": 2129057}], "useragent": "Mozilla/5.0 (Windows NT 10.0; Win64; x64) AppleWebKit/537.36 (KHTML, like Gecko) Chrome/116.0.0.0 Safari/537.36", "mode": "live", "id": "w54273408:a33663319", "status": "user data saved", "Beginhit": "2023-08-31 11:20:11.163335", "Beginexp": "2023-08-31 11:20:30.918705", "Endhit": "2023-08-31 11:56:01.77474", "psiturkStatus": 3, "browser": "<redacted>", "platform": "windows", "language": "en-US"}