{"condition": 0, "counterbalance": 0, "assignmentId": "a62170213", "workerId": "w83172810", "hitId": "h67096744", "currenttrial": 9, "bonus": 0, "data": [{"uniqueid": "w83172810:a62170213", "current_trial": 0, "dateTime": 1691142208450, "trialdata": {"success": true, "trial_type": "fullscreen", "trial_index": 0, "time_elapsed": 3205, "internal_node_id": "0.0-0.0"}}, {"uniqueid": "w83172810:a62170213", "current_trial": 1, "dateTime": 1691142242699, "trialdata": {"view_history": [{"page_index": 0, "viewing_time": 34245}], "rt": 34245, "trial_id": "exp_instructions_control", "trial_type": "instructions", "trial_index": 1, "time_elapsed": 37455, "internal_node_id": "0.0-1.0"}}, {"uniqueid": "w83172810:a62170213", "current_trial": 2, "dateTime": 1691142247051, "trialdata": {"success": true, "trial_type": "fullscreen", "trial_index": 2, "time_elapsed": 41807, "internal_node_id": "0.0-2.0-0.0"}}, {"uniqueid": "w83172810:a62170213", "current_trial": 3, "dateTime": 1691142449410, "trialdata": {"view_history": [{"page_index": 0, "viewing_time": 90499}, {"page_index": 1, "viewing_time": 84056}, {"page_index": 2, "viewing_time": 9680}, {"page_index": 3, "viewing_time": 18120}], "rt": 202355, "trial_id": "mouselab_instructions_1_control", "trial_type": "instructions", "trial_index": 3, "time_elapsed": 244166, "internal_node_id": "0.0-2.0-1.0"}}, {"uniqueid": "w83172810:a62170213", "current_trial": 4, "dateTime": 1691142559159, "trialdata": {"revealed_states": [], "clicked_states": ["12", "13", "18", "15", "16", "17", "14", "19", "20", "21", "22", "23", "24", "28", "27", "26", "29", "25", "30", "31", "32", "33", "10", "11", "9", "8", "3", "2", "4", "7", "6", "5", "1"], "num_clicks_accrued": [0, 0, 0, 0, 0, 0, 0, 0, 0, 0, 0, 0, 0], "stateRewards": ["", 10, -10, 10, -10, 10, -10, 10, -10, 10, 10, -10, -10, 10, -10, 10, -10, -10, 10, 10, 10, -10, 10, 10, -10, -10, -10, 10, 10, 10, -10, 10, 10, -10], "withholdReward": false, "trial_id": "practice_1", "block": "test", "trialIndex": 0, "score": -23, "costs": -16.5, "simulationMode": [null, null, null, null, null], "rewards": [-10, 10, -10, 10, -10], "path": ["0", "0", "12", "13", "14", "15", "17"], "rt": [96589, 498, 273, 579, 121], "actions": ["right", "right", "right", "up", "right"], "actionTimes": [99338, 100341, 101125, 102198, 102825], "queries": {"click": {"state": {"target": ["12", "13", "18", "15", "16", "17", "14", "19", "20", "21", "22", "23", "24", "28", "27", "26", "29", "25", "30", "31", "32", "33", "10", "11", "9", "8", "3", "2", "4", "7", "6", "5", "1"], "time": [7007, 8077, 9757, 13941, 16533, 18814, 20683, 22737, 24688, 26589, 28615, 32340, 36500, 38939, 41309, 43336, 45342, 47522, 50110, 52477, 54851, 57132, 59636, 61732, 64704, 66335, 68790, 71100, 73162, 75551, 77718, 79746, 83221]}, "edge": {"target": [], "time": []}}, "mouseover": {"state": {"target": ["12", "12", "12", "12", "12", "13", "18", "15", "17", "16", "17", "17", "14", "19", "20", "21", "22", "19", "16", "20", "19", "0", "23", "24", "28", "26", "27", "26", "29", "25", "25", "24", "30", "31", "32", "33", "30", "31", "24", "10", "11", "8", "9", "9", "8", "3", "2", "7", "4", "7", "6", "5", "4", "7", "2", "1", "2", "4", "7", "1", "23", "1", "0", "0", "12", "13", "18", "15", "14", "19", "31", "30", "33", "31", "23", "0", "12", "19", "22", "22", "19"], "time": [3835, 4223, 4824, 5240, 6738, 7617, 9181, 11413, 15610, 16163, 17194, 18332, 19593, 22441, 23936, 26218, 28352, 30033, 30424, 30857, 30885, 31438, 31501, 35612, 38522, 40838, 40984, 43051, 45067, 45860, 46950, 48050, 49066, 50798, 54290, 56597, 57506, 57622, 58758, 58945, 61370, 63490, 63757, 64492, 65052, 68472, 70728, 72701, 72831, 73928, 77383, 79332, 80328, 81360, 81439, 81805, 81905, 82190, 82210, 82394, 82522, 82788, 85287, 87535, 87619, 88492, 89214, 90216, 90385, 90532, 91002, 91031, 91080, 91603, 92300, 92661, 92703, 92930, 93043, 96395, 96443]}, "edge": {"target": [], "time": []}}, "mouseout": {"state": {"target": ["22", "13", "12", "12", "12", "12", "12", "12", "13", "18", "15", "17", "16", "17", "17", "14", "19", "19", "20", "21", "22", "19", "16", "20", "19", "22", "0", "23", "24", "28", "26", "27", "26", "26", "26", "29", "25", "25", "24", "30", "31", "32", "32", "33", "30", "31", "24", "10", "11", "8", "9", "9", "8", "3", "2", "7", "4", "4", "7", "6", "5", "4", "7", "2", "1", "2", "5", "4", "7", "1", "23", "1", "0", "0", "12", "13", "18", "15", "14", "19", "31", "30", "33", "31", "23", "0", "12", "19", "22", "22", "19"], "time": [null, 840, 1875, 3901, 4593, 5090, 5598, 7516, 8965, 11180, 15598, 15626, 17127, 17243, 19477, 21735, 22853, 23584, 25303, 27967, 29967, 30084, 30668, 30870, 30918, 31338, 31452, 35442, 38282, 40533, 40919, 42039, 43453, 43813, 44865, 45759, 45977, 47999, 48968, 50598, 53940, 55509, 56430, 57473, 57573, 58696, 58774, 61131, 63311, 63608, 63808, 65001, 68257, 70491, 72567, 72730, 73299, 73645, 76945, 79166, 80195, 80429, 81389, 81475, 81871, 81921, 82155, 82206, 82222, 82421, 82573, 83560, 86805, 87551, 88465, 89079, 90148, 90248, 90431, 90635, 91016, 91064, 91115, 91700, 92627, 92697, 92711, 92959, 93127, 96409, 96477]}, "edge": {"target": [], "time": []}}}, "displayed_time": "103.34", "trialTime": 109280, "trial_type": "mouselab-mdp", "trial_index": 4, "time_elapsed": 353914, "internal_node_id": "0.0-2.0-2.0-0.0"}}, {"uniqueid": "w83172810:a62170213", "current_trial": 5, "dateTime": 1691142656729, "trialdata": {"revealed_states": [], "clicked_states": ["12", "13", "18", "14", "15", "16", "17", "22", "19", "20", "21", "23", "24", "31", "30", "25", "28", "26", "27", "29", "33", "32", "1", "2", "7", "4", "3", "6", "5", "9", "8", "10", "11"], "num_clicks_accrued": [0, 0, 0, 0, 0, 0, 0, 0, 0, 0, 0, 0, 0], "stateRewards": ["", -10, -10, 10, 10, -10, 10, 10, 10, 10, 10, 10, -10, 10, -10, -10, 10, 10, -10, 10, -10, 10, -10, 10, -10, -10, 10, 10, -10, -10, 10, -10, 10, -10], "withholdReward": false, "trial_id": "practice_2", "block": "test", "trialIndex": 1, "score": -3, "costs": -16.5, "simulationMode": [null, null, null, null, null], "rewards": [-10, -10, 10, 10, 10], "path": ["0", "0", "1", "2", "3", "8", "9"], "rt": [83652, 340, 166, 309, 456], "actions": ["up", "up", "up", "left", "up"], "actionTimes": [89426, 90273, 90933, 91752, 92717], "queries": {"click": {"state": {"target": ["12", "13", "18", "14", "15", "16", "17", "22", "19", "20", "21", "23", "24", "31", "30", "25", "28", "26", "27", "29", "33", "32", "1", "2", "7", "4", "3", "6", "5", "9", "8", "10", "11"], "time": [7754, 9701, 11989, 13990, 15961, 17895, 20222, 23515, 25500, 27485, 29580, 32935, 35488, 37492, 39382, 41427, 43409, 45382, 47333, 49355, 51351, 54394, 56704, 58638, 60436, 62333, 64223, 66126, 68106, 70228, 72115, 73750, 75760]}, "edge": {"target": [], "time": []}}, "mouseover": {"state": {"target": ["9", "28", "12", "13", "12", "13", "18", "14", "15", "16", "17", "17", "19", "22", "19", "20", "21", "19", "13", "12", "24", "23", "24", "24", "31", "30", "25", "28", "26", "27", "29", "26", "25", "30", "33", "30", "32", "31", "7", "1", "2", "7", "4", "3", "6", "5", "9", "8", "10", "11", "3", "4", "12", "0", "12", "15"], "time": [6352, 6470, 6803, 6921, 7240, 9347, 11285, 13747, 15650, 17608, 19651, 19887, 22817, 23264, 24224, 26948, 29153, 31297, 31628, 31708, 32082, 32259, 34613, 34948, 37059, 39009, 41042, 43120, 44862, 46854, 48954, 50736, 50801, 50886, 51033, 52139, 53946, 55932, 56215, 56386, 58343, 60021, 61936, 63969, 65734, 67712, 69886, 71846, 73522, 75259, 78502, 78666, 79168, 79282, 80303, 81188]}, "edge": {"target": [], "time": []}}, "mouseout": {"state": {"target": ["13", "12", "0", "9", "28", "12", "13", "12", "13", "18", "14", "15", "16", "17", "17", "19", "22", "19", "20", "21", "19", "13", "12", "24", "23", "24", "24", "31", "30", "25", "28", "26", "27", "27", "29", "27", "26", "25", "30", "33", "30", "32", "31", "7", "1", "2", "7", "4", "3", "4", "6", "5", "9", "8", "10", "11", "3", "4", "12", "0", "12", "15", "19"], "time": [5109, 5125, 5156, 6370, 6740, 6819, 7172, 8277, 11223, 13416, 15505, 17492, 19534, 19669, 22434, 23229, 23925, 26921, 29001, 29882, 31411, 31658, 31741, 32227, 34599, 34662, 36989, 38839, 40807, 42934, 44833, 46417, 47484, 48841, 50351, 50705, 50751, 50835, 50901, 51806, 53641, 55849, 55965, 56336, 57894, 59976, 61714, 63736, 64810, 65706, 67579, 68293, 71700, 73374, 73758, 77586, 78604, 78717, 79234, 80275, 80319, 81406, 95943]}, "edge": {"target": [], "time": []}}}, "displayed_time": "93.21", "trialTime": 97404, "trial_type": "mouselab-mdp", "trial_index": 5, "time_elapsed": 451484, "internal_node_id": "0.0-2.0-2.0-1.0"}}, {"uniqueid": "w83172810:a62170213", "current_trial": 6, "dateTime": 1691142676548, "trialdata": {"view_history": [{"page_index": 0, "viewing_time": 10349}, {"page_index": 1, "viewing_time": 9464}], "rt": 19813, "trial_id": "mouselab_instructions_2_control", "trial_type": "instructions", "trial_index": 6, "time_elapsed": 471304, "internal_node_id": "0.0-2.0-3.0"}}, {"uniqueid": "w83172810:a62170213", "current_trial": 7, "dateTime": 1691142739741, "trialdata": {"rt": 63188, "response": {"Q0": "There is no cost for clicking on nodes.", "Q1": "The better I perform the higher my bonus will be.", "Q2": "No, the amount of cash at each node of the web may be different each time.", "Q3": "To get the highest total score.", "Q4": "Only before moving the spider.", "Q5": "10 seconds"}, "question_order": [0, 1, 2, 3, 4, 5], "correct": {"Q0": "The cost for clicking on nodes may vary between nodes.", "Q1": "The better I perform the higher my bonus will be.", "Q2": "No, the amount of cash at each node of the web may be different each time.", "Q3": "To get the highest total score.", "Q4": "Only before moving the spider.", "Q5": "3 seconds"}, "trial_id": "mouselab_quiz_control", "trial_type": "survey-multi-choice", "trial_index": 7, "time_elapsed": 534497, "internal_node_id": "0.0-2.0-4.0"}}, {"uniqueid": "w83172810:a62170213", "current_trial": 8, "dateTime": 1691142746743, "trialdata": {"success": true, "trial_type": "fullscreen", "trial_index": 8, "time_elapsed": 541498, "internal_node_id": "0.0-2.1-0.1"}}], "questiondata": {"params": {"CODE": "C6DMOQA6", "MIN_TIME": 14, "inspectCost": 1, "startTime": "Fri Aug 04 2023 11:43:23 GMT+0200 (South Africa Standard Time)", "bonusRate": 0.002, "variance": "1_2_4_8_44", "branching": "31123"}}, "eventdata": [{"eventtype": "initialized", "value": null, "timestamp": 1691142202947, "interval": 0}, {"eventtype": "window_resize", "value": [1280, 622], "timestamp": 1691142202947, "interval": 0}, {"eventtype": "window_resize", "value": [1280, 622], "timestamp": 1691142203432, "interval": 485}, {"eventtype": "window_resize", "value": [1280, 720], "timestamp": 1691142207658, "interval": 4226}, {"eventtype": "focus", "value": "off", "timestamp": 1691142563649, "interval": 355991}, {"eventtype": "focus", "value": "on", "timestamp": 1691142564929, "interval": 1280}, {"eventtype": "focus", "value": "off", "timestamp": 1691142743903, "interval": 178974}, {"eventtype": "focus", "value": "on", "timestamp": 1691142743903, "interval": 0}, {"eventtype": "window_resize", "value": [1280, 622], "timestamp": 1691142744113, "interval": 210}, {"eventtype": "window_resize", "value": [1280, 720], "timestamp": 1691142745952, "interval": 1839}, {"eventtype": "window_resize", "value": [1280, 622], "timestamp": 1691142752294, "interval": 6342}], "useragent": "Mozilla/5.0 (Windows NT 10.0; Win64; x64) AppleWebKit/537.36 (KHTML, like Gecko) Chrome/115.0.0.0 Safari/537.36", "mode": "live", "id": "w83172810:a62170213", "status": "user data saved", "Beginhit": "2023-08-04 09:43:20.272839", "Beginexp": "2023-08-04 09:43:28.584845", "Endhit": null, "psiturkStatus": 6, "browser": "<redacted>", "platform": "windows", "language": "en-US", "excludeReason": "quizfail"}