{"condition": 0, "counterbalance": 0, "assignmentId": "a78588502", "workerId": "w88697477", "hitId": "h61543036", "currenttrial": 73, "bonus": 0, "data": [{"uniqueid": "w88697477:a78588502", "current_trial": 0, "dateTime": 1693481027887, "trialdata": {"success": true, "trial_type": "fullscreen", "trial_index": 0, "time_elapsed": 9836, "internal_node_id": "0.0-0.0"}}, {"uniqueid": "w88697477:a78588502", "current_trial": 1, "dateTime": 1693481068110, "trialdata": {"view_history": [{"page_index": 0, "viewing_time": 40221}], "rt": 40221, "trial_id": "exp_instructions_control", "trial_type": "instructions", "trial_index": 1, "time_elapsed": 50059, "internal_node_id": "0.0-1.0"}}, {"uniqueid": "w88697477:a78588502", "current_trial": 2, "dateTime": 1693481614998, "trialdata": {"view_history": [{"page_index": 0, "viewing_time": 231823}, {"page_index": 1, "viewing_time": 210792}, {"page_index": 2, "viewing_time": 33039}, {"page_index": 3, "viewing_time": 71233}], "rt": 546888, "trial_id": "mouselab_instructions_1_control", "trial_type": "instructions", "trial_index": 2, "time_elapsed": 596947, "internal_node_id": "0.0-2.0-1.0"}}, {"uniqueid": "w88697477:a78588502", "current_trial": 3, "dateTime": 1693481794350, "trialdata": {"revealed_states": [], "clicked_states": ["1", "2", "3", "4", "5", "23", "24", "25", "30", "32"], "num_clicks_accrued": [0, 0, 0, 0, 0, 0, 0, 0, 0, 0, 0, 0, 0], "stateRewards": ["", -10, -10, 10, -10, 10, 10, 10, -10, 10, -10, 10, -10, -10, -10, -10, -10, -10, -10, -10, 10, -10, 10, -10, -10, 10, -10, 10, 10, -10, -10, -10, -10, 10], "withholdReward": false, "trial_id": "practice_1", "block": "test", "trialIndex": 0, "score": -51.5, "costs": -5, "simulationMode": [null, null, null, null, null], "rewards": [-10, -10, -10, -10, -10], "path": ["0", "0", "12", "13", "14", "19", "21"], "rt": [158266, 3289, 3802, 981, 313], "actions": ["right", "right", "right", "down", "down"], "actionTimes": [161476, 165282, 169594, 171091, 171922], "queries": {"click": {"state": {"target": ["1", "2", "3", "4", "5", "23", "24", "25", "30", "32"], "time": [9984, 12334, 13566, 16590, 17630, 25550, 26662, 28494, 29758, 31605]}, "edge": {"target": [], "time": []}}, "mouseover": {"state": {"target": ["0", "1", "2", "3", "4", "5", "4", "4", "5", "7", "12", "23", "2", "0", "0", "0", "0", "23", "23", "24", "25", "25", "30", "25", "30", "32", "0", "0", "0", "12", "12", "23", "0", "0", "0", "23", "23", "24", "30", "25", "30", "31", "24", "10", "23", "23", "5", "5", "4", "5", "9", "16", "15", "21", "21", "19", "22", "0", "12", "0", "31", "31", "24", "24", "24", "28", "26", "26", "29", "33", "33", "32", "32", "31", "23", "1", "2", "7", "0", "12", "14", "19", "4", "7", "12", "1", "1", "0", "0", "0", "14", "27", "26", "26", "26", "27", "13", "19", "14", "7", "4", "4", "7", "6"], "time": [7959, 9758, 11975, 13243, 14143, 14892, 15925, 16142, 17210, 19775, 19958, 22358, 23292, 23593, 23859, 24192, 24592, 24908, 25158, 26410, 27126, 27277, 28008, 28175, 29027, 30509, 41975, 42325, 47775, 53392, 53642, 56209, 57509, 63825, 64242, 65258, 65559, 66475, 67275, 67508, 68025, 68491, 68541, 68791, 69908, 70642, 70741, 70924, 71158, 72116, 72191, 73226, 73242, 74042, 74375, 74541, 75275, 75508, 75924, 76508, 76558, 83043, 84209, 84525, 84692, 84858, 85491, 85758, 86191, 86908, 87176, 87775, 88060, 88925, 89258, 92525, 92808, 92925, 93658, 94208, 95875, 95924, 115725, 115758, 115908, 116042, 116325, 116625, 118125, 118375, 128508, 130692, 130741, 131542, 147075, 147093, 148160, 148621, 148675, 149026, 149426, 149812, 149892, 150708]}, "edge": {"target": [], "time": []}}, "mouseout": {"state": {"target": ["0", "0", "23", "33", "14", "0", "0", "1", "2", "3", "4", "5", "4", "4", "5", "4", "7", "12", "23", "2", "0", "0", "0", "0", "23", "23", "24", "25", "25", "30", "25", "30", "32", "0", "0", "0", "12", "12", "23", "0", "0", "0", "23", "23", "24", "30", "25", "30", "31", "24", "10", "23", "23", "5", "5", "4", "5", "9", "16", "15", "21", "21", "19", "22", "0", "12", "0", "31", "31", "24", "24", "24", "28", "26", "26", "29", "33", "33", "32", "32", "31", "23", "1", "2", "7", "0", "12", "14", "19", "4", "7", "12", "1", "1", "0", "0", "0", "14", "27", "26", "26", "26", "27", "13", "19", "14", "7", "4", "4", "7", "6"], "time": [null, 1509, 1541, 1575, 2392, 2592, 8776, 11859, 13077, 14060, 14708, 15842, 15958, 17109, 19659, 19742, 19842, 20075, 22408, 23475, 23642, 23908, 24492, 24775, 24942, 26110, 27110, 27193, 27975, 28077, 28860, 30293, 36408, 42009, 45608, 49042, 53442, 54692, 56392, 60975, 63958, 64259, 65292, 65825, 66741, 67376, 67637, 68158, 68524, 68558, 68841, 69958, 70658, 70758, 70958, 71444, 72158, 72225, 73241, 73259, 74058, 74408, 75258, 75308, 75892, 76475, 76525, 76574, 83059, 84225, 84558, 84725, 85475, 85508, 86175, 86660, 86941, 87508, 87825, 88092, 89191, 89308, 92692, 92825, 93525, 94175, 95108, 95892, 96027, 115742, 115791, 115925, 116108, 116558, 116932, 118158, 118825, 128525, 130725, 130758, 146981, 147092, 147108, 148177, 148659, 148708, 149092, 149492, 149842, 150428, 151196]}, "edge": {"target": [], "time": []}}}, "displayed_time": "172.41", "trialTime": 177442, "trial_type": "mouselab-mdp", "trial_index": 3, "time_elapsed": 776299, "internal_node_id": "0.0-2.0-2.0-0.0"}}, {"uniqueid": "w88697477:a78588502", "current_trial": 4, "dateTime": 1693481901158, "trialdata": {"revealed_states": [], "clicked_states": ["23", "24", "25", "26", "28", "27", "29", "11", "1", "2", "3", "8", "10", "9", "5", "4", "15", "19", "20", "13", "14", "17", "16", "18", "22", "21", "12", "7", "30", "32", "31", "33", "6"], "num_clicks_accrued": [0, 0, 0, 0, 0, 0, 0, 0, 0, 0, 0, 0, 0], "stateRewards": ["", -10, -10, 10, -10, 10, 10, -10, -10, 10, 10, 10, 10, -10, -10, 10, 10, 10, 10, -10, 10, -10, 10, 10, 10, -10, 10, 10, 10, -10, 10, -10, 10, 10], "withholdReward": false, "trial_id": "practice_2", "block": "test", "trialIndex": 1, "score": -43, "costs": -16.5, "simulationMode": [null, null, null, null, null], "rewards": [10, -10, -10, -10, -10], "path": ["0", "0", "12", "13", "14", "19", "21"], "rt": [91167, 2746, 356, 1658, 260], "actions": ["right", "right", "right", "down", "down"], "actionTimes": [95959, 99214, 100087, 102239, 102990], "queries": {"click": {"state": {"target": ["23", "24", "25", "26", "28", "27", "29", "11", "1", "2", "3", "8", "10", "9", "5", "4", "15", "19", "20", "13", "14", "17", "16", "18", "22", "21", "12", "7", "30", "32", "31", "33", "6"], "time": [7379, 8562, 9721, 11042, 12070, 14929, 17282, 18993, 26746, 28617, 30233, 31507, 32826, 34475, 39954, 43826, 45562, 50217, 52217, 53377, 55010, 57050, 60065, 61154, 62506, 63730, 65170, 68298, 70985, 73545, 74617, 76345, 79857]}, "edge": {"target": [], "time": []}}, "mouseover": {"state": {"target": ["23", "24", "25", "26", "28", "27", "29", "11", "28", "31", "23", "1", "10", "8", "10", "2", "1", "2", "3", "8", "10", "9", "4", "6", "18", "13", "12", "7", "5", "4", "4", "7", "13", "14", "15", "14", "19", "14", "14", "19", "19", "21", "20", "13", "14", "17", "16", "18", "13", "22", "22", "21", "12", "12", "0", "0", "0", "7", "6", "4", "3", "27", "26", "25", "30", "33", "32", "31", "31", "30", "33", "26", "0", "0", "6", "12", "0", "0"], "time": [6514, 8282, 9383, 10198, 11516, 14680, 16264, 18832, 20230, 20646, 20680, 24480, 24547, 24646, 25013, 25047, 26463, 28163, 29913, 31264, 32563, 34113, 35647, 35680, 36046, 36080, 39197, 39247, 39496, 41030, 41347, 44565, 45013, 45263, 45313, 46265, 46465, 48746, 49329, 49813, 49979, 50696, 51946, 53130, 53898, 55649, 58232, 60880, 61797, 62096, 62263, 63496, 64581, 64979, 65630, 65879, 66196, 67929, 68747, 70013, 70063, 70446, 70496, 70631, 70779, 71363, 71998, 74097, 74414, 75030, 75463, 77613, 78179, 79280, 79729, 80946, 82047, 82681]}, "edge": {"target": [], "time": []}}, "mouseout": {"state": {"target": ["0", "23", "24", "25", "26", "28", "27", "29", "11", "28", "31", "23", "1", "10", "8", "10", "2", "1", "2", "3", "8", "10", "8", "9", "4", "6", "18", "13", "12", "7", "5", "4", "4", "7", "13", "14", "15", "15", "14", "19", "14", "15", "14", "19", "19", "21", "20", "20", "13", "14", "17", "16", "18", "13", "22", "22", "21", "22", "12", "12", "0", "0", "0", "7", "6", "4", "3", "27", "26", "25", "30", "33", "32", "31", "31", "30", "33", "26", "31", "0", "0", "6", "12", "0", "0"], "time": [3746, 8099, 9168, 10065, 11482, 14313, 15781, 17400, 20113, 20246, 20663, 20696, 24513, 24579, 24913, 25030, 25129, 27985, 29713, 31230, 32530, 32969, 33848, 35613, 35663, 35713, 36063, 36113, 39213, 39263, 40980, 41113, 44497, 44782, 45030, 45280, 45704, 46215, 46398, 46530, 48763, 49179, 49646, 49931, 50613, 51663, 52360, 52696, 53865, 55582, 57664, 60797, 61763, 62080, 62130, 63080, 64197, 64397, 64681, 65596, 65664, 65929, 67512, 68647, 69929, 70047, 70079, 70463, 70512, 70679, 71313, 71929, 74031, 74130, 74996, 75296, 76997, 77663, 77896, 78196, 79413, 80446, 80962, 82112, 82762]}, "edge": {"target": [], "time": []}}}, "displayed_time": "103.48", "trialTime": 106655, "trial_type": "mouselab-mdp", "trial_index": 4, "time_elapsed": 883107, "internal_node_id": "0.0-2.0-2.0-1.0"}}, {"uniqueid": "w88697477:a78588502", "current_trial": 5, "dateTime": 1693481953478, "trialdata": {"view_history": [{"page_index": 0, "viewing_time": 39277}, {"page_index": 1, "viewing_time": 13040}], "rt": 52318, "trial_id": "mouselab_instructions_2_control", "trial_type": "instructions", "trial_index": 5, "time_elapsed": 935427, "internal_node_id": "0.0-2.0-3.0"}}, {"uniqueid": "w88697477:a78588502", "current_trial": 6, "dateTime": 1693482009950, "trialdata": {"rt": 56469, "response": {"Q0": "There is no cost for clicking on nodes.", "Q1": "The better I perform the higher my bonus will be.", "Q2": "No, the amount of cash at each node of the web may be different each time.", "Q3": "To get the highest total score.", "Q4": "Only before moving the spider.", "Q5": "10 seconds"}, "question_order": [0, 1, 2, 3, 4, 5], "correct": {"Q0": "The cost for clicking on nodes may vary between nodes.", "Q1": "The better I perform the higher my bonus will be.", "Q2": "No, the amount of cash at each node of the web may be different each time.", "Q3": "To get the highest total score.", "Q4": "Only before moving the spider.", "Q5": "3 seconds"}, "trial_id": "mouselab_quiz_control", "trial_type": "survey-multi-choice", "trial_index": 6, "time_elapsed": 991899, "internal_node_id": "0.0-2.0-4.0"}}, {"uniqueid": "w88697477:a78588502", "current_trial": 7, "dateTime": 1693482017127, "trialdata": {"success": true, "trial_type": "fullscreen", "trial_index": 7, "time_elapsed": 999075, "internal_node_id": "0.0-2.1-0.1-0.1"}}, {"uniqueid": "w88697477:a78588502", "current_trial": 8, "dateTime": 1693482115790, "trialdata": {"view_history": [{"page_index": 0, "viewing_time": 6877}, {"page_index": 1, "viewing_time": 86248}, {"page_index": 2, "viewing_time": 4248}, {"page_index": 3, "viewing_time": 1288}], "rt": 98662, "trial_id": "mouselab_instructions_1_control", "trial_type": "instructions", "trial_index": 8, "time_elapsed": 1097739, "internal_node_id": "0.0-2.1-1.1"}}, {"uniqueid": "w88697477:a78588502", "current_trial": 9, "dateTime": 1693482210303, "trialdata": {"revealed_states": [], "clicked_states": ["26", "27", "28", "25", "29", "24", "23", "31", "30", "33", "12", "13", "14", "19", "21", "1", "2", "3", "8", "11", "9", "4", "6", "7", "5", "10", "15", "16", "17", "18", "32", "22", "20"], "num_clicks_accrued": [0, 0, 0, 0, 0, 0, 0, 0, 0, 0, 0, 0, 0], "stateRewards": ["", -10, -10, 10, -10, 10, 10, 10, -10, 10, -10, 10, -10, -10, -10, -10, -10, -10, -10, -10, 10, -10, 10, -10, -10, 10, -10, 10, 10, -10, -10, -10, -10, 10], "withholdReward": false, "trial_id": "practice_1", "block": "test", "trialIndex": 2, "score": -23, "costs": -16.5, "simulationMode": [null, null, null, null, null], "rewards": [-10, -10, 10, -10, 10], "path": ["0", "0", "23", "24", "25", "26", "27"], "rt": [79183, 546, 337, 943, 484], "actions": ["left", "left", "left", "up", "up"], "actionTimes": [82415, 83463, 84302, 85742, 86718], "queries": {"click": {"state": {"target": ["26", "27", "28", "25", "29", "24", "23", "31", "30", "33", "12", "13", "14", "19", "21", "1", "2", "3", "8", "11", "9", "4", "6", "7", "5", "10", "15", "16", "17", "18", "32", "22", "20"], "time": [5961, 8952, 10425, 15672, 16778, 17897, 19130, 26209, 28168, 29456, 33393, 34520, 35632, 36746, 37881, 39392, 40793, 42073, 43850, 45314, 47123, 49225, 50250, 51513, 53619, 55171, 57971, 59521, 61123, 63785, 65265, 66529, 67801]}, "edge": {"target": [], "time": []}}, "mouseover": {"state": {"target": ["23", "24", "25", "26", "27", "28", "25", "29", "26", "28", "23", "24", "23", "25", "24", "25", "26", "26", "28", "27", "31", "30", "32", "30", "32", "33", "32", "32", "28", "23", "23", "0", "12", "13", "14", "19", "21", "13", "12", "12", "1", "2", "3", "10", "8", "11", "9", "3", "4", "1", "5", "4", "6", "6", "6", "13", "7", "5", "5", "4", "10", "10", "7", "18", "15", "17", "16", "16", "18", "17", "18", "13", "32", "22", "19", "20", "20", "19", "12", "22", "1"], "time": [4414, 4630, 4719, 5147, 8697, 9465, 14730, 16415, 17163, 17182, 17397, 17764, 18215, 20297, 22180, 22447, 23897, 24263, 24614, 25080, 25997, 26931, 27380, 27913, 28515, 29231, 29680, 29947, 31280, 31447, 31597, 32112, 33130, 33764, 34831, 36166, 37231, 38731, 38764, 38880, 39230, 39749, 41431, 42482, 43598, 44566, 45865, 47564, 48047, 48631, 48964, 49031, 49564, 49848, 50064, 50799, 51266, 52150, 53181, 53981, 54281, 54758, 56814, 57264, 57581, 58264, 58815, 59081, 59932, 60864, 61732, 64098, 65047, 66249, 66833, 66865, 66966, 68216, 68632, 71381, 71664]}, "edge": {"target": [], "time": []}}, "mouseout": {"state": {"target": ["23", "0", "0", "0", "23", "24", "25", "26", "27", "28", "27", "27", "28", "25", "29", "26", "28", "23", "24", "23", "24", "25", "24", "23", "23", "24", "24", "23", "23", "24", "25", "26", "26", "28", "27", "31", "30", "32", "30", "32", "33", "32", "32", "30", "28", "23", "23", "0", "12", "13", "14", "19", "21", "19", "14", "13", "12", "12", "1", "2", "3", "10", "8", "11", "9", "3", "4", "1", "5", "4", "6", "6", "6", "6", "13", "7", "4", "5", "4", "4", "5", "5", "4", "10", "10", "7", "18", "15", "17", "16", "16", "16", "18", "15", "17", "15", "18", "13", "32", "22", "19", "20", "20", "19", "22", "12", "22", "22", "1"], "time": [880, 1130, 2746, 4380, 4480, 4664, 4763, 8363, 9432, 11463, 11763, 12632, 14080, 16198, 17147, 17181, 17197, 17531, 18164, 19964, 20208, 20368, 20414, 20447, 20797, 20997, 21432, 21597, 22164, 22215, 23830, 24097, 24597, 24944, 25532, 26665, 27347, 27713, 28432, 28932, 29647, 29747, 31147, 31197, 31397, 31464, 31752, 32597, 33731, 34782, 35898, 36981, 38230, 38313, 38414, 38748, 38780, 38947, 39715, 41063, 42365, 43314, 44199, 45665, 47498, 47647, 48064, 48747, 48981, 49531, 49648, 49882, 50351, 50566, 51199, 51833, 51866, 52782, 52889, 53164, 53631, 53947, 53998, 54515, 55299, 56864, 57297, 58215, 58615, 58881, 59649, 59816, 60720, 60831, 61499, 61549, 64048, 64115, 65799, 66816, 66849, 66882, 68183, 68266, 68383, 69631, 70748, 71398, 71681]}, "edge": {"target": [], "time": []}}}, "displayed_time": "87.22", "trialTime": 94382, "trial_type": "mouselab-mdp", "trial_index": 9, "time_elapsed": 1192252, "internal_node_id": "0.0-2.1-2.1-0.1"}}, {"uniqueid": "w88697477:a78588502", "current_trial": 10, "dateTime": 1693482247967, "trialdata": {"revealed_states": [], "clicked_states": ["23", "24", "25", "26", "28", "27", "29"], "num_clicks_accrued": [0, 0, 0, 0, 0, 0, 0, 0, 0, 0, 0, 0, 0], "stateRewards": ["", -10, -10, 10, -10, 10, 10, -10, -10, 10, 10, 10, 10, -10, -10, 10, 10, 10, 10, -10, 10, -10, 10, 10, 10, -10, 10, 10, 10, -10, 10, -10, 10, 10], "withholdReward": false, "trial_id": "practice_2", "block": "test", "trialIndex": 3, "score": 30, "costs": -3.5, "simulationMode": [null, null, null, null, null], "rewards": [10, 10, -10, 10, 10], "path": ["0", "0", "23", "24", "25", "26", "28"], "rt": [25924, 298, 394, 861, 812], "actions": ["left", "left", "left", "up", "right"], "actionTimes": [29276, 30091, 31004, 32372, 33693], "queries": {"click": {"state": {"target": ["23", "24", "25", "26", "28", "27", "29"], "time": [4111, 7238, 8536, 11526, 13471, 15247, 16678]}, "edge": {"target": [], "time": []}}, "mouseover": {"state": {"target": ["0", "23", "24", "25", "26", "28", "27", "29", "25", "25", "31"], "time": [3702, 3826, 4544, 8230, 11242, 12010, 14625, 16425, 18025, 18393, 19625]}, "edge": {"target": [], "time": []}}, "mouseout": {"state": {"target": ["28", "0", "0", "23", "24", "25", "26", "28", "27", "29", "25", "25", "31"], "time": [2025, 2758, 3759, 4494, 7962, 11042, 11976, 14542, 16160, 17990, 18059, 19510, 20075]}, "edge": {"target": [], "time": []}}}, "displayed_time": "34.19", "trialTime": 37524, "trial_type": "mouselab-mdp", "trial_index": 10, "time_elapsed": 1229916, "internal_node_id": "0.0-2.1-2.1-1.1"}}, {"uniqueid": "w88697477:a78588502", "current_trial": 11, "dateTime": 1693482252126, "trialdata": {"view_history": [{"page_index": 0, "viewing_time": 2637}, {"page_index": 1, "viewing_time": 1520}], "rt": 4157, "trial_id": "mouselab_instructions_2_control", "trial_type": "instructions", "trial_index": 11, "time_elapsed": 1234075, "internal_node_id": "0.0-2.1-3.1"}}, {"uniqueid": "w88697477:a78588502", "current_trial": 12, "dateTime": 1693482302823, "trialdata": {"rt": 50695, "response": {"Q0": "There is no cost for clicking on nodes.", "Q1": "The better I perform the higher my bonus will be.", "Q2": "No, the amount of cash at each node of the web may be different each time.", "Q3": "To get the highest total score.", "Q4": "Only before moving the spider.", "Q5": "3 seconds"}, "question_order": [0, 1, 2, 3, 4, 5], "correct": {"Q0": "The cost for clicking on nodes may vary between nodes.", "Q1": "The better I perform the higher my bonus will be.", "Q2": "No, the amount of cash at each node of the web may be different each time.", "Q3": "To get the highest total score.", "Q4": "Only before moving the spider.", "Q5": "3 seconds"}, "trial_id": "mouselab_quiz_control", "trial_type": "survey-multi-choice", "trial_index": 12, "time_elapsed": 1284772, "internal_node_id": "0.0-2.1-4.1"}}, {"uniqueid": "w88697477:a78588502", "current_trial": 13, "dateTime": 1693482313431, "trialdata": {"success": true, "trial_type": "fullscreen", "trial_index": 13, "time_elapsed": 1295380, "internal_node_id": "0.0-2.2-0.2-0.2"}}, {"uniqueid": "w88697477:a78588502", "current_trial": 14, "dateTime": 1693482320934, "trialdata": {"view_history": [{"page_index": 0, "viewing_time": 3069}, {"page_index": 1, "viewing_time": 2152}, {"page_index": 2, "viewing_time": 1257}, {"page_index": 3, "viewing_time": 1024}], "rt": 7501, "trial_id": "mouselab_instructions_1_control", "trial_type": "instructions", "trial_index": 14, "time_elapsed": 1302883, "internal_node_id": "0.0-2.2-1.2"}}, {"uniqueid": "w88697477:a78588502", "current_trial": 15, "dateTime": 1693482352518, "trialdata": {"revealed_states": [], "clicked_states": ["23", "24", "25", "26", "27", "28", "29"], "num_clicks_accrued": [0, 0, 0, 0, 0, 0, 0, 0, 0, 0, 0, 0, 0], "stateRewards": ["", -10, -10, 10, -10, 10, 10, 10, -10, 10, -10, 10, -10, -10, -10, -10, -10, -10, -10, -10, 10, -10, 10, -10, -10, 10, -10, 10, 10, -10, -10, -10, -10, 10], "withholdReward": false, "trial_id": "practice_1", "block": "test", "trialIndex": 4, "score": -10, "costs": -3.5, "simulationMode": [null, null, null, null, null], "rewards": [-10, -10, 10, -10, 10], "path": ["0", "0", "23", "24", "25", "26", "28"], "rt": [23261, 354, 336, 471, 1377], "actions": ["left", "left", "left", "up", "right"], "actionTimes": [24587, 25433, 26282, 27266, 29138], "queries": {"click": {"state": {"target": ["23", "24", "25", "26", "27", "28", "29"], "time": [2029, 3533, 4677, 6789, 8693, 10260, 12861]}, "edge": {"target": [], "time": []}}, "mouseover": {"state": {"target": ["23", "24", "25", "26", "26", "27", "28", "28", "29", "24", "19", "14"], "time": [1792, 2510, 4127, 5344, 6560, 7395, 9227, 9444, 10644, 13760, 14126, 14292]}, "edge": {"target": [], "time": []}}, "mouseout": {"state": {"target": ["12", "0", "23", "24", "25", "26", "26", "27", "28", "28", "26", "29", "24", "19", "14"], "time": [692, 1759, 2377, 3827, 5044, 6342, 7061, 9027, 9277, 10577, 10611, 13577, 13777, 14259, 14309]}, "edge": {"target": [], "time": []}}}, "displayed_time": "29.63", "trialTime": 31425, "trial_type": "mouselab-mdp", "trial_index": 15, "time_elapsed": 1334467, "internal_node_id": "0.0-2.2-2.2-0.2"}}, {"uniqueid": "w88697477:a78588502", "current_trial": 16, "dateTime": 1693482383838, "trialdata": {"revealed_states": [], "clicked_states": ["23", "24", "25", "26", "27", "28"], "num_clicks_accrued": [0, 0, 0, 0, 0, 0, 0, 0, 0, 0, 0, 0, 0], "stateRewards": ["", -10, -10, 10, -10, 10, 10, -10, -10, 10, 10, 10, 10, -10, -10, 10, 10, 10, 10, -10, 10, -10, 10, 10, 10, -10, 10, 10, 10, -10, 10, -10, 10, 10], "withholdReward": false, "trial_id": "practice_2", "block": "test", "trialIndex": 5, "score": 30.5, "costs": -3, "simulationMode": [null, null, null, null, null], "rewards": [10, 10, -10, 10, 10], "path": ["0", "0", "23", "24", "25", "26", "28"], "rt": [22466, 300, 1230, 215, 628], "actions": ["left", "left", "left", "up", "right"], "actionTimes": [24184, 24983, 26711, 27415, 28543], "queries": {"click": {"state": {"target": ["23", "24", "25", "26", "27", "28"], "time": [2570, 4218, 5361, 7626, 9690, 10746]}, "edge": {"target": [], "time": []}}, "mouseover": {"state": {"target": ["23", "24", "25", "24", "25", "26", "27", "28", "28"], "time": [2215, 2898, 2948, 3181, 4581, 5880, 8198, 10032, 10298]}, "edge": {"target": [], "time": []}}, "mouseout": {"state": {"target": ["15", "18", "0", "0", "23", "24", "25", "24", "25", "26", "27", "28", "28"], "time": [1096, 1213, 1296, 1496, 2881, 2931, 3131, 4548, 5630, 8131, 10015, 10081, 10824]}, "edge": {"target": [], "time": []}}}, "displayed_time": "29.03", "trialTime": 31167, "trial_type": "mouselab-mdp", "trial_index": 16, "time_elapsed": 1365787, "internal_node_id": "0.0-2.2-2.2-1.2"}}, {"uniqueid": "w88697477:a78588502", "current_trial": 17, "dateTime": 1693482386854, "trialdata": {"view_history": [{"page_index": 0, "viewing_time": 2014}, {"page_index": 1, "viewing_time": 1000}], "rt": 3014, "trial_id": "mouselab_instructions_2_control", "trial_type": "instructions", "trial_index": 17, "time_elapsed": 1368803, "internal_node_id": "0.0-2.2-3.2"}}, {"uniqueid": "w88697477:a78588502", "current_trial": 18, "dateTime": 1693482430111, "trialdata": {"rt": 43254, "response": {"Q0": "The cost for clicking on nodes may vary between nodes.", "Q1": "The better I perform the higher my bonus will be.", "Q2": "Yes.", "Q3": "To get the highest total score.", "Q4": "Only before moving the spider.", "Q5": "3 seconds"}, "question_order": [0, 1, 2, 3, 4, 5], "correct": {"Q0": "The cost for clicking on nodes may vary between nodes.", "Q1": "The better I perform the higher my bonus will be.", "Q2": "No, the amount of cash at each node of the web may be different each time.", "Q3": "To get the highest total score.", "Q4": "Only before moving the spider.", "Q5": "3 seconds"}, "trial_id": "mouselab_quiz_control", "trial_type": "survey-multi-choice", "trial_index": 18, "time_elapsed": 1412060, "internal_node_id": "0.0-2.2-4.2"}}, {"uniqueid": "w88697477:a78588502", "current_trial": 19, "dateTime": 1693482434806, "trialdata": {"success": true, "trial_type": "fullscreen", "trial_index": 19, "time_elapsed": 1416755, "internal_node_id": "0.0-2.3-0.3-0.3"}}, {"uniqueid": "w88697477:a78588502", "current_trial": 20, "dateTime": 1693482441510, "trialdata": {"view_history": [{"page_index": 0, "viewing_time": 2399}, {"page_index": 1, "viewing_time": 2016}, {"page_index": 2, "viewing_time": 1400}, {"page_index": 3, "viewing_time": 888}], "rt": 6702, "trial_id": "mouselab_instructions_1_control", "trial_type": "instructions", "trial_index": 20, "time_elapsed": 1423459, "internal_node_id": "0.0-2.3-1.3"}}, {"uniqueid": "w88697477:a78588502", "current_trial": 21, "dateTime": 1693482468431, "trialdata": {"revealed_states": [], "clicked_states": ["23", "24", "25", "26", "28", "27"], "num_clicks_accrued": [0, 0, 0, 0, 0, 0, 0, 0, 0, 0, 0, 0, 0], "stateRewards": ["", -10, -10, 10, -10, 10, 10, 10, -10, 10, -10, 10, -10, -10, -10, -10, -10, -10, -10, -10, 10, -10, 10, -10, -10, 10, -10, 10, 10, -10, -10, -10, -10, 10], "withholdReward": false, "trial_id": "practice_1", "block": "test", "trialIndex": 6, "score": -9.5, "costs": -3, "simulationMode": [null, null, null, null, null], "rewards": [-10, -10, 10, -10, 10], "path": ["0", "0", "23", "24", "25", "26", "28"], "rt": [19974, 276, 292, 540, 387], "actions": ["left", "left", "left", "up", "right"], "actionTimes": [20982, 21773, 22558, 23605, 24502], "queries": {"click": {"state": {"target": ["23", "24", "25", "26", "28", "27"], "time": [1633, 2865, 4089, 5569, 7057, 8673]}, "edge": {"target": [], "time": []}}, "mouseover": {"state": {"target": ["23", "24", "25", "25", "26", "27", "28", "27", "10"], "time": [1446, 2131, 3152, 3963, 4346, 5981, 6647, 7615, 9064]}, "edge": {"target": [], "time": []}}, "mouseout": {"state": {"target": ["12", "0", "23", "23", "24", "25", "25", "26", "27", "28", "27", "10"], "time": [530, 796, 1727, 1831, 3114, 3581, 4207, 5666, 6481, 7381, 8998, 9081]}, "edge": {"target": [], "time": []}}}, "displayed_time": "25.02", "trialTime": 26758, "trial_type": "mouselab-mdp", "trial_index": 21, "time_elapsed": 1450379, "internal_node_id": "0.0-2.3-2.3-0.3"}}, {"uniqueid": "w88697477:a78588502", "current_trial": 22, "dateTime": 1693482505055, "trialdata": {"revealed_states": [], "clicked_states": ["23", "24", "25", "26", "28", "27"], "num_clicks_accrued": [0, 0, 0, 0, 0, 0, 0, 0, 0, 0, 0, 0, 0], "stateRewards": ["", -10, -10, 10, -10, 10, 10, -10, -10, 10, 10, 10, 10, -10, -10, 10, 10, 10, 10, -10, 10, -10, 10, 10, 10, -10, 10, 10, 10, -10, 10, -10, 10, 10], "withholdReward": false, "trial_id": "practice_2", "block": "test", "trialIndex": 7, "score": 30.5, "costs": -3, "simulationMode": [null, null, null, null, null], "rewards": [10, 10, -10, 10, 10], "path": ["0", "0", "23", "24", "25", "26", "28"], "rt": [29510, 129, 385, 245, 453], "actions": ["left", "left", "left", "up", "right"], "actionTimes": [31286, 31925, 32829, 33573, 34533], "queries": {"click": {"state": {"target": ["23", "24", "25", "26", "28", "27"], "time": [4089, 5128, 6704, 8832, 11248, 12794]}, "edge": {"target": [], "time": []}}, "mouseover": {"state": {"target": ["12", "18", "25", "25", "23", "24", "24", "25", "26", "27", "28", "27"], "time": [2310, 2983, 3177, 3394, 3628, 4344, 4911, 5445, 7078, 9145, 10430, 12062]}, "edge": {"target": [], "time": []}}, "mouseout": {"state": {"target": ["22", "0", "12", "18", "25", "25", "23", "24", "24", "25", "26", "27", "28"], "time": [1077, 1493, 2327, 3094, 3193, 3410, 4328, 4662, 5412, 6961, 9079, 10294, 11695]}, "edge": {"target": [], "time": []}}}, "displayed_time": "35.05", "trialTime": 36429, "trial_type": "mouselab-mdp", "trial_index": 22, "time_elapsed": 1487003, "internal_node_id": "0.0-2.3-2.3-1.3"}}, {"uniqueid": "w88697477:a78588502", "current_trial": 23, "dateTime": 1693482508350, "trialdata": {"view_history": [{"page_index": 0, "viewing_time": 2046}, {"page_index": 1, "viewing_time": 1248}], "rt": 3294, "trial_id": "mouselab_instructions_2_control", "trial_type": "instructions", "trial_index": 23, "time_elapsed": 1490299, "internal_node_id": "0.0-2.3-3.3"}}, {"uniqueid": "w88697477:a78588502", "current_trial": 24, "dateTime": 1693482561302, "trialdata": {"rt": 52950, "response": {"Q0": "The cost for clicking on nodes may vary between nodes.", "Q1": "The better I perform the higher my bonus will be.", "Q2": "No, the amount of cash at each node of the web may be different each time.", "Q3": "To get the highest total score.", "Q4": "Only before moving the spider.", "Q5": "3 seconds"}, "question_order": [0, 1, 2, 3, 4, 5], "correct": {"Q0": "The cost for clicking on nodes may vary between nodes.", "Q1": "The better I perform the higher my bonus will be.", "Q2": "No, the amount of cash at each node of the web may be different each time.", "Q3": "To get the highest total score.", "Q4": "Only before moving the spider.", "Q5": "3 seconds"}, "trial_id": "mouselab_quiz_control", "trial_type": "survey-multi-choice", "trial_index": 24, "time_elapsed": 1543251, "internal_node_id": "0.0-2.3-4.3"}}, {"uniqueid": "w88697477:a78588502", "current_trial": 25, "dateTime": 1693482571798, "trialdata": {"rt": 10491, "response": {"Q0": "No"}, "question_order": [0], "trial_id": "repeat_check", "trial_type": "survey-multi-choice", "trial_index": 25, "time_elapsed": 1553747, "internal_node_id": "0.0-4.0-0.0"}}, {"uniqueid": "w88697477:a78588502", "current_trial": 26, "dateTime": 1693482573943, "trialdata": {"rt": 2140, "stimulus": "\n<h1> Get ready to start the game! </h1>\n\nThank you for reading the instructions. Get ready start with the 40 rounds of this game.\n<br><br>\nIf you need to take a break, feel free to take one after the end of a round, before continuing to the next one.\n<br><br>\nRemember, the more money the spider gets, the bigger your bonus will be!\n<br><br>\n<div style='text-align: center;'>Press <code>space</code> to begin.</div>\n\n<br><br>\n(If, at any point, the <code>space</code> key does not take you to the next page, click once on the text and try again.)", "response": " ", "trial_id": "mdp_ready", "trial_type": "html-keyboard-response", "trial_index": 26, "time_elapsed": 1555891, "internal_node_id": "0.0-6.0-0.0"}}, {"uniqueid": "w88697477:a78588502", "current_trial": 27, "dateTime": 1693482599983, "trialdata": {"revealed_states": [], "clicked_states": ["12", "13", "14", "15", "18", "16"], "num_clicks_accrued": [0, 0, 0, 0, 0, 0, 0, 0, 0, 0, 0, 0, 0], "stateRewards": ["", 1, -4, -4, 8, 1, -79, 68, -10, -79, 8, -74, -1, -3, -6, 14, 43, 23, 9, 5, -51, 63, 61, -2, 4, 6, -10, 69, -32, 57, 15, -80, -80, -77], "withholdReward": false, "trial_id": "mdp_trial_1", "block": "test", "trialIndex": 8, "score": 38.6, "costs": -8.4, "simulationMode": [null, null, null, null, null], "rewards": [-1, -3, -6, 14, 43], "path": ["0", "0", "12", "13", "14", "15", "16"], "rt": [17658, 275, 254, 744, 470], "actions": ["right", "right", "right", "up", "up"], "actionTimes": [19734, 20501, 21245, 22485, 23445], "queries": {"click": {"state": {"target": ["12", "13", "14", "15", "18", "16"], "time": [2817, 5080, 7016, 9104, 11647, 13456]}, "edge": {"target": [], "time": []}}, "mouseover": {"state": {"target": ["12", "13", "13", "14", "13", "13", "13", "14", "15", "18", "16", "17", "20"], "time": [2695, 3055, 3156, 3706, 4255, 4622, 4823, 5357, 7607, 9490, 12257, 15406, 15839]}, "edge": {"target": [], "time": []}}, "mouseout": {"state": {"target": ["1", "22", "0", "12", "12", "13", "13", "14", "13", "13", "13", "14", "15", "18", "16", "17", "20"], "time": [1263, 1522, 2287, 2942, 3039, 3106, 3689, 4222, 4422, 4689, 5341, 7374, 9473, 11991, 15390, 15439, 16873]}, "edge": {"target": [], "time": []}}}, "displayed_time": "23.94", "trialTime": 25869, "trial_type": "mouselab-mdp", "trial_index": 27, "time_elapsed": 1581932, "internal_node_id": "0.0-6.0-1.0-0.0"}}, {"uniqueid": "w88697477:a78588502", "current_trial": 28, "dateTime": 1693482635879, "trialdata": {"revealed_states": [], "clicked_states": ["1", "2", "3", "4", "5", "23", "24", "25", "26", "27"], "num_clicks_accrued": [0, 0, 0, 0, 0, 0, 0, 0, 0, 0, 0, 0, 0], "stateRewards": ["", -1, 2, -2, 13, -56, -28, 10, 14, 53, -80, -29, 1, -3, -3, -14, 14, 9, -40, -9, 18, 18, 48, 1, 1, 1, -9, 64, -39, -9, 7, -52, -78, 7], "withholdReward": false, "trial_id": "mdp_trial_2", "block": "test", "trialIndex": 9, "score": 44, "costs": -14.000000000000002, "simulationMode": [null, null, null, null, null], "rewards": [1, 1, 1, -9, 64], "path": ["0", "0", "23", "24", "25", "26", "27"], "rt": [27084, 274, 674, 299, 299], "actions": ["left", "left", "left", "up", "up"], "actionTimes": [29751, 30528, 31696, 32504, 33303], "queries": {"click": {"state": {"target": ["1", "2", "3", "4", "5", "23", "24", "25", "26", "27"], "time": [4482, 6146, 8074, 10250, 12946, 14530, 16474, 18482, 21706, 23921]}, "edge": {"target": [], "time": []}}, "mouseover": {"state": {"target": ["23", "1", "2", "3", "4", "7", "5", "7", "23", "24", "25", "26", "28", "26", "29", "29", "26", "26", "27", "28", "23", "22", "12", "13", "14"], "time": [3569, 4336, 5019, 6737, 9004, 10705, 12503, 13554, 13771, 15087, 16987, 18921, 20569, 20653, 20686, 20752, 21119, 21219, 22123, 24370, 24404, 24587, 24937, 26802, 26836]}, "edge": {"target": [], "time": []}}, "mouseout": {"state": {"target": ["14", "12", "0", "0", "23", "1", "2", "3", "4", "7", "4", "5", "7", "23", "23", "24", "25", "26", "28", "26", "29", "29", "26", "26", "27", "28", "23", "22", "12", "13", "14"], "time": [1669, 1902, 2019, 3536, 3636, 4802, 6504, 8954, 10673, 12353, 12436, 13521, 13587, 14609, 14970, 16837, 18820, 20536, 20637, 20669, 20703, 20920, 21169, 22087, 24337, 24387, 24420, 24637, 26786, 26819, 26869]}, "edge": {"target": [], "time": []}}}, "displayed_time": "33.80", "trialTime": 35695, "trial_type": "mouselab-mdp", "trial_index": 28, "time_elapsed": 1617827, "internal_node_id": "0.0-6.0-1.0-1.0"}}, {"uniqueid": "w88697477:a78588502", "current_trial": 29, "dateTime": 1693482670183, "trialdata": {"revealed_states": [], "clicked_states": ["12", "13", "14", "19", "21", "23", "24", "25", "30", "32"], "num_clicks_accrued": [0, 0, 0, 0, 0, 0, 0, 0, 0, 0, 0, 0, 0], "stateRewards": ["", 1, 1, -2, 7, -31, -6, 76, 1, -36, -16, -53, 2, 1, 7, 13, -47, -10, 47, -7, 72, 46, -56, -2, -2, -2, 11, -80, 44, 38, 16, 67, 85, -78], "withholdReward": false, "trial_id": "mdp_trial_3", "block": "test", "trialIndex": 10, "score": 81, "costs": -14.000000000000002, "simulationMode": [null, null, null, null, null], "rewards": [-2, -2, -2, 16, 85], "path": ["0", "0", "23", "24", "25", "30", "32"], "rt": [25754, 237, 248, 603, 53], "actions": ["left", "left", "left", "down", "down"], "actionTimes": [27548, 28284, 29027, 30132, 30700], "queries": {"click": {"state": {"target": ["12", "13", "14", "19", "21", "23", "24", "25", "30", "32"], "time": [3103, 5039, 6806, 9399, 10951, 13798, 15502, 17742, 20231, 22502]}, "edge": {"target": [], "time": []}}, "mouseover": {"state": {"target": ["12", "12", "13", "14", "19", "21", "19", "21", "22", "31", "23", "24", "24", "24", "25", "25", "25", "30", "30", "32", "1", "18"], "time": [2411, 2861, 3429, 5395, 7178, 8694, 9227, 9712, 13027, 13227, 13395, 14495, 14728, 14995, 15895, 16129, 17527, 18079, 19911, 20563, 24911, 24944]}, "edge": {"target": [], "time": []}}, "mouseout": {"state": {"target": ["15", "0", "12", "12", "13", "14", "19", "21", "19", "21", "19", "22", "31", "23", "24", "24", "24", "25", "25", "25", "30", "30", "32", "1"], "time": [927, 1894, 2428, 3396, 5362, 7144, 8628, 9077, 9678, 12429, 12996, 13061, 13261, 14478, 14546, 14779, 15878, 15928, 17427, 18014, 19760, 20528, 22829, 24927]}, "edge": {"target": [], "time": []}}}, "displayed_time": "31.20", "trialTime": 34124, "trial_type": "mouselab-mdp", "trial_index": 29, "time_elapsed": 1652132, "internal_node_id": "0.0-6.0-1.0-2.0"}}, {"uniqueid": "w88697477:a78588502", "current_trial": 30, "dateTime": 1693482701207, "trialdata": {"revealed_states": [], "clicked_states": ["23", "25", "24", "26", "27"], "num_clicks_accrued": [0, 0, 0, 0, 0, 0, 0, 0, 0, 0, 0, 0, 0], "stateRewards": ["", -2, 2, -4, -4, -59, 88, 62, -3, 69, -15, -34, 1, -2, -5, 7, -54, -20, 78, -16, -74, -53, -21, 2, -4, 2, 13, -8, -44, 26, 9, 72, 4, 17], "withholdReward": false, "trial_id": "mdp_trial_4", "block": "test", "trialIndex": 11, "score": -60, "costs": -7, "simulationMode": [null, null, null, null, null], "rewards": [1, -2, -5, 7, -54], "path": ["0", "0", "12", "13", "14", "15", "16"], "rt": [21595, 271, 328, 415, 61], "actions": ["right", "right", "right", "up", "up"], "actionTimes": [25408, 26168, 27008, 27912, 28489], "queries": {"click": {"state": {"target": ["23", "25", "24", "26", "27"], "time": [5571, 8586, 10795, 12995, 15418]}, "edge": {"target": [], "time": []}}, "mouseover": {"state": {"target": ["1", "23", "23", "23", "24", "25", "25", "24", "24", "26", "27", "25", "30", "31", "13", "12", "0", "23", "23", "0", "23", "24", "30", "31", "0", "22", "17"], "time": [4794, 5027, 5228, 5328, 5946, 7794, 8144, 8878, 9179, 11195, 13628, 16045, 16112, 17777, 17894, 18161, 18395, 18544, 18712, 19010, 19894, 19944, 20311, 23161, 23427, 25144, 25162]}, "edge": {"target": [], "time": []}}, "mouseout": {"state": {"target": ["18", "31", "31", "12", "23", "0", "0", "1", "23", "23", "23", "24", "25", "25", "24", "23", "24", "26", "27", "26", "25", "30", "31", "13", "12", "0", "23", "23", "0", "23", "24", "30", "31", "0", "22", "17"], "time": [894, 2862, 3094, 3227, 3460, 3527, 4330, 4977, 5044, 5277, 5912, 7777, 7928, 8862, 8895, 8962, 10916, 13512, 15829, 15945, 16079, 16262, 17794, 17944, 18210, 18527, 18577, 18744, 19045, 19929, 20077, 23114, 23177, 23961, 25161, 25177]}, "edge": {"target": [], "time": []}}}, "displayed_time": "28.98", "trialTime": 30848, "trial_type": "mouselab-mdp", "trial_index": 30, "time_elapsed": 1683156, "internal_node_id": "0.0-6.0-1.0-3.0"}}, {"uniqueid": "w88697477:a78588502", "current_trial": 31, "dateTime": 1693482801263, "trialdata": {"revealed_states": [], "clicked_states": [], "num_clicks_accrued": [0, 0, 0, 0, 0, 0, 0, 0, 0, 0, 0, 0, 0], "stateRewards": ["", 1, -3, -4, -11, -56, 61, -47, -16, -28, -9, 69, -2, -3, -4, -8, 40, -86, 59, -4, 80, 27, 54, -1, 3, -1, 8, 67, 23, 50, 6, 83, -43, -29], "withholdReward": false, "trial_id": "mdp_trial_5", "block": "test", "trialIndex": 12, "score": -50, "costs": 0, "simulationMode": [null, null, null, null, null], "rewards": [1, -3, -4, -16, -28], "path": ["0", "0", "1", "2", "3", "8", "9"], "rt": [86356, 80, 20, 1294, 1631], "actions": ["up", "up", "up", "left", "up"], "actionTimes": [90477, 91059, 91596, 93387, 95508], "queries": {"click": {"state": {"target": [], "time": []}, "edge": {"target": [], "time": []}}, "mouseover": {"state": {"target": ["1", "7", "2", "2"], "time": [4508, 5006, 5308, 5825]}, "edge": {"target": [], "time": []}}, "mouseout": {"state": {"target": ["0", "23", "0", "1", "7", "2", "2"], "time": [2874, 3691, 4445, 4557, 5041, 5391, 5957]}, "edge": {"target": [], "time": []}}}, "displayed_time": "96.01", "trialTime": 99884, "trial_type": "mouselab-mdp", "trial_index": 31, "time_elapsed": 1783212, "internal_node_id": "0.0-6.0-1.0-4.0"}}, {"uniqueid": "w88697477:a78588502", "current_trial": 32, "dateTime": 1693482867495, "trialdata": {"revealed_states": [], "clicked_states": ["12", "13", "14", "15", "16", "23", "24", "25", "26", "27", "30", "32", "19", "21", "20", "17", "1", "2", "3", "9", "4", "5", "8", "11", "6"], "num_clicks_accrued": [0, 0, 0, 0, 0, 0, 0, 0, 0, 0, 0, 0, 0], "stateRewards": ["", 2, -1, -1, 7, 11, -40, -22, -2, 69, 37, 8, -2, 4, -8, -12, -2, -72, -3, -12, 17, 63, 12, 1, 3, -7, 6, 25, 61, 61, -9, 28, -17, 27], "withholdReward": false, "trial_id": "mdp_trial_6", "block": "test", "trialIndex": 13, "score": 32.000000000000014, "costs": -34.999999999999986, "simulationMode": [null, null, null, null, null], "rewards": [2, -1, -1, -2, 69], "path": ["0", "0", "1", "2", "3", "8", "9"], "rt": [58434, 69, 246, 399, 500], "actions": ["up", "up", "up", "left", "up"], "actionTimes": [60534, 61101, 61861, 62765, 63781], "queries": {"click": {"state": {"target": ["12", "13", "14", "15", "16", "23", "24", "25", "26", "27", "30", "32", "19", "21", "20", "17", "1", "2", "3", "9", "4", "5", "8", "11", "6"], "time": [3648, 5280, 6792, 8746, 10823, 12503, 14104, 16712, 19441, 21559, 23231, 26079, 28127, 29743, 32183, 34392, 36583, 38791, 40815, 42865, 44840, 47423, 49642, 51687, 55424]}, "edge": {"target": [], "time": []}}, "mouseover": {"state": {"target": ["18", "13", "12", "0", "12", "12", "13", "14", "15", "16", "18", "0", "23", "24", "25", "26", "25", "26", "27", "26", "27", "25", "32", "30", "32", "21", "21", "19", "21", "20", "20", "15", "17", "1", "1", "2", "3", "8", "11", "8", "9", "4", "5", "6", "8", "11", "3", "4", "18", "12", "0", "7", "6", "20"], "time": [2546, 2679, 2980, 3079, 3279, 3513, 3981, 5798, 7198, 9064, 11214, 11497, 11880, 12864, 14530, 16146, 16529, 17216, 18729, 19213, 19730, 21947, 22297, 22430, 23897, 26814, 26881, 27247, 28948, 30631, 31230, 33929, 34097, 36163, 36380, 37348, 39198, 41297, 41348, 41648, 42513, 44315, 45281, 48814, 49463, 51430, 52581, 52616, 53697, 53813, 53930, 54731, 55030, 56415]}, "edge": {"target": [], "time": []}}, "mouseout": {"state": {"target": ["0", "18", "13", "12", "0", "12", "12", "12", "13", "14", "15", "16", "18", "0", "23", "24", "25", "26", "25", "26", "27", "26", "27", "26", "25", "32", "30", "32", "21", "21", "19", "21", "20", "20", "15", "17", "17", "1", "1", "2", "3", "8", "11", "8", "9", "4", "5", "6", "8", "11", "11", "8", "3", "4", "18", "12", "0", "7", "6", "20"], "time": [2503, 2597, 2763, 2996, 3263, 3296, 3743, 3897, 5664, 7148, 8998, 11164, 11235, 11514, 12831, 14497, 15929, 16271, 16999, 18048, 19114, 19447, 21863, 21897, 22014, 22381, 23631, 26398, 26831, 26964, 28914, 30330, 31047, 33264, 34046, 34494, 35830, 36263, 37081, 39131, 41281, 41314, 41464, 42479, 43648, 45198, 47814, 48932, 49783, 51750, 52480, 52547, 52614, 52631, 53713, 53896, 54546, 54831, 56364, 56431]}, "edge": {"target": [], "time": []}}}, "displayed_time": "64.28", "trialTime": 66021, "trial_type": "mouselab-mdp", "trial_index": 32, "time_elapsed": 1849444, "internal_node_id": "0.0-6.0-1.0-5.0"}}, {"uniqueid": "w88697477:a78588502", "current_trial": 33, "dateTime": 1693482907366, "trialdata": {"revealed_states": [], "clicked_states": ["23", "25", "27", "9", "5", "17", "20", "21", "22", "32", "19", "14", "12"], "num_clicks_accrued": [0, 0, 0, 0, 0, 0, 0, 0, 0, 0, 0, 0, 0], "stateRewards": ["", 1, 3, 1, -13, 52, -28, 67, -14, 3, 63, -70, -1, -4, 7, -11, -10, 47, -18, 6, 69, -9, -61, 2, 3, -6, 10, 63, -34, 40, -6, -79, -35, -32], "withholdReward": false, "trial_id": "mdp_trial_7", "block": "test", "trialIndex": 14, "score": 58.8, "costs": -18.2, "simulationMode": [null, null, null, null, null], "rewards": [-1, -4, 7, 6, 69], "path": ["0", "0", "12", "13", "14", "19", "20"], "rt": [32550, 153, 258, 394, 493], "actions": ["right", "right", "right", "down", "right"], "actionTimes": [34302, 34949, 35733, 36621, 37605], "queries": {"click": {"state": {"target": ["23", "25", "27", "9", "5", "17", "20", "21", "22", "32", "19", "14", "12"], "time": [2856, 5000, 7105, 9353, 11281, 13313, 15225, 17129, 18752, 21513, 24225, 27025, 29314]}, "edge": {"target": [], "time": []}}, "mouseover": {"state": {"target": ["0", "0", "23", "24", "24", "25", "26", "27", "28", "28", "11", "9", "5", "6", "16", "17", "20", "21", "22", "32", "32", "32", "30", "31", "22", "19", "19", "14", "14", "13", "14", "13", "12", "12", "13"], "time": [2090, 2258, 2664, 3324, 3607, 4423, 5691, 6607, 7793, 8807, 8940, 9140, 10124, 11759, 11808, 12208, 14725, 16091, 18125, 20840, 21090, 21340, 23740, 23758, 23790, 23808, 23873, 24742, 26607, 26673, 26823, 27392, 28210, 29007, 29658]}, "edge": {"target": [], "time": []}}, "mouseout": {"state": {"target": ["19", "22", "0", "0", "0", "23", "24", "24", "25", "26", "27", "28", "28", "11", "9", "5", "6", "16", "17", "20", "21", "22", "32", "32", "32", "30", "31", "22", "19", "19", "14", "14", "13", "14", "14", "13", "12", "12", "13", "14"], "time": [1157, 1190, 1908, 2125, 2423, 3307, 3541, 4257, 5575, 6458, 7659, 7809, 8840, 8957, 9471, 11742, 11775, 11825, 14641, 15775, 17641, 20557, 20857, 21107, 22942, 23757, 23774, 23807, 23824, 24525, 25492, 26640, 26707, 27146, 27359, 28185, 28474, 29424, 29742, 29783]}, "edge": {"target": [], "time": []}}}, "displayed_time": "38.11", "trialTime": 39669, "trial_type": "mouselab-mdp", "trial_index": 33, "time_elapsed": 1889315, "internal_node_id": "0.0-6.0-1.0-6.0"}}, {"uniqueid": "w88697477:a78588502", "current_trial": 34, "dateTime": 1693482943319, "trialdata": {"revealed_states": [], "clicked_states": ["21", "17", "20", "18", "16", "5", "9", "29", "11", "32", "33", "31"], "num_clicks_accrued": [0, 0, 0, 0, 0, 0, 0, 0, 0, 0, 0, 0, 0], "stateRewards": ["", -1, -4, -6, -15, 21, -67, -63, 9, 51, 69, -14, -1, 3, 8, -8, 39, 72, 63, 15, 19, 47, 15, 1, 4, 5, 16, -18, 34, 35, -14, -80, 40, 1], "withholdReward": false, "trial_id": "mdp_trial_8", "block": "test", "trialIndex": 15, "score": 57.2, "costs": -16.8, "simulationMode": [null, null, null, null, null], "rewards": [-1, 3, 8, -8, 72], "path": ["0", "0", "12", "13", "14", "15", "17"], "rt": [29184, 126, 160, 460, 173], "actions": ["right", "right", "right", "up", "right"], "actionTimes": [30797, 31420, 32084, 33036, 33700], "queries": {"click": {"state": {"target": ["21", "17", "20", "18", "16", "5", "9", "29", "11", "32", "33", "31"], "time": [2496, 4376, 6344, 8224, 10072, 12183, 14032, 16119, 18024, 19976, 22239, 24311]}, "edge": {"target": [], "time": []}}, "mouseover": {"state": {"target": ["12", "20", "21", "17", "20", "20", "19", "18", "15", "16", "4", "5", "9", "8", "10", "28", "26", "29", "29", "27", "11", "24", "31", "30", "32", "32", "33", "30", "31", "25", "1", "12", "12", "22"], "time": [1938, 1988, 2288, 3264, 4925, 5140, 7389, 7921, 9123, 9326, 11721, 11921, 13273, 14657, 14676, 14874, 14925, 14992, 15307, 16474, 16758, 18740, 18839, 19106, 19223, 19556, 20924, 22607, 22641, 26471, 26805, 27155, 27305, 27488]}, "edge": {"target": [], "time": []}}, "mouseout": {"state": {"target": ["14", "13", "12", "0", "12", "20", "21", "17", "20", "20", "19", "18", "15", "16", "16", "4", "5", "9", "8", "10", "28", "26", "29", "29", "27", "11", "24", "31", "30", "32", "32", "33", "30", "31", "25", "1", "12", "12", "22"], "time": [920, 953, 1020, 1921, 1955, 2038, 2905, 4841, 4941, 7340, 7656, 9089, 9172, 11190, 11589, 11822, 12756, 14640, 14674, 14690, 14907, 14980, 15024, 16441, 16490, 18607, 18820, 18906, 19174, 19289, 20357, 22590, 22624, 26155, 26738, 26822, 27188, 27421, 27522]}, "edge": {"target": [], "time": []}}}, "displayed_time": "34.19", "trialTime": 35652, "trial_type": "mouselab-mdp", "trial_index": 34, "time_elapsed": 1925267, "internal_node_id": "0.0-6.0-1.0-7.0"}}, {"uniqueid": "w88697477:a78588502", "current_trial": 35, "dateTime": 1693482986790, "trialdata": {"revealed_states": [], "clicked_states": ["5", "9", "11", "27", "29", "33", "32", "31", "21", "20", "22", "14", "17", "16", "18"], "num_clicks_accrued": [0, 0, 0, 0, 0, 0, 0, 0, 0, 0, 0, 0, 0], "stateRewards": ["", -1, 2, 6, 11, 21, -21, -21, -6, 48, -71, 88, -1, -3, 3, 7, 64, 2, 9, -4, 37, -67, 72, 2, 2, -8, -8, -10, 71, -40, -3, 73, 80, 47], "withholdReward": false, "trial_id": "mdp_trial_9", "block": "test", "trialIndex": 16, "score": 68, "costs": -20.999999999999996, "simulationMode": [null, null, null, null, null], "rewards": [-1, 2, 6, -6, 88], "path": ["0", "0", "1", "2", "3", "8", "11"], "rt": [36875, 44, 95, 503, 46], "actions": ["up", "up", "up", "left", "left"], "actionTimes": [38526, 39061, 39693, 40685, 41229], "queries": {"click": {"state": {"target": ["5", "9", "11", "27", "29", "33", "32", "31", "21", "20", "22", "14", "17", "16", "18"], "time": [2481, 6162, 8073, 10890, 13226, 15257, 17257, 19306, 21753, 23729, 25506, 27545, 29360, 31625, 33473]}, "edge": {"target": [], "time": []}}, "mouseover": {"state": {"target": ["7", "4", "5", "9", "9", "9", "11", "9", "9", "11", "27", "29", "33", "32", "31", "31", "21", "20", "19", "22", "13", "14", "14", "17", "16", "18", "15", "12", "12", "13"], "time": [1980, 2082, 2297, 2815, 3082, 3315, 5463, 5797, 5880, 6698, 10264, 12984, 14897, 16715, 17815, 18032, 21097, 22628, 24082, 24115, 26415, 26731, 26831, 28084, 30050, 32932, 35262, 35930, 36147, 36496]}, "edge": {"target": [], "time": []}}, "mouseout": {"state": {"target": ["0", "7", "4", "5", "9", "9", "9", "11", "9", "9", "9", "11", "27", "29", "33", "32", "31", "31", "21", "20", "19", "22", "13", "14", "14", "17", "16", "18", "15", "12", "12", "13"], "time": [1763, 2047, 2163, 2764, 2834, 3099, 5247, 5563, 5847, 6253, 6515, 10014, 12680, 14665, 16232, 17713, 17833, 19392, 22298, 24066, 24099, 26114, 26698, 26774, 27850, 29949, 32865, 35130, 35329, 36012, 36463, 36529]}, "edge": {"target": [], "time": []}}}, "displayed_time": "41.73", "trialTime": 43165, "trial_type": "mouselab-mdp", "trial_index": 35, "time_elapsed": 1968739, "internal_node_id": "0.0-6.0-1.0-8.0"}}, {"uniqueid": "w88697477:a78588502", "current_trial": 36, "dateTime": 1693483028999, "trialdata": {"revealed_states": [], "clicked_states": ["9", "11", "5", "6", "16", "17", "20", "21", "22", "25", "28", "27", "29", "33", "32"], "num_clicks_accrued": [0, 0, 0, 0, 0, 0, 0, 0, 0, 0, 0, 0, 0], "stateRewards": ["", -1, 1, 8, -3, -24, 11, -65, -6, -77, 48, 44, -2, 1, -2, -7, -55, -35, 33, 8, -28, 19, -53, -1, -1, -5, -5, -70, 10, 44, 8, -58, -70, 51], "withholdReward": false, "trial_id": "mdp_trial_10", "block": "test", "trialIndex": 17, "score": 31.000000000000004, "costs": -20.999999999999996, "simulationMode": [null, null, null, null, null], "rewards": [-1, -1, -5, 8, 51], "path": ["0", "0", "23", "24", "25", "30", "33"], "rt": [33740, 1234, 231, 603, 285], "actions": ["left", "left", "left", "down", "left"], "actionTimes": [35552, 37304, 38032, 39137, 39920], "queries": {"click": {"state": {"target": ["9", "11", "5", "6", "16", "17", "20", "21", "22", "25", "28", "27", "29", "33", "32"], "time": [3059, 4675, 6690, 8578, 10371, 12218, 13906, 15747, 17579, 21154, 22907, 24787, 26779, 28642, 30586]}, "edge": {"target": [], "time": []}}, "mouseover": {"state": {"target": ["23", "0", "1", "2", "8", "9", "11", "11", "8", "11", "11", "8", "3", "5", "6", "16", "17", "20", "21", "22", "13", "14", "13", "12", "0", "23", "24", "25", "25", "24", "25", "26", "28", "27", "29", "30", "33", "30", "32", "21"], "time": [1817, 2305, 2432, 2550, 2617, 2866, 3701, 3967, 4001, 4185, 4502, 5805, 6085, 6399, 8266, 9601, 11051, 12968, 14801, 16386, 17917, 19149, 19217, 19466, 19722, 20016, 20216, 20234, 20716, 20783, 20916, 21534, 21601, 23334, 25368, 27367, 27634, 29017, 29451, 32732]}, "edge": {"target": [], "time": []}}, "mouseout": {"state": {"target": ["14", "13", "12", "0", "0", "23", "0", "1", "2", "8", "9", "11", "11", "8", "11", "11", "8", "3", "5", "6", "16", "17", "20", "21", "22", "13", "14", "13", "12", "0", "23", "24", "25", "25", "24", "25", "26", "28", "27", "29", "29", "30", "33", "30", "32", "21"], "time": [1099, 1132, 1283, 1366, 1549, 1837, 2317, 2533, 2584, 2799, 3667, 3717, 3998, 4169, 4202, 5803, 5824, 6118, 7916, 9316, 10817, 12634, 14534, 16102, 17866, 18917, 19199, 19266, 19499, 19816, 20183, 20233, 20249, 20733, 20816, 21251, 21568, 23034, 25218, 26890, 27117, 27500, 28968, 29084, 32433, 32866]}, "edge": {"target": [], "time": []}}}, "displayed_time": "40.42", "trialTime": 41944, "trial_type": "mouselab-mdp", "trial_index": 36, "time_elapsed": 2010948, "internal_node_id": "0.0-6.0-1.0-9.0"}}, {"uniqueid": "w88697477:a78588502", "current_trial": 37, "dateTime": 1693483068751, "trialdata": {"revealed_states": [], "clicked_states": ["27", "9", "5", "6", "17", "20", "21", "22", "32", "31", "33", "29", "28"], "num_clicks_accrued": [0, 0, 0, 0, 0, 0, 0, 0, 0, 0, 0, 0, 0], "stateRewards": ["", -1, -4, -1, -11, 43, 69, 39, 4, 17, -20, -82, -2, -1, 4, 8, -79, 24, -79, 11, 36, 64, 41, 2, 4, -1, 11, -79, -47, 75, -3, 63, -36, -19], "withholdReward": false, "trial_id": "mdp_trial_11", "block": "test", "trialIndex": 18, "score": 72.8, "costs": -18.2, "simulationMode": [null, null, null, null, null], "rewards": [2, 4, -1, 11, 75], "path": ["0", "0", "23", "24", "25", "26", "29"], "rt": [31996, 89, 336, 575, 325], "actions": ["left", "left", "left", "up", "left"], "actionTimes": [34108, 34699, 35531, 36603, 37420], "queries": {"click": {"state": {"target": ["27", "9", "5", "6", "17", "20", "21", "22", "32", "31", "33", "29", "28"], "time": [3758, 5614, 7575, 9494, 12430, 14806, 17062, 19014, 21286, 23222, 25046, 27334, 29134]}, "edge": {"target": [], "time": []}}, "mouseover": {"state": {"target": ["1", "26", "27", "27", "8", "9", "5", "5", "6", "6", "16", "17", "17", "20", "20", "21", "21", "22", "32", "31", "30", "33", "29", "29", "26", "28"], "time": [2660, 3109, 3342, 3459, 4263, 4478, 6227, 6546, 8928, 9045, 11342, 11560, 12159, 14426, 14559, 16609, 16859, 17877, 21009, 22876, 23627, 24510, 26876, 27076, 27844, 28027]}, "edge": {"target": [], "time": []}}, "mouseout": {"state": {"target": ["30", "13", "12", "1", "26", "27", "27", "8", "9", "5", "5", "6", "6", "16", "17", "17", "20", "20", "21", "21", "22", "32", "31", "30", "33", "29", "29", "26", "28"], "time": [1225, 1525, 1676, 2676, 3159, 3359, 4212, 4295, 6127, 6244, 8894, 8980, 11309, 11476, 11925, 14259, 14443, 16542, 16642, 17743, 20676, 22560, 23609, 23644, 26625, 26909, 27827, 27894, 30997]}, "edge": {"target": [], "time": []}}}, "displayed_time": "37.91", "trialTime": 39555, "trial_type": "mouselab-mdp", "trial_index": 37, "time_elapsed": 2050700, "internal_node_id": "0.0-6.0-1.0-10.0"}}, {"uniqueid": "w88697477:a78588502", "current_trial": 38, "dateTime": 1693483109055, "trialdata": {"revealed_states": [], "clicked_states": ["5", "9", "11", "6", "16", "17", "20", "21", "22", "32", "33", "31", "29", "27", "28"], "num_clicks_accrued": [0, 0, 0, 0, 0, 0, 0, 0, 0, 0, 0, 0, 0], "stateRewards": ["", 1, -4, -6, -1, -21, 17, -72, 10, 77, 67, -46, -1, 4, -2, 14, -66, -49, -45, -15, -52, 23, -67, 2, -2, -2, 15, -3, 45, -64, 5, -44, 83, 61], "withholdReward": false, "trial_id": "mdp_trial_12", "block": "test", "trialIndex": 19, "score": 65, "costs": -20.999999999999996, "simulationMode": [null, null, null, null, null], "rewards": [2, -2, -2, 5, 83], "path": ["0", "0", "23", "24", "25", "30", "32"], "rt": [33439, 67, 53, 821, 32], "actions": ["left", "left", "left", "down", "down"], "actionTimes": [35503, 36071, 36640, 37960, 38487], "queries": {"click": {"state": {"target": ["5", "9", "11", "6", "16", "17", "20", "21", "22", "32", "33", "31", "29", "27", "28"], "time": [3890, 6586, 8538, 11010, 13130, 14994, 16826, 18762, 20570, 22146, 23730, 25594, 27378, 28938, 30698]}, "edge": {"target": [], "time": []}}, "mouseover": {"state": {"target": ["18", "3", "4", "3", "8", "5", "9", "9", "11", "11", "8", "3", "4", "6", "6", "15", "16", "17", "20", "21", "22", "32", "32", "33", "30", "31", "25", "29", "27", "28", "24"], "time": [2621, 3070, 3103, 3186, 3220, 3736, 4221, 4554, 7521, 7771, 9804, 9854, 9991, 10253, 10821, 12354, 12736, 13637, 16071, 17316, 19221, 21321, 21537, 22621, 24220, 24455, 26088, 26288, 27988, 29421, 32270]}, "edge": {"target": [], "time": []}}, "mouseout": {"state": {"target": ["18", "13", "0", "18", "3", "4", "3", "8", "5", "9", "9", "11", "11", "8", "3", "4", "6", "6", "15", "16", "16", "17", "20", "21", "22", "32", "32", "33", "30", "31", "25", "29", "27", "28", "24"], "time": [1169, 1186, 2602, 2637, 3087, 3169, 3203, 3270, 4171, 4271, 7471, 7570, 8648, 9838, 9954, 10220, 10305, 12105, 12371, 13249, 13471, 15804, 17221, 19154, 21038, 21404, 22538, 24170, 24253, 25989, 26204, 27754, 29371, 32254, 32337]}, "edge": {"target": [], "time": []}}}, "displayed_time": "39.00", "trialTime": 40103, "trial_type": "mouselab-mdp", "trial_index": 38, "time_elapsed": 2091004, "internal_node_id": "0.0-6.0-1.0-11.0"}}, {"uniqueid": "w88697477:a78588502", "current_trial": 39, "dateTime": 1693483152919, "trialdata": {"revealed_states": [], "clicked_states": ["17", "16", "5", "9", "27", "11", "29", "33", "32", "28", "31", "21", "22", "18", "20"], "num_clicks_accrued": [0, 0, 0, 0, 0, 0, 0, 0, 0, 0, 0, 0, 0], "stateRewards": ["", 2, 2, 3, -15, 23, -14, 73, -7, -32, -20, -6, 1, 1, -5, -12, 73, 6, -84, 11, -81, -57, 13, -2, -1, -4, -8, -52, -58, 49, 13, 5, -41, -41], "withholdReward": false, "trial_id": "mdp_trial_13", "block": "test", "trialIndex": 20, "score": 37, "costs": -20.999999999999996, "simulationMode": [null, null, null, null, null], "rewards": [1, 1, -5, -12, 73], "path": ["0", "0", "12", "13", "14", "15", "16"], "rt": [36358, 2, 16, 284, 1102], "actions": ["right", "right", "right", "up", "up"], "actionTimes": [37896, 38415, 38943, 39728, 41343], "queries": {"click": {"state": {"target": ["17", "16", "5", "9", "27", "11", "29", "33", "32", "28", "31", "21", "22", "18", "20"], "time": [4314, 5836, 8018, 9842, 11626, 13266, 15138, 16970, 18810, 20650, 22411, 25610, 27419, 31242, 32922]}, "edge": {"target": [], "time": []}}, "mouseover": {"state": {"target": ["17", "15", "16", "6", "5", "9", "9", "11", "27", "27", "27", "11", "29", "33", "30", "32", "30", "25", "28", "24", "31", "21", "22", "19", "20", "18", "20"], "time": [4142, 5027, 5276, 7209, 7441, 8792, 9377, 10810, 10943, 11209, 11409, 12092, 14692, 16392, 17359, 17609, 19026, 19077, 19209, 21109, 21409, 23259, 26009, 28042, 28075, 30641, 32193]}, "edge": {"target": [], "time": []}}, "mouseout": {"state": {"target": ["0", "17", "15", "16", "6", "5", "9", "9", "11", "27", "27", "27", "11", "27", "29", "29", "33", "30", "32", "30", "25", "28", "24", "31", "21", "22", "19", "20", "18", "20"], "time": [3482, 5026, 5109, 7159, 7226, 8742, 8943, 10709, 10859, 11092, 11259, 11729, 14309, 14410, 15265, 16058, 17342, 17543, 18993, 19042, 19143, 21076, 21326, 22859, 25712, 28025, 28059, 30441, 31675, 34193]}, "edge": {"target": [], "time": []}}}, "displayed_time": "41.84", "trialTime": 43655, "trial_type": "mouselab-mdp", "trial_index": 39, "time_elapsed": 2134867, "internal_node_id": "0.0-6.0-1.0-12.0"}}, {"uniqueid": "w88697477:a78588502", "current_trial": 40, "dateTime": 1693483190807, "trialdata": {"revealed_states": [], "clicked_states": ["5", "6", "9", "27", "29", "33", "32", "31", "21", "22", "20", "17", "16", "18"], "num_clicks_accrued": [0, 0, 0, 0, 0, 0, 0, 0, 0, 0, 0, 0, 0], "stateRewards": ["", -2, 3, -5, -7, 66, 43, -60, -4, -70, -75, 4, -1, 2, 2, -13, 54, 11, -40, -1, 77, 32, 15, -2, 3, -8, -9, -35, 83, -27, 6, -74, -34, 44], "withholdReward": false, "trial_id": "mdp_trial_14", "block": "test", "trialIndex": 21, "score": 59.400000000000006, "costs": -19.599999999999998, "simulationMode": [null, null, null, null, null], "rewards": [-1, 2, 2, -1, 77], "path": ["0", "0", "12", "13", "14", "19", "20"], "rt": [30673, 826, 237, 687, 258], "actions": ["right", "right", "right", "down", "right"], "actionTimes": [31928, 33256, 33984, 35167, 35921], "queries": {"click": {"state": {"target": ["5", "6", "9", "27", "29", "33", "32", "31", "21", "22", "20", "17", "16", "18"], "time": [2211, 4659, 6298, 8202, 10034, 11771, 13306, 15091, 16634, 18530, 20436, 22235, 24082, 25739]}, "edge": {"target": [], "time": []}}, "mouseover": {"state": {"target": ["0", "1", "7", "5", "6", "4", "3", "9", "9", "27", "29", "33", "32", "31", "31", "21", "22", "19", "20", "17", "16", "16", "18", "12", "12", "13", "14", "20"], "time": [1445, 1713, 1761, 2044, 2601, 4997, 5046, 5347, 5580, 7813, 9562, 10862, 12246, 13899, 14113, 16195, 17596, 18846, 18913, 21113, 23113, 23746, 24629, 27594, 27811, 28295, 28561, 28628]}, "edge": {"target": [], "time": []}}, "mouseout": {"state": {"target": ["19", "0", "0", "1", "7", "5", "5", "6", "4", "3", "9", "9", "27", "27", "29", "33", "32", "31", "31", "21", "22", "19", "20", "17", "16", "16", "18", "12", "12", "13", "14", "20"], "time": [661, 977, 1682, 1728, 1778, 2318, 2529, 4980, 5013, 5297, 5380, 7063, 8305, 9146, 10446, 12063, 13862, 13921, 15496, 17229, 18796, 18862, 20901, 22862, 23563, 24546, 27578, 27611, 28112, 28345, 28578, 28645]}, "edge": {"target": [], "time": []}}}, "displayed_time": "36.41", "trialTime": 37680, "trial_type": "mouselab-mdp", "trial_index": 40, "time_elapsed": 2172756, "internal_node_id": "0.0-6.0-1.0-13.0"}}, {"uniqueid": "w88697477:a78588502", "current_trial": 41, "dateTime": 1693483238679, "trialdata": {"revealed_states": [], "clicked_states": ["5", "6", "17", "16", "20", "21", "22", "31", "32", "33", "29", "27", "28", "11", "10", "9"], "num_clicks_accrued": [0, 0, 0, 0, 0, 0, 0, 0, 0, 0, 0, 0, 0], "stateRewards": ["", 1, 3, 3, -10, 52, 68, 59, 12, 7, 49, 21, -2, -3, -4, -2, -2, 63, 63, -4, 44, 43, -76, -2, -3, -6, 13, 48, 36, 12, -5, -36, -33, -11], "withholdReward": false, "trial_id": "mdp_trial_15", "block": "test", "trialIndex": 22, "score": 42.60000000000001, "costs": -22.399999999999995, "simulationMode": [null, null, null, null, null], "rewards": [1, 3, 3, -10, 68], "path": ["0", "0", "1", "2", "3", "4", "6"], "rt": [38787, 88, 283, 412, 943], "actions": ["up", "up", "up", "right", "right"], "actionTimes": [40632, 41215, 42007, 42919, 44352], "queries": {"click": {"state": {"target": ["5", "6", "17", "16", "20", "21", "22", "31", "32", "33", "29", "27", "28", "11", "10", "9"], "time": [2994, 4617, 6394, 8522, 10418, 11977, 13857, 15649, 17505, 19460, 21306, 23330, 25082, 28395, 30186, 31978]}, "edge": {"target": [], "time": []}}, "mouseover": {"state": {"target": ["1", "23", "24", "2", "3", "4", "5", "6", "16", "17", "16", "20", "20", "21", "22", "32", "31", "32", "33", "29", "27", "27", "28", "2", "7", "6", "11", "11", "10", "8", "9", "9"], "time": [2339, 2439, 2489, 2572, 2689, 2722, 2789, 3807, 5157, 5506, 6757, 8889, 9991, 11323, 12756, 14690, 14874, 16974, 19057, 20707, 22607, 23123, 24741, 27273, 27323, 27473, 28177, 28265, 28840, 30573, 30673, 31375]}, "edge": {"target": [], "time": []}}, "mouseout": {"state": {"target": ["12", "0", "1", "23", "24", "2", "3", "4", "5", "5", "6", "16", "17", "16", "20", "20", "21", "22", "22", "32", "31", "31", "32", "33", "29", "27", "27", "28", "2", "7", "6", "11", "11", "10", "8", "9", "9"], "time": [1189, 1890, 2423, 2456, 2505, 2656, 2705, 2739, 3104, 3361, 5090, 5190, 6528, 8790, 8906, 11173, 12705, 13994, 14424, 14724, 15692, 16644, 17543, 20307, 21841, 22873, 24023, 27106, 27289, 27356, 27793, 28223, 28773, 30457, 30640, 30960, 32044]}, "edge": {"target": [], "time": []}}}, "displayed_time": "44.84", "trialTime": 47663, "trial_type": "mouselab-mdp", "trial_index": 41, "time_elapsed": 2220628, "internal_node_id": "0.0-6.0-1.0-14.0"}}, {"uniqueid": "w88697477:a78588502", "current_trial": 42, "dateTime": 1693483257879, "trialdata": {"revealed_states": [], "clicked_states": ["5", "6"], "num_clicks_accrued": [0, 0, 0, 0, 0, 0, 0, 0, 0, 0, 0, 0, 0], "stateRewards": ["", -1, 1, -2, 5, 73, 15, 61, 8, 7, 38, 76, 2, 2, -4, -6, -6, -26, 43, -5, -45, -85, -35, -2, 1, -4, 15, -10, 69, 72, -11, 84, -49, -38], "withholdReward": false, "trial_id": "mdp_trial_16", "block": "test", "trialIndex": 23, "score": 73.2, "costs": -2.8, "simulationMode": [null, null, null, null, null], "rewards": [-1, 1, -2, 5, 73], "path": ["0", "0", "1", "2", "3", "4", "5"], "rt": [5975, 38, 138, 517, 757], "actions": ["up", "up", "up", "right", "up"], "actionTimes": [7828, 8360, 9009, 10041, 11296], "queries": {"click": {"state": {"target": ["5", "6"], "time": [3196, 4859]}, "edge": {"target": [], "time": []}}, "mouseover": {"state": {"target": ["7", "4", "5", "6", "16", "17"], "time": [2553, 2688, 2786, 4021, 6437, 6487]}, "edge": {"target": [], "time": []}}, "mouseout": {"state": {"target": ["28", "23", "0", "0", "7", "4", "5", "6", "16", "17"], "time": [1070, 1137, 1337, 2058, 2586, 2753, 3922, 6403, 6453, 6520]}, "edge": {"target": [], "time": []}}}, "displayed_time": "15.86", "trialTime": 18960, "trial_type": "mouselab-mdp", "trial_index": 42, "time_elapsed": 2239828, "internal_node_id": "0.0-6.0-1.0-15.0"}}, {"uniqueid": "w88697477:a78588502", "current_trial": 43, "dateTime": 1693483276535, "trialdata": {"revealed_states": [], "clicked_states": ["5", "9", "27"], "num_clicks_accrued": [0, 0, 0, 0, 0, 0, 0, 0, 0, 0, 0, 0, 0], "stateRewards": ["", 2, -3, -2, 14, -4, 85, 46, 15, -28, 41, 31, -1, -1, -1, 5, 62, 79, 57, 12, -73, -64, 86, -1, 1, -3, -5, 68, 11, -32, 8, -80, -21, -56], "withholdReward": false, "trial_id": "mdp_trial_17", "block": "test", "trialIndex": 24, "score": 55.8, "costs": -4.199999999999999, "simulationMode": [null, null, null, null, null], "rewards": [-1, 1, -3, -5, 68], "path": ["0", "0", "23", "24", "25", "26", "27"], "rt": [11279, 55, 332, 346, 519], "actions": ["left", "left", "left", "up", "up"], "actionTimes": [12923, 13482, 14322, 15170, 16178], "queries": {"click": {"state": {"target": ["5", "9", "27"], "time": [2549, 5365, 8029]}, "edge": {"target": [], "time": []}}, "mouseover": {"state": {"target": ["12", "6", "5", "17", "6", "4", "3", "9", "29", "29", "27", "11", "11", "27", "27"], "time": [2040, 2106, 2389, 4539, 4740, 4806, 4873, 5172, 5857, 7256, 7274, 7291, 7539, 7557, 7856]}, "edge": {"target": [], "time": []}}, "mouseout": {"state": {"target": ["13", "12", "0", "12", "6", "5", "17", "6", "4", "3", "9", "29", "29", "27", "11", "9", "11", "27", "27"], "time": [1222, 1256, 2039, 2056, 2123, 3141, 4556, 4756, 4857, 4890, 5674, 5874, 7273, 7290, 7306, 7490, 7556, 7589, 10473]}, "edge": {"target": [], "time": []}}}, "displayed_time": "16.68", "trialTime": 18402, "trial_type": "mouselab-mdp", "trial_index": 43, "time_elapsed": 2258484, "internal_node_id": "0.0-6.0-1.0-16.0"}}, {"uniqueid": "w88697477:a78588502", "current_trial": 44, "dateTime": 1693483294311, "trialdata": {"revealed_states": [], "clicked_states": ["21"], "num_clicks_accrued": [0, 0, 0, 0, 0, 0, 0, 0, 0, 0, 0, 0, 0], "stateRewards": ["", -2, 1, -5, 2, -68, 80, 33, 10, 67, -59, 20, -1, -3, 3, 14, 74, -2, 24, -16, 63, 80, 46, -1, 4, 6, 12, 83, -38, -43, -4, 43, 14, -79], "withholdReward": false, "trial_id": "mdp_trial_18", "block": "test", "trialIndex": 25, "score": 61.6, "costs": -1.4, "simulationMode": [null, null, null, null, null], "rewards": [-1, -3, 3, -16, 80], "path": ["0", "0", "12", "13", "14", "19", "21"], "rt": [6508, 154, 240, 435, 669], "actions": ["right", "right", "right", "down", "down"], "actionTimes": [8671, 9318, 10054, 10982, 12167], "queries": {"click": {"state": {"target": ["21"], "time": [3817]}, "edge": {"target": [], "time": []}}, "mouseover": {"state": {"target": ["22", "21", "19", "14", "15", "16", "16"], "time": [3345, 3595, 4746, 4781, 4797, 4830, 5800]}, "edge": {"target": [], "time": []}}, "mouseout": {"state": {"target": ["19", "13", "12", "0", "23", "22", "21", "19", "14", "15", "16", "16"], "time": [1511, 1578, 1628, 1662, 1745, 3396, 4663, 4780, 4796, 4813, 4930, 5829]}, "edge": {"target": [], "time": []}}}, "displayed_time": "16.16", "trialTime": 17534, "trial_type": "mouselab-mdp", "trial_index": 44, "time_elapsed": 2276260, "internal_node_id": "0.0-6.0-1.0-17.0"}}, {"uniqueid": "w88697477:a78588502", "current_trial": 45, "dateTime": 1693483312208, "trialdata": {"revealed_states": [], "clicked_states": ["32"], "num_clicks_accrued": [0, 0, 0, 0, 0, 0, 0, 0, 0, 0, 0, 0, 0], "stateRewards": ["", -1, -1, 4, -16, -75, 81, -51, -7, -84, 73, -30, -2, 1, -3, -16, -77, 33, 14, 1, 45, 87, -66, 2, 2, -5, -7, -19, -17, 79, -3, 8, 49, 47], "withholdReward": false, "trial_id": "mdp_trial_19", "block": "test", "trialIndex": 26, "score": 43.6, "costs": -1.4, "simulationMode": [null, null, null, null, null], "rewards": [2, 2, -5, -3, 49], "path": ["0", "0", "23", "24", "25", "30", "32"], "rt": [7587, 168, 221, 577, 302], "actions": ["left", "left", "left", "down", "down"], "actionTimes": [9345, 10001, 10721, 11793, 12586], "queries": {"click": {"state": {"target": ["32"], "time": [3403]}, "edge": {"target": [], "time": []}}, "mouseover": {"state": {"target": ["23", "30", "32", "30", "26", "27", "2"], "time": [2581, 2798, 2947, 5614, 5831, 5998, 7649]}, "edge": {"target": [], "time": []}}, "mouseout": {"state": {"target": ["23", "0", "23", "30", "32", "30", "26", "27", "2"], "time": [1164, 2547, 2714, 2831, 5570, 5647, 5931, 7598, 7665]}, "edge": {"target": [], "time": []}}}, "displayed_time": "15.76", "trialTime": 17649, "trial_type": "mouselab-mdp", "trial_index": 45, "time_elapsed": 2294156, "internal_node_id": "0.0-6.0-1.0-18.0"}}, {"uniqueid": "w88697477:a78588502", "current_trial": 46, "dateTime": 1693483329279, "trialdata": {"revealed_states": [], "clicked_states": ["27"], "num_clicks_accrued": [0, 0, 0, 0, 0, 0, 0, 0, 0, 0, 0, 0, 0], "stateRewards": ["", 1, -2, -3, 14, -42, -87, -37, -11, -50, 33, -44, -2, 4, -7, 13, 48, -75, -66, 12, 23, -2, 82, 1, -4, 3, 12, 51, -15, -26, -11, -52, -29, 82], "withholdReward": false, "trial_id": "mdp_trial_20", "block": "test", "trialIndex": 27, "score": 61.6, "costs": -1.4, "simulationMode": [null, null, null, null, null], "rewards": [1, -4, 3, 12, 51], "path": ["0", "0", "23", "24", "25", "26", "27"], "rt": [7208, 227, 309, 525, 132], "actions": ["left", "left", "left", "up", "up"], "actionTimes": [8782, 9510, 10310, 11350, 11982], "queries": {"click": {"state": {"target": ["27"], "time": [2609]}, "edge": {"target": [], "time": []}}, "mouseover": {"state": {"target": ["26", "29", "27", "10"], "time": [2100, 2116, 2349, 5084]}, "edge": {"target": [], "time": []}}, "mouseout": {"state": {"target": ["16", "18", "12", "0", "26", "29", "27", "10"], "time": [1015, 1081, 1132, 1281, 2115, 2132, 5083, 5098]}, "edge": {"target": [], "time": []}}}, "displayed_time": "15.57", "trialTime": 16822, "trial_type": "mouselab-mdp", "trial_index": 46, "time_elapsed": 2311228, "internal_node_id": "0.0-6.0-1.0-19.0"}}, {"uniqueid": "w88697477:a78588502", "current_trial": 47, "dateTime": 1693483347192, "trialdata": {"revealed_states": [], "clicked_states": ["17"], "num_clicks_accrued": [0, 0, 0, 0, 0, 0, 0, 0, 0, 0, 0, 0, 0], "stateRewards": ["", -1, 1, -1, 2, 19, 85, -18, 2, -3, -26, 36, 2, 4, 7, -9, -18, 70, 72, -5, 35, -20, -28, 1, -2, -4, -3, -59, -11, -63, -2, -72, 59, -69], "withholdReward": false, "trial_id": "mdp_trial_21", "block": "test", "trialIndex": 28, "score": 72.6, "costs": -1.4, "simulationMode": [null, null, null, null, null], "rewards": [2, 4, 7, -9, 70], "path": ["0", "0", "12", "13", "14", "15", "17"], "rt": [6443, 345, 263, 439, 170], "actions": ["right", "right", "right", "up", "right"], "actionTimes": [8933, 9773, 10541, 11500, 12165], "queries": {"click": {"state": {"target": ["17"], "time": [3768]}, "edge": {"target": [], "time": []}}, "mouseover": {"state": {"target": ["17", "17"], "time": [3126, 3592]}, "edge": {"target": [], "time": []}}, "mouseout": {"state": {"target": ["13", "12", "12", "0", "17", "17"], "time": [1525, 1591, 1808, 1858, 3142, 4560]}, "edge": {"target": [], "time": []}}}, "displayed_time": "16.49", "trialTime": 17661, "trial_type": "mouselab-mdp", "trial_index": 47, "time_elapsed": 2329140, "internal_node_id": "0.0-6.0-1.0-20.0"}}, {"uniqueid": "w88697477:a78588502", "current_trial": 48, "dateTime": 1693483364159, "trialdata": {"revealed_states": [], "clicked_states": ["5", "9"], "num_clicks_accrued": [0, 0, 0, 0, 0, 0, 0, 0, 0, 0, 0, 0, 0], "stateRewards": ["", -2, -3, 1, -14, 48, -49, 67, -1, -35, -48, 3, -2, 1, -4, -5, 86, -84, 39, 1, 48, 41, -42, -1, -4, 2, -7, 18, -86, 17, 7, -9, 57, -69], "withholdReward": false, "trial_id": "mdp_trial_22", "block": "test", "trialIndex": 29, "score": 27.2, "costs": -2.8, "simulationMode": [null, null, null, null, null], "rewards": [-2, -3, 1, -14, 48], "path": ["0", "0", "1", "2", "3", "4", "5"], "rt": [9444, 94, 152, 300, 212], "actions": ["up", "up", "up", "right", "up"], "actionTimes": [10993, 11583, 12224, 13040, 13751], "queries": {"click": {"state": {"target": ["5", "9"], "time": [2731, 5834]}, "edge": {"target": [], "time": []}}, "mouseover": {"state": {"target": ["7", "5", "11", "11", "8", "9"], "time": [2202, 2552, 4886, 5369, 5386, 5653]}, "edge": {"target": [], "time": []}}, "mouseout": {"state": {"target": ["23", "0", "7", "5", "11", "11", "8", "9"], "time": [1002, 2102, 2385, 2842, 4902, 5385, 5402, 8041]}, "edge": {"target": [], "time": []}}}, "displayed_time": "15.55", "trialTime": 16656, "trial_type": "mouselab-mdp", "trial_index": 48, "time_elapsed": 2346108, "internal_node_id": "0.0-6.0-1.0-21.0"}}, {"uniqueid": "w88697477:a78588502", "current_trial": 49, "dateTime": 1693483381888, "trialdata": {"revealed_states": [], "clicked_states": [], "num_clicks_accrued": [0, 0, 0, 0, 0, 0, 0, 0, 0, 0, 0, 0, 0], "stateRewards": ["", -2, -1, -5, 10, -36, -70, 68, -9, 86, 71, -10, 2, -4, 7, -7, 66, 44, -66, -13, -69, 43, 15, -2, 2, 6, -13, 62, 57, 50, -10, -69, 42, -72], "withholdReward": false, "trial_id": "mdp_trial_23", "block": "test", "trialIndex": 30, "score": 64, "costs": 0, "simulationMode": [null, null, null, null, null], "rewards": [2, -4, 7, -7, 66], "path": ["0", "0", "12", "13", "14", "15", "16"], "rt": [7516, 712, 286, 273, 193], "actions": ["right", "right", "right", "up", "up"], "actionTimes": [9467, 10682, 11475, 12243, 12930], "queries": {"click": {"state": {"target": [], "time": []}, "edge": {"target": [], "time": []}}, "mouseover": {"state": {"target": ["23", "32"], "time": [3002, 5351]}, "edge": {"target": [], "time": []}}, "mouseout": {"state": {"target": ["17", "15", "13", "12", "24", "23", "0", "0", "23", "32"], "time": [851, 901, 968, 984, 1234, 1451, 1484, 2685, 3141, 6934]}, "edge": {"target": [], "time": []}}}, "displayed_time": "15.95", "trialTime": 17483, "trial_type": "mouselab-mdp", "trial_index": 49, "time_elapsed": 2363836, "internal_node_id": "0.0-6.0-1.0-22.0"}}, {"uniqueid": "w88697477:a78588502", "current_trial": 50, "dateTime": 1693483399071, "trialdata": {"revealed_states": [], "clicked_states": ["27"], "num_clicks_accrued": [0, 0, 0, 0, 0, 0, 0, 0, 0, 0, 0, 0, 0], "stateRewards": ["", 2, -1, 5, 6, 10, 86, 55, 10, -45, 63, -71, 1, -2, 5, -8, -50, -72, 36, 15, 61, 12, 33, -1, -4, 6, 5, 79, -56, -21, -16, -87, 60, -81], "withholdReward": false, "trial_id": "mdp_trial_24", "block": "test", "trialIndex": 31, "score": 83.6, "costs": -1.4, "simulationMode": [null, null, null, null, null], "rewards": [-1, -4, 6, 5, 79], "path": ["0", "0", "23", "24", "25", "26", "27"], "rt": [6734, 77, 198, 403, 159], "actions": ["left", "left", "left", "up", "up"], "actionTimes": [8418, 8985, 9690, 10594, 11250], "queries": {"click": {"state": {"target": ["27"], "time": [3213]}, "edge": {"target": [], "time": []}}, "mouseover": {"state": {"target": ["23", "24", "25", "26", "27"], "time": [1972, 2006, 2039, 2806, 3011]}, "edge": {"target": [], "time": []}}, "mouseout": {"state": {"target": ["21", "0", "23", "24", "25", "26", "27"], "time": [789, 1956, 1989, 2022, 2256, 2840, 5289]}, "edge": {"target": [], "time": []}}}, "displayed_time": "15.69", "trialTime": 16937, "trial_type": "mouselab-mdp", "trial_index": 50, "time_elapsed": 2381020, "internal_node_id": "0.0-6.0-1.0-23.0"}}, {"uniqueid": "w88697477:a78588502", "current_trial": 51, "dateTime": 1693483420423, "trialdata": {"revealed_states": [], "clicked_states": ["6", "11", "27", "32"], "num_clicks_accrued": [0, 0, 0, 0, 0, 0, 0, 0, 0, 0, 0, 0, 0], "stateRewards": ["", 2, 3, 8, 14, 69, -27, 17, 2, -71, -65, -10, 2, -3, 7, 8, 65, -10, 65, -12, 73, -12, 13, -2, -2, 6, 10, -79, -69, -18, 10, -85, 67, 74], "withholdReward": false, "trial_id": "mdp_trial_25", "block": "test", "trialIndex": 32, "score": 73.4, "costs": -5.6, "simulationMode": [null, null, null, null, null], "rewards": [-2, -2, 6, 10, 67], "path": ["0", "0", "23", "24", "25", "30", "32"], "rt": [14131, 229, 75, 563, 265], "actions": ["left", "left", "left", "down", "down"], "actionTimes": [15985, 16704, 17281, 18337, 19104], "queries": {"click": {"state": {"target": ["6", "11", "27", "32"], "time": [3323, 5507, 8027, 10460]}, "edge": {"target": [], "time": []}}, "mouseover": {"state": {"target": ["0", "15", "16", "6", "4", "3", "8", "11", "27", "24", "32", "21"], "time": [2338, 2755, 2872, 3005, 4489, 4555, 4638, 4722, 7805, 8639, 10339, 12371]}, "edge": {"target": [], "time": []}}, "mouseout": {"state": {"target": ["13", "13", "12", "0", "0", "15", "16", "6", "4", "3", "8", "11", "27", "24", "32", "21"], "time": [1021, 1171, 1239, 2075, 2372, 2855, 2922, 4472, 4538, 4605, 4689, 7489, 8573, 8657, 11156, 12421]}, "edge": {"target": [], "time": []}}}, "displayed_time": "19.62", "trialTime": 21088, "trial_type": "mouselab-mdp", "trial_index": 51, "time_elapsed": 2402372, "internal_node_id": "0.0-6.0-1.0-24.0"}}, {"uniqueid": "w88697477:a78588502", "current_trial": 52, "dateTime": 1693483454519, "trialdata": {"revealed_states": [], "clicked_states": ["21", "17", "5", "32", "33", "29", "27", "11", "16", "22"], "num_clicks_accrued": [0, 0, 0, 0, 0, 0, 0, 0, 0, 0, 0, 0, 0], "stateRewards": ["", 2, 3, -1, 16, -78, -11, 46, 2, -20, 79, -67, 2, 3, 2, 11, -83, -42, -58, -11, -67, -22, 55, 2, -1, -1, -16, -83, -82, 23, -11, -29, 13, 13], "withholdReward": false, "trial_id": "mdp_trial_26", "block": "test", "trialIndex": 33, "score": 37, "costs": -14.000000000000002, "simulationMode": [null, null, null, null, null], "rewards": [2, 3, 2, -11, 55], "path": ["0", "0", "12", "13", "14", "19", "22"], "rt": [27491, 14, 67, 516, 226], "actions": ["right", "right", "right", "down", "left"], "actionTimes": [29200, 29704, 30304, 31320, 32063], "queries": {"click": {"state": {"target": ["21", "17", "5", "32", "33", "29", "27", "11", "16", "22"], "time": [2866, 5179, 7499, 10354, 12546, 15139, 17115, 19466, 22019, 24266]}, "edge": {"target": [], "time": []}}, "mouseover": {"state": {"target": ["21", "15", "17", "16", "16", "6", "4", "5", "3", "10", "33", "32", "33", "25", "29", "27", "11", "8", "3", "4", "6", "16", "15", "13", "22", "19", "20"], "time": [2536, 4736, 5036, 6787, 6870, 7019, 7069, 7269, 9421, 9437, 9619, 9886, 12252, 14436, 14986, 16786, 19153, 21321, 21337, 21354, 21386, 21737, 23438, 23522, 23587, 24786, 24820]}, "edge": {"target": [], "time": []}}, "mouseout": {"state": {"target": ["22", "23", "0", "21", "15", "17", "16", "16", "6", "4", "5", "3", "10", "33", "32", "33", "25", "29", "27", "11", "8", "3", "4", "6", "16", "16", "15", "13", "22", "19", "20"], "time": [1002, 1053, 2202, 4188, 4769, 6504, 6819, 6886, 7052, 7086, 9420, 9436, 9453, 9636, 11587, 12953, 14536, 15264, 18986, 21320, 21336, 21353, 21369, 21487, 22172, 23404, 23456, 23555, 24385, 24804, 26452]}, "edge": {"target": [], "time": []}}}, "displayed_time": "32.56", "trialTime": 33815, "trial_type": "mouselab-mdp", "trial_index": 52, "time_elapsed": 2436468, "internal_node_id": "0.0-6.0-1.0-25.0"}}, {"uniqueid": "w88697477:a78588502", "current_trial": 53, "dateTime": 1693483476128, "trialdata": {"revealed_states": [], "clicked_states": ["9", "5", "32", "29", "20"], "num_clicks_accrued": [0, 0, 0, 0, 0, 0, 0, 0, 0, 0, 0, 0, 0], "stateRewards": ["", 1, 1, 5, 6, -29, -7, 3, -16, 9, -46, 65, -1, 4, -1, -16, -63, -77, -87, 8, 80, -50, 43, -1, -1, -5, 5, -38, -71, -62, 9, 81, -50, -52], "withholdReward": false, "trial_id": "mdp_trial_27", "block": "test", "trialIndex": 34, "score": 83, "costs": -7, "simulationMode": [null, null, null, null, null], "rewards": [-1, 4, -1, 8, 80], "path": ["0", "0", "12", "13", "14", "19", "20"], "rt": [14331, 195, 150, 577, 275], "actions": ["right", "right", "right", "down", "right"], "actionTimes": [16216, 16904, 17560, 18655, 19432], "queries": {"click": {"state": {"target": ["9", "5", "32", "29", "20"], "time": [3011, 5018, 7210, 9067, 11108]}, "edge": {"target": [], "time": []}}, "mouseover": {"state": {"target": ["3", "8", "9", "5", "5", "6", "16", "17", "14", "22", "32", "25", "29", "26", "28", "1", "13", "22", "22", "19", "20", "17", "17"], "time": [2540, 2690, 2790, 3475, 3575, 5473, 5506, 5540, 6408, 6529, 7040, 8191, 8274, 9591, 9724, 9809, 10058, 10124, 10341, 10424, 10840, 11525, 11808]}, "edge": {"target": [], "time": []}}, "mouseout": {"state": {"target": ["32", "13", "18", "0", "0", "3", "8", "9", "5", "5", "6", "16", "17", "14", "22", "32", "25", "29", "26", "28", "1", "13", "22", "22", "19", "20", "17", "17"], "time": [789, 856, 990, 1290, 2157, 2624, 2757, 3128, 3508, 5457, 5490, 5523, 5557, 6425, 6541, 7774, 8225, 9557, 9691, 9758, 9861, 10091, 10208, 10374, 10723, 11246, 11558, 13457]}, "edge": {"target": [], "time": []}}}, "displayed_time": "19.93", "trialTime": 21328, "trial_type": "mouselab-mdp", "trial_index": 53, "time_elapsed": 2458076, "internal_node_id": "0.0-6.0-1.0-26.0"}}, {"uniqueid": "w88697477:a78588502", "current_trial": 54, "dateTime": 1693483493191, "trialdata": {"revealed_states": [], "clicked_states": ["5"], "num_clicks_accrued": [0, 0, 0, 0, 0, 0, 0, 0, 0, 0, 0, 0, 0], "stateRewards": ["", 2, -4, -8, -15, 71, -43, -41, 7, -17, 20, 67, -1, -1, -4, 6, 37, -24, -47, 9, 34, 57, 45, 1, 2, -4, -5, -23, 88, -5, 13, -40, 43, 44], "withholdReward": false, "trial_id": "mdp_trial_28", "block": "test", "trialIndex": 35, "score": 44.6, "costs": -1.4, "simulationMode": [null, null, null, null, null], "rewards": [2, -4, -8, -15, 71], "path": ["0", "0", "1", "2", "3", "4", "5"], "rt": [5965, 74, 100, 404, 200], "actions": ["up", "up", "up", "right", "up"], "actionTimes": [7431, 7998, 8591, 9495, 10191], "queries": {"click": {"state": {"target": ["5"], "time": [2387]}, "edge": {"target": [], "time": []}}, "mouseover": {"state": {"target": ["7", "4", "5", "3", "25", "29", "26", "28"], "time": [1888, 1907, 2172, 3045, 3074, 3594, 4971, 4990]}, "edge": {"target": [], "time": []}}, "mouseout": {"state": {"target": ["17", "14", "13", "0", "7", "4", "5", "3", "25", "29", "26", "28"], "time": [921, 955, 972, 1171, 1905, 1924, 3042, 3058, 3092, 4955, 4988, 5005]}, "edge": {"target": [], "time": []}}}, "displayed_time": "15.47", "trialTime": 16807, "trial_type": "mouselab-mdp", "trial_index": 54, "time_elapsed": 2475140, "internal_node_id": "0.0-6.0-1.0-27.0"}}, {"uniqueid": "w88697477:a78588502", "current_trial": 55, "dateTime": 1693483515768, "trialdata": {"revealed_states": [], "clicked_states": ["9", "5", "6", "11", "10"], "num_clicks_accrued": [0, 0, 0, 0, 0, 0, 0, 0, 0, 0, 0, 0, 0], "stateRewards": ["", -1, -2, 4, 9, 10, -75, 39, 16, -43, 88, -19, -1, 1, 2, 4, -31, 10, 73, 12, 41, -64, -81, -2, 2, -6, 1, -81, -1, -26, 3, -59, -3, -20], "withholdReward": false, "trial_id": "mdp_trial_29", "block": "test", "trialIndex": 36, "score": 98, "costs": -7, "simulationMode": [null, null, null, null, null], "rewards": [-1, -2, 4, 16, 88], "path": ["0", "0", "1", "2", "3", "8", "10"], "rt": [14917, 116, 125, 516, 629], "actions": ["up", "up", "up", "left", "down"], "actionTimes": [17108, 17716, 18340, 19348, 20476], "queries": {"click": {"state": {"target": ["9", "5", "6", "11", "10"], "time": [3463, 5663, 7574, 9374, 11743]}, "edge": {"target": [], "time": []}}, "mouseover": {"state": {"target": ["2", "3", "9", "5", "16", "6", "4", "3", "11", "10", "2", "7"], "time": [2746, 2929, 3263, 5380, 6781, 6830, 8175, 8198, 8480, 11496, 12232, 12582]}, "edge": {"target": [], "time": []}}, "mouseout": {"state": {"target": ["26", "24", "23", "0", "2", "3", "9", "5", "16", "6", "4", "3", "11", "10", "2", "7"], "time": [763, 996, 1029, 2590, 2763, 3029, 5130, 5787, 6813, 8173, 8196, 8214, 10913, 12182, 12315, 13996]}, "edge": {"target": [], "time": []}}}, "displayed_time": "20.97", "trialTime": 22324, "trial_type": "mouselab-mdp", "trial_index": 55, "time_elapsed": 2497717, "internal_node_id": "0.0-6.0-1.0-28.0"}}, {"uniqueid": "w88697477:a78588502", "current_trial": 56, "dateTime": 1693483532728, "trialdata": {"revealed_states": [], "clicked_states": ["9", "29"], "num_clicks_accrued": [0, 0, 0, 0, 0, 0, 0, 0, 0, 0, 0, 0, 0], "stateRewards": ["", 2, 3, 6, -12, -29, 12, 87, 4, 35, -30, 67, 2, 3, -5, -9, 44, 69, -8, 1, 45, -8, 28, -2, -1, -8, 11, -12, -5, 81, 9, 87, 82, 88], "withholdReward": false, "trial_id": "mdp_trial_30", "block": "test", "trialIndex": 37, "score": 78.2, "costs": -2.8, "simulationMode": [null, null, null, null, null], "rewards": [-2, -1, -8, 11, 81], "path": ["0", "0", "23", "24", "25", "26", "29"], "rt": [7989, 104, 161, 653, 225], "actions": ["left", "left", "left", "up", "left"], "actionTimes": [9606, 10222, 10878, 12021, 12742], "queries": {"click": {"state": {"target": ["9", "29"], "time": [2785, 4697]}, "edge": {"target": [], "time": []}}, "mouseover": {"state": {"target": ["1", "2", "3", "3", "9", "8", "28", "26", "29", "27", "10", "3", "5"], "time": [1931, 1966, 1999, 2248, 2448, 3215, 3616, 3649, 3899, 5501, 5568, 5634, 5867]}, "edge": {"target": [], "time": []}}, "mouseout": {"state": {"target": ["3", "0", "1", "2", "3", "3", "9", "8", "28", "26", "29", "27", "10", "3", "5"], "time": [715, 1331, 1965, 1982, 2015, 2282, 3165, 3233, 3632, 3682, 5434, 5518, 5584, 5800, 6698]}, "edge": {"target": [], "time": []}}}, "displayed_time": "15.62", "trialTime": 16686, "trial_type": "mouselab-mdp", "trial_index": 56, "time_elapsed": 2514677, "internal_node_id": "0.0-6.0-1.0-29.0"}}, {"uniqueid": "w88697477:a78588502", "current_trial": 57, "dateTime": 1693483550039, "trialdata": {"revealed_states": [], "clicked_states": ["17", "20", "5"], "num_clicks_accrued": [0, 0, 0, 0, 0, 0, 0, 0, 0, 0, 0, 0, 0], "stateRewards": ["", -1, -3, 3, 5, 56, 39, 50, -1, -80, 33, -46, 1, -2, -6, -8, 87, 48, 54, -11, -20, -64, -54, -2, 3, -7, -3, 12, 88, 35, -16, -46, -70, -3], "withholdReward": false, "trial_id": "mdp_trial_31", "block": "test", "trialIndex": 38, "score": 55.8, "costs": -4.199999999999999, "simulationMode": [null, null, null, null, null], "rewards": [-1, -3, 3, 5, 56], "path": ["0", "0", "1", "2", "3", "4", "5"], "rt": [10739, 262, 103, 384, 149], "actions": ["up", "up", "up", "right", "up"], "actionTimes": [12302, 13054, 13645, 14526, 15174], "queries": {"click": {"state": {"target": ["17", "20", "5"], "time": [2513, 4961, 7457]}, "edge": {"target": [], "time": []}}, "mouseover": {"state": {"target": ["18", "15", "17", "17", "20", "15", "16", "5"], "time": [2056, 2074, 2091, 2356, 3857, 6889, 6973, 7207]}, "edge": {"target": [], "time": []}}, "mouseout": {"state": {"target": ["14", "12", "0", "18", "15", "17", "17", "20", "15", "16", "5", "5"], "time": [856, 1073, 1570, 2073, 2090, 2106, 3741, 6806, 6923, 7007, 7566, 9340]}, "edge": {"target": [], "time": []}}}, "displayed_time": "15.67", "trialTime": 17005, "trial_type": "mouselab-mdp", "trial_index": 57, "time_elapsed": 2531988, "internal_node_id": "0.0-6.0-1.0-30.0"}}, {"uniqueid": "w88697477:a78588502", "current_trial": 58, "dateTime": 1693483574271, "trialdata": {"revealed_states": [], "clicked_states": ["33", "32", "21", "17", "20", "22", "16"], "num_clicks_accrued": [0, 0, 0, 0, 0, 0, 0, 0, 0, 0, 0, 0, 0], "stateRewards": ["", -1, 1, 6, -6, 70, 66, 67, -16, -75, -35, 37, -1, 4, 4, -6, 47, -9, 63, 15, 21, -63, 13, 1, 3, -6, 10, 79, -29, 18, -15, 9, -67, -19], "withholdReward": false, "trial_id": "mdp_trial_32", "block": "test", "trialIndex": 39, "score": 38.2, "costs": -9.8, "simulationMode": [null, null, null, null, null], "rewards": [-1, 4, 4, -6, 47], "path": ["0", "0", "12", "13", "14", "15", "16"], "rt": [17723, 126, 143, 308, 69], "actions": ["right", "right", "right", "up", "up"], "actionTimes": [19749, 20397, 21045, 21860, 22421], "queries": {"click": {"state": {"target": ["33", "32", "21", "17", "20", "22", "16"], "time": [3447, 5369, 7215, 9064, 10887, 12775, 14663]}, "edge": {"target": [], "time": []}}, "mouseover": {"state": {"target": ["1", "4", "10", "28", "33", "33", "32", "13", "22", "21", "17", "17", "20", "19", "22", "15", "16", "16", "15", "14", "18"], "time": [2432, 2482, 2666, 2684, 2716, 3266, 3902, 6000, 6067, 6168, 7702, 8001, 9651, 11334, 11767, 13567, 13617, 13884, 15168, 15252, 15785]}, "edge": {"target": [], "time": []}}, "mouseout": {"state": {"target": ["10", "28", "23", "1", "4", "10", "28", "33", "33", "32", "13", "22", "21", "17", "17", "20", "19", "22", "15", "16", "16", "15", "14"], "time": [1049, 1217, 1682, 2449, 2516, 2683, 2700, 2733, 3819, 5784, 6017, 6101, 7568, 7719, 9368, 11318, 11384, 13250, 13584, 13684, 15152, 15201, 15385]}, "edge": {"target": [], "time": []}}}, "displayed_time": "22.92", "trialTime": 23980, "trial_type": "mouselab-mdp", "trial_index": 58, "time_elapsed": 2556220, "internal_node_id": "0.0-6.0-1.0-31.0"}}, {"uniqueid": "w88697477:a78588502", "current_trial": 59, "dateTime": 1693483592336, "trialdata": {"revealed_states": [], "clicked_states": ["5", "9", "27"], "num_clicks_accrued": [0, 0, 0, 0, 0, 0, 0, 0, 0, 0, 0, 0, 0], "stateRewards": ["", -1, -3, -6, -2, -7, 80, -45, -3, -38, -72, 76, 2, 1, 7, 4, -62, 14, -74, 14, -87, -21, -88, -2, 1, -7, -10, 66, 56, -76, 10, -29, -72, -70], "withholdReward": false, "trial_id": "mdp_trial_33", "block": "test", "trialIndex": 40, "score": 43.8, "costs": -4.199999999999999, "simulationMode": [null, null, null, null, null], "rewards": [-2, 1, -7, -10, 66], "path": ["0", "0", "23", "24", "25", "26", "27"], "rt": [11332, 81, 35, 261, 29], "actions": ["left", "left", "left", "up", "up"], "actionTimes": [13454, 14046, 14598, 15390, 15926], "queries": {"click": {"state": {"target": ["5", "9", "27"], "time": [3808, 5913, 8585]}, "edge": {"target": [], "time": []}}, "mouseover": {"state": {"target": ["6", "4", "5", "9", "9", "11", "27", "27", "11", "18", "14"], "time": [2928, 2978, 3144, 5064, 5678, 6962, 7828, 8461, 9463, 10744, 10794]}, "edge": {"target": [], "time": []}}, "mouseout": {"state": {"target": ["18", "12", "12", "13", "15", "18", "6", "4", "5", "5", "9", "9", "11", "27", "27", "11", "18", "14"], "time": [1287, 1361, 1477, 1494, 1561, 1612, 2944, 3095, 3913, 4864, 5130, 5947, 7046, 7928, 9145, 10679, 10761, 10811]}, "edge": {"target": [], "time": []}}}, "displayed_time": "16.43", "trialTime": 17790, "trial_type": "mouselab-mdp", "trial_index": 59, "time_elapsed": 2574285, "internal_node_id": "0.0-6.0-1.0-32.0"}}, {"uniqueid": "w88697477:a78588502", "current_trial": 60, "dateTime": 1693483614503, "trialdata": {"revealed_states": [], "clicked_states": ["9", "11", "27", "29"], "num_clicks_accrued": [0, 0, 0, 0, 0, 0, 0, 0, 0, 0, 0, 0, 0], "stateRewards": ["", 1, -3, 4, 13, -72, 52, 5, 5, -58, 5, 14, 2, 1, 3, -14, -86, -4, 73, 6, -58, -50, 49, 2, -3, -4, 2, 33, -41, 42, -11, 81, 45, 53], "withholdReward": false, "trial_id": "mdp_trial_34", "block": "test", "trialIndex": 41, "score": 33.4, "costs": -5.6, "simulationMode": [null, null, null, null, null], "rewards": [2, -3, -4, 2, 42], "path": ["0", "0", "23", "24", "25", "26", "29"], "rt": [14406, 364, 83, 283, 83], "actions": ["left", "left", "left", "up", "left"], "actionTimes": [16892, 17765, 18365, 19149, 19749], "queries": {"click": {"state": {"target": ["9", "11", "27", "29"], "time": [3599, 6368, 8407, 10544]}, "edge": {"target": [], "time": []}}, "mouseover": {"state": {"target": ["10", "8", "9", "11", "27", "11", "26", "29", "27", "29", "26", "25", "33", "30"], "time": [3180, 3246, 3380, 4731, 5213, 6159, 7114, 7263, 8151, 10263, 12231, 12396, 12479, 12996]}, "edge": {"target": [], "time": []}}, "mouseout": {"state": {"target": ["0", "10", "8", "9", "11", "27", "11", "26", "29", "27", "29", "26", "25", "33"], "time": [2886, 3213, 3296, 4548, 4914, 5413, 6815, 7230, 7664, 10180, 10663, 12381, 12430, 12679]}, "edge": {"target": [], "time": []}}}, "displayed_time": "20.25", "trialTime": 21892, "trial_type": "mouselab-mdp", "trial_index": 60, "time_elapsed": 2596452, "internal_node_id": "0.0-6.0-1.0-33.0"}}, {"uniqueid": "w88697477:a78588502", "current_trial": 61, "dateTime": 1693483641464, "trialdata": {"revealed_states": [], "clicked_states": ["17", "20", "21", "22", "32", "31", "33", "29"], "num_clicks_accrued": [0, 0, 0, 0, 0, 0, 0, 0, 0, 0, 0, 0, 0], "stateRewards": ["", -2, 2, 3, -7, -31, -33, 29, -8, -57, 50, -83, -1, -1, 5, 13, -23, -62, 25, 5, -66, -85, 14, 1, -2, -1, 16, 71, 33, -19, -14, 5, -43, 79], "withholdReward": false, "trial_id": "mdp_trial_35", "block": "test", "trialIndex": 42, "score": 51.8, "costs": -11.200000000000001, "simulationMode": [null, null, null, null, null], "rewards": [1, -2, -1, -14, 79], "path": ["0", "0", "23", "24", "25", "30", "33"], "rt": [19432, 48, 50, 368, 464], "actions": ["left", "left", "left", "down", "left"], "actionTimes": [22093, 22653, 23205, 24090, 25068], "queries": {"click": {"state": {"target": ["17", "20", "21", "22", "32", "31", "33", "29"], "time": [3865, 5689, 7489, 9321, 11472, 13384, 15417, 17224]}, "edge": {"target": [], "time": []}}, "mouseover": {"state": {"target": ["12", "13", "19", "17", "20", "20", "21", "21", "19", "22", "22", "32", "32", "31", "30", "33", "29", "26", "28", "1"], "time": [2920, 2937, 3003, 3670, 4604, 4804, 6338, 6473, 7855, 7988, 8088, 10147, 10239, 11921, 13922, 14040, 16040, 18775, 18936, 19003]}, "edge": {"target": [], "time": []}}, "mouseout": {"state": {"target": ["30", "0", "12", "13", "0", "12", "13", "19", "17", "20", "20", "20", "20", "21", "21", "19", "22", "22", "32", "32", "31", "30", "33", "29", "26", "28", "1"], "time": [1255, 1303, 1319, 1486, 2086, 2936, 2953, 3020, 4504, 4621, 6021, 6154, 6279, 6372, 7615, 7888, 8055, 9805, 10173, 11631, 13891, 13957, 15955, 17704, 18819, 18970, 19019]}, "edge": {"target": [], "time": []}}}, "displayed_time": "25.59", "trialTime": 26710, "trial_type": "mouselab-mdp", "trial_index": 61, "time_elapsed": 2623413, "internal_node_id": "0.0-6.0-1.0-34.0"}}, {"uniqueid": "w88697477:a78588502", "current_trial": 62, "dateTime": 1693483659151, "trialdata": {"revealed_states": [], "clicked_states": ["17"], "num_clicks_accrued": [0, 0, 0, 0, 0, 0, 0, 0, 0, 0, 0, 0, 0], "stateRewards": ["", -1, -2, 8, -6, -79, -6, 87, 9, -5, -66, -38, 2, 2, 5, -6, -82, 74, 85, -8, 67, -30, -15, 1, -2, -2, -2, 87, 64, 49, 7, 2, -38, -9], "withholdReward": false, "trial_id": "mdp_trial_36", "block": "test", "trialIndex": 43, "score": 75.6, "costs": -1.4, "simulationMode": [null, null, null, null, null], "rewards": [2, 2, 5, -6, 74], "path": ["0", "0", "12", "13", "14", "15", "17"], "rt": [5765, 171, 128, 173, 130], "actions": ["right", "right", "right", "up", "right"], "actionTimes": [7872, 8536, 9159, 9823, 10464], "queries": {"click": {"state": {"target": ["17"], "time": [3001]}, "edge": {"target": [], "time": []}}, "mouseover": {"state": {"target": ["17", "5", "21", "21"], "time": [2763, 3688, 4980, 5064]}, "edge": {"target": [], "time": []}}, "mouseout": {"state": {"target": ["31", "0", "17", "5", "21", "21"], "time": [1214, 2449, 3280, 4597, 5030, 5280]}, "edge": {"target": [], "time": []}}}, "displayed_time": "16.11", "trialTime": 17391, "trial_type": "mouselab-mdp", "trial_index": 62, "time_elapsed": 2641100, "internal_node_id": "0.0-6.0-1.0-35.0"}}, {"uniqueid": "w88697477:a78588502", "current_trial": 63, "dateTime": 1693483680871, "trialdata": {"revealed_states": [], "clicked_states": ["29", "33", "32", "21", "20"], "num_clicks_accrued": [0, 0, 0, 0, 0, 0, 0, 0, 0, 0, 0, 0, 0], "stateRewards": ["", -1, -2, -1, -10, -57, 73, -72, -16, 75, -14, -46, -2, -3, -7, -1, -61, -60, 76, -4, 50, 4, 14, 2, 2, -7, 12, -65, -32, 15, -8, -76, -25, -61], "withholdReward": false, "trial_id": "mdp_trial_37", "block": "test", "trialIndex": 44, "score": 27, "costs": -7, "simulationMode": [null, null, null, null, null], "rewards": [-2, -3, -7, -4, 50], "path": ["0", "0", "12", "13", "14", "19", "20"], "rt": [14325, 218, 117, 756, 184], "actions": ["right", "right", "right", "down", "right"], "actionTimes": [16385, 17105, 17721, 18993, 19688], "queries": {"click": {"state": {"target": ["29", "33", "32", "21", "20"], "time": [3260, 5396, 7317, 9220, 11213]}, "edge": {"target": [], "time": []}}, "mouseover": {"state": {"target": ["23", "29", "25", "31", "33", "32", "21", "19", "20", "17"], "time": [2353, 2819, 3936, 3970, 4687, 6121, 8437, 9738, 10587, 12004]}, "edge": {"target": [], "time": []}}, "mouseout": {"state": {"target": ["19", "23", "0", "0", "23", "29", "29", "25", "31", "33", "32", "21", "19", "20", "17"], "time": [970, 1286, 1487, 2337, 2369, 3418, 3920, 3953, 3986, 5722, 8104, 9654, 10004, 11314, 13459]}, "edge": {"target": [], "time": []}}}, "displayed_time": "20.20", "trialTime": 21417, "trial_type": "mouselab-mdp", "trial_index": 63, "time_elapsed": 2662820, "internal_node_id": "0.0-6.0-1.0-36.0"}}, {"uniqueid": "w88697477:a78588502", "current_trial": 64, "dateTime": 1693483704207, "trialdata": {"revealed_states": [], "clicked_states": ["17", "5", "9", "11", "29"], "num_clicks_accrued": [0, 0, 0, 0, 0, 0, 0, 0, 0, 0, 0, 0, 0], "stateRewards": ["", 2, 3, -2, -8, -8, -41, 74, 15, -23, -80, 1, 1, 3, 3, -15, -63, -78, 67, 13, 75, -41, 86, 2, -2, 6, -3, -8, -49, 50, -6, 83, 74, 80], "withholdReward": false, "trial_id": "mdp_trial_38", "block": "test", "trialIndex": 45, "score": 46, "costs": -7, "simulationMode": [null, null, null, null, null], "rewards": [2, -2, 6, -3, 50], "path": ["0", "0", "23", "24", "25", "26", "29"], "rt": [16337, 69, 176, 308, 127], "actions": ["left", "left", "left", "up", "left"], "actionTimes": [18684, 19266, 19954, 20755, 21394], "queries": {"click": {"state": {"target": ["17", "5", "9", "11", "29"], "time": [3989, 6206, 8069, 10710, 12742]}, "edge": {"target": [], "time": []}}, "mouseover": {"state": {"target": ["12", "17", "17", "15", "4", "5", "9", "9", "11", "11", "27", "26", "29", "33", "30", "31"], "time": [2875, 2942, 3820, 4875, 5076, 5804, 6810, 7210, 10176, 10492, 11659, 11743, 11892, 13943, 14909, 14927]}, "edge": {"target": [], "time": []}}, "mouseout": {"state": {"target": ["14", "0", "12", "17", "17", "15", "4", "5", "9", "9", "11", "11", "27", "26", "29", "33", "30", "31"], "time": [842, 1075, 2892, 2958, 4832, 4976, 5093, 6685, 7061, 9942, 10292, 11610, 11692, 11776, 13261, 14892, 14926, 14942]}, "edge": {"target": [], "time": []}}}, "displayed_time": "21.91", "trialTime": 23042, "trial_type": "mouselab-mdp", "trial_index": 64, "time_elapsed": 2686155, "internal_node_id": "0.0-6.0-1.0-37.0"}}, {"uniqueid": "w88697477:a78588502", "current_trial": 65, "dateTime": 1693483721664, "trialdata": {"revealed_states": [], "clicked_states": [], "num_clicks_accrued": [0, 0, 0, 0, 0, 0, 0, 0, 0, 0, 0, 0, 0], "stateRewards": ["", -1, -3, -7, -7, -76, 30, -49, 11, -70, 56, 2, 1, 4, -3, -14, -59, -83, -25, -9, -21, -67, -73, -2, 4, 4, -9, -11, -32, 60, 9, -87, 22, -64], "withholdReward": false, "trial_id": "mdp_trial_39", "block": "test", "trialIndex": 46, "score": -28, "costs": 0, "simulationMode": [null, null, null, null, null], "rewards": [1, 4, -3, -9, -21], "path": ["0", "0", "12", "13", "14", "19", "20"], "rt": [5188, 101, 257, 397, 211], "actions": ["right", "right", "right", "down", "right"], "actionTimes": [7067, 7667, 8427, 9314, 10027], "queries": {"click": {"state": {"target": [], "time": []}, "edge": {"target": [], "time": []}}, "mouseover": {"state": {"target": ["1", "7", "6", "3", "2", "13", "9", "8"], "time": [2315, 2632, 2699, 3482, 3500, 3516, 4788, 5699]}, "edge": {"target": [], "time": []}}, "mouseout": {"state": {"target": ["27", "0", "1", "7", "6", "3", "2", "13", "9", "8"], "time": [1098, 1316, 2348, 2666, 2715, 3498, 3515, 3532, 5683, 5916]}, "edge": {"target": [], "time": []}}}, "displayed_time": "15.88", "trialTime": 17155, "trial_type": "mouselab-mdp", "trial_index": 65, "time_elapsed": 2703612, "internal_node_id": "0.0-6.0-1.0-38.0"}}, {"uniqueid": "w88697477:a78588502", "current_trial": 66, "dateTime": 1693483738944, "trialdata": {"revealed_states": [], "clicked_states": ["32", "29"], "num_clicks_accrued": [0, 0, 0, 0, 0, 0, 0, 0, 0, 0, 0, 0, 0], "stateRewards": ["", -2, -1, -1, 5, -54, -87, 35, 2, -8, 20, -22, 1, 3, 6, 13, -75, -32, -55, -3, 56, 62, -22, -1, -4, -1, -7, -51, 84, 70, 7, -15, 5, 55], "withholdReward": false, "trial_id": "mdp_trial_40", "block": "test", "trialIndex": 47, "score": 54.2, "costs": -2.8, "simulationMode": [null, null, null, null, null], "rewards": [-1, -4, -1, -7, 70], "path": ["0", "0", "23", "24", "25", "26", "29"], "rt": [7920, 143, 151, 319, 133], "actions": ["left", "left", "left", "up", "left"], "actionTimes": [9651, 10307, 10947, 11764, 12411], "queries": {"click": {"state": {"target": ["32", "29"], "time": [2782, 4694]}, "edge": {"target": [], "time": []}}, "mouseover": {"state": {"target": ["31", "32", "30", "29", "27", "11", "9"], "time": [2376, 2560, 3244, 3693, 5227, 5327, 5577]}, "edge": {"target": [], "time": []}}, "mouseout": {"state": {"target": ["3", "4", "6", "7", "0", "31", "32", "30", "29", "27", "11", "9"], "time": [544, 560, 576, 677, 2127, 2444, 3160, 3277, 5160, 5261, 