{"condition": 1, "counterbalance": 0, "assignmentId": "a56358067", "workerId": "w14730501", "hitId": "h27755070", "currenttrial": 62, "bonus": 0, "data": [{"uniqueid": "w14730501:a56358067", "current_trial": 0, "dateTime": 1693481745921, "trialdata": {"success": true, "trial_type": "fullscreen", "trial_index": 0, "time_elapsed": 4491, "internal_node_id": "0.0-0.0"}}, {"uniqueid": "w14730501:a56358067", "current_trial": 1, "dateTime": 1693482006027, "trialdata": {"view_history": [{"page_index": 0, "viewing_time": 260103}], "rt": 260104, "trial_id": "exp_instructions_misaligned", "trial_type": "instructions", "trial_index": 1, "time_elapsed": 264598, "internal_node_id": "0.0-1.0"}}, {"uniqueid": "w14730501:a56358067", "current_trial": 2, "dateTime": 1693482202064, "trialdata": {"view_history": [{"page_index": 0, "viewing_time": 68755}, {"page_index": 1, "viewing_time": 1254}, {"page_index": 0, "viewing_time": 976}, {"page_index": 1, "viewing_time": 60761}, {"page_index": 2, "viewing_time": 23960}, {"page_index": 3, "viewing_time": 40328}], "rt": 196034, "trial_id": "mouselab_instructions_1_misaligned", "trial_type": "instructions", "trial_index": 2, "time_elapsed": 460635, "internal_node_id": "0.0-2.0-1.0"}}, {"uniqueid": "w14730501:a56358067", "current_trial": 3, "dateTime": 1693482226977, "trialdata": {"revealed_states": [], "clicked_states": ["3", "26", "17", "19"], "num_clicks_accrued": [0, 0, 0, 0, 0, 0, 0, 0, 0, 0, 0, 0, 0], "stateRewards": ["", -10, -10, 10, -10, -10, -10, 10, -10, 10, -10, -10, -10, -10, -10, 10, 10, 10, -10, 10, -10, -10, -10, -10, 10, -10, -10, 10, 10, 10, 10, -10, -10, -10], "withholdReward": false, "trial_id": "practice_1", "block": "test", "trialIndex": 0, "score": -28.5, "costs": -2, "simulationMode": [null, null, null, null, null], "rewards": [-10, -10, -10, 10, -10], "path": ["0", "0", "12", "13", "14", "19", "21"], "rt": [9919, 334, 600, 536, 4047], "actions": ["right", "right", "right", "down", "down"], "actionTimes": [12844, 13708, 14843, 15916, 20492], "queries": {"click": {"state": {"target": ["3", "26", "17", "19"], "time": [5282, 6478, 8709, 10294]}, "edge": {"target": [], "time": []}}, "mouseover": {"state": {"target": ["10", "2", "3", "10", "28", "26", "27", "25", "31", "14", "17", "19", "21", "19", "21"], "time": [4761, 4842, 5112, 5770, 5934, 6263, 7127, 7576, 8078, 8308, 8444, 9381, 9845, 10092, 10777]}, "edge": {"target": [], "time": []}}, "mouseout": {"state": {"target": ["0", "10", "2", "3", "10", "28", "26", "27", "26", "25", "31", "14", "17", "19", "21", "19"], "time": [3010, 4809, 4864, 5475, 5796, 6141, 6747, 7453, 7542, 8028, 8113, 8339, 9122, 9475, 10060, 10577]}, "edge": {"target": [], "time": []}}}, "displayed_time": "21.01", "trialTime": 23652, "trial_type": "mouselab-mdp", "trial_index": 3, "time_elapsed": 485547, "internal_node_id": "0.0-2.0-2.0-0.0"}}, {"uniqueid": "w14730501:a56358067", "current_trial": 4, "dateTime": 1693482263704, "trialdata": {"revealed_states": [], "clicked_states": ["24", "23", "1", "12", "13", "14", "15", "16", "4", "6", "11", "8", "2"], "num_clicks_accrued": [0, 0, 0, 0, 0, 0, 0, 0, 0, 0, 0, 0, 0], "stateRewards": ["", 10, -10, -10, 10, 10, -10, -10, -10, -10, 10, 10, -10, 10, -10, 10, 10, 10, -10, -10, -10, 10, -10, -10, -10, 10, -10, -10, -10, 10, -10, 10, -10, -10], "withholdReward": false, "trial_id": "practice_2", "block": "test", "trialIndex": 1, "score": -13, "costs": -6.5, "simulationMode": [null, null, null, null, null], "rewards": [10, -10, -10, -10, 10], "path": ["0", "0", "1", "2", "3", "8", "10"], "rt": [25981, 178, 325, 279, 1508], "actions": ["up", "up", "up", "left", "down"], "actionTimes": [28967, 29685, 30533, 31341, 33381], "queries": {"click": {"state": {"target": ["24", "23", "1", "12", "13", "14", "15", "16", "4", "6", "11", "8", "2"], "time": [3775, 5031, 6193, 8014, 9159, 12878, 14199, 15470, 18455, 19718, 20895, 22191, 26151]}, "edge": {"target": [], "time": []}}, "mouseover": {"state": {"target": ["0", "23", "24", "23", "1", "2", "7", "12", "13", "12", "13", "18", "2", "7", "7", "18", "15", "14", "15", "16", "3", "4", "6", "3", "8", "11", "8", "2", "7", "2", "1", "1"], "time": [3358, 3435, 3589, 4121, 5481, 6561, 6819, 6943, 7472, 7775, 8734, 9655, 9950, 11737, 12121, 12471, 12553, 12723, 13332, 14665, 18188, 18302, 19002, 20291, 20432, 20651, 21437, 24820, 25402, 25986, 26784, 28419]}, "edge": {"target": [], "time": []}}, "mouseout": {"state": {"target": ["21", "0", "0", "23", "24", "23", "1", "2", "7", "12", "13", "12", "13", "13", "18", "2", "7", "7", "18", "15", "14", "15", "16", "3", "4", "6", "4", "3", "8", "11", "8", "2", "7", "2", "1", "1"], "time": [1009, 3013, 3408, 3491, 4050, 5407, 6441, 6791, 6849, 7405, 7740, 8406, 9206, 9553, 9680, 11690, 11787, 12420, 12492, 12575, 13254, 14421, 17837, 18262, 18953, 20176, 20244, 20362, 20601, 20983, 24770, 24846, 25719, 26737, 27768, 28935]}, "edge": {"target": [], "time": []}}}, "displayed_time": "33.91", "trialTime": 36365, "trial_type": "mouselab-mdp", "trial_index": 4, "time_elapsed": 522274, "internal_node_id": "0.0-2.0-2.0-1.0"}}, {"uniqueid": "w14730501:a56358067", "current_trial": 5, "dateTime": 1693482300360, "trialdata": {"view_history": [{"page_index": 0, "viewing_time": 27163}, {"page_index": 1, "viewing_time": 9488}], "rt": 36651, "trial_id": "mouselab_instructions_2_misaligned", "trial_type": "instructions", "trial_index": 5, "time_elapsed": 558931, "internal_node_id": "0.0-2.0-3.0"}}, {"uniqueid": "w14730501:a56358067", "current_trial": 6, "dateTime": 1693482354127, "trialdata": {"rt": 53764, "response": {"Q0": "There is no cost for clicking on nodes.", "Q1": "The better I perform the higher my bonus will be.", "Q2": "No, the amount of cash at each node of the web may be different each time.", "Q3": "To get the highest total score.", "Q4": "Only before moving the spider.", "Q5": "3 seconds"}, "question_order": [0, 1, 2, 3, 4, 5], "correct": {"Q0": "The cost for clicking on nodes may vary between nodes.", "Q1": "The better I perform the higher my bonus will be.", "Q2": "No, the amount of cash at each node of the web may be different each time.", "Q3": "To get the highest total score.", "Q4": "Only before moving the spider.", "Q5": "3 seconds"}, "trial_id": "mouselab_quiz_misaligned", "trial_type": "survey-multi-choice", "trial_index": 6, "time_elapsed": 612698, "internal_node_id": "0.0-2.0-4.0"}}, {"uniqueid": "w14730501:a56358067", "current_trial": 7, "dateTime": 1693482362543, "trialdata": {"success": true, "trial_type": "fullscreen", "trial_index": 7, "time_elapsed": 621114, "internal_node_id": "0.0-2.1-0.1-0.1"}}, {"uniqueid": "w14730501:a56358067", "current_trial": 8, "dateTime": 1693482454757, "trialdata": {"view_history": [{"page_index": 0, "viewing_time": 28684}, {"page_index": 1, "viewing_time": 59711}, {"page_index": 2, "viewing_time": 1912}, {"page_index": 3, "viewing_time": 1904}], "rt": 92211, "trial_id": "mouselab_instructions_1_misaligned", "trial_type": "instructions", "trial_index": 8, "time_elapsed": 713328, "internal_node_id": "0.0-2.1-1.1"}}, {"uniqueid": "w14730501:a56358067", "current_trial": 9, "dateTime": 1693482478909, "trialdata": {"revealed_states": [], "clicked_states": ["25", "23", "28", "24", "26", "27"], "num_clicks_accrued": [0, 0, 0, 0, 0, 0, 0, 0, 0, 0, 0, 0, 0], "stateRewards": ["", -10, -10, 10, -10, -10, -10, 10, -10, 10, -10, -10, -10, -10, -10, 10, 10, 10, -10, 10, -10, -10, -10, -10, 10, -10, -10, 10, 10, 10, 10, -10, -10, -10], "withholdReward": false, "trial_id": "practice_1", "block": "test", "trialIndex": 2, "score": -9.5, "costs": -3, "simulationMode": [null, null, null, null, null], "rewards": [-10, 10, -10, -10, 10], "path": ["0", "0", "23", "24", "25", "26", "27"], "rt": [10803, 240, 4972, 140, 1134], "actions": ["left", "left", "left", "up", "up"], "actionTimes": [12576, 13342, 18847, 19527, 21183], "queries": {"click": {"state": {"target": ["25", "23", "28", "24", "26", "27"], "time": [2768, 3928, 5209, 6791, 8808, 10898]}, "edge": {"target": [], "time": []}}, "mouseover": {"state": {"target": ["0", "23", "24", "25", "24", "23", "24", "28", "1", "1", "24", "23", "26", "26", "25", "27", "29", "27"], "time": [1875, 2180, 2228, 2625, 3121, 3420, 4351, 4918, 5754, 5940, 6324, 8193, 8407, 8659, 8986, 9583, 10523, 10742]}, "edge": {"target": [], "time": []}}, "mouseout": {"state": {"target": ["0", "0", "23", "24", "25", "24", "23", "24", "28", "1", "1", "24", "23", "28", "26", "26", "25", "26", "27", "29", "27", "26", "26", "26", "24", "28"], "time": [1826, 2145, 2205, 2477, 2984, 3371, 4302, 4868, 5684, 5825, 5966, 6983, 8223, 8311, 8440, 8937, 9300, 9534, 10408, 10659, 11025, 11095, 11396, 12392, 17656, 22853]}, "edge": {"target": [], "time": []}}}, "displayed_time": "21.72", "trialTime": 23782, "trial_type": "mouselab-mdp", "trial_index": 9, "time_elapsed": 737479, "internal_node_id": "0.0-2.1-2.1-0.1"}}, {"uniqueid": "w14730501:a56358067", "current_trial": 10, "dateTime": 1693482507445, "trialdata": {"revealed_states": [], "clicked_states": ["12", "13", "18", "14", "19", "21", "22", "20", "15", "16"], "num_clicks_accrued": [0, 0, 0, 0, 0, 0, 0, 0, 0, 0, 0, 0, 0], "stateRewards": ["", 10, -10, -10, 10, 10, -10, -10, -10, -10, 10, 10, -10, 10, -10, 10, 10, 10, -10, -10, -10, 10, -10, -10, -10, 10, -10, -10, -10, 10, -10, 10, -10, -10], "withholdReward": false, "trial_id": "practice_2", "block": "test", "trialIndex": 3, "score": 8.5, "costs": -5, "simulationMode": [null, null, null, null, null], "rewards": [-10, 10, -10, 10, 10], "path": ["0", "0", "12", "13", "14", "15", "16"], "rt": [20303, 246, 335, 136, 152], "actions": ["right", "right", "right", "up", "up"], "actionTimes": [22351, 23134, 23998, 24678, 25358], "queries": {"click": {"state": {"target": ["12", "13", "18", "14", "19", "21", "22", "20", "15", "16"], "time": [3663, 5776, 7000, 8384, 10535, 12224, 13640, 15507, 18031, 19456]}, "edge": {"target": [], "time": []}}, "mouseover": {"state": {"target": ["0", "12", "12", "13", "14", "13", "18", "14", "15", "19", "21", "22", "21", "22", "20", "14", "15", "16", "15", "16", "17", "14", "13"], "time": [2075, 3293, 3412, 3886, 5277, 5593, 6132, 7681, 8742, 10278, 10769, 11692, 12026, 12785, 15341, 17307, 17391, 17607, 17905, 18474, 20236, 21206, 21521]}, "edge": {"target": [], "time": []}}, "mouseout": {"state": {"target": ["0", "0", "12", "12", "13", "14", "13", "18", "18", "14", "15", "14", "19", "21", "22", "21", "22", "19", "20", "22", "14", "15", "16", "15", "16", "15", "17", "14"], "time": [1526, 3263, 3325, 3860, 5028, 5377, 6015, 7432, 7535, 8446, 10193, 10256, 10721, 11606, 11909, 12435, 13882, 13984, 15661, 17191, 17336, 17454, 17840, 18359, 19770, 19839, 20906, 21474]}, "edge": {"target": [], "time": []}}}, "displayed_time": "25.89", "trialTime": 28158, "trial_type": "mouselab-mdp", "trial_index": 10, "time_elapsed": 766015, "internal_node_id": "0.0-2.1-2.1-1.1"}}, {"uniqueid": "w14730501:a56358067", "current_trial": 11, "dateTime": 1693482513844, "trialdata": {"view_history": [{"page_index": 0, "viewing_time": 3939}, {"page_index": 1, "viewing_time": 2456}], "rt": 6395, "trial_id": "mouselab_instructions_2_misaligned", "trial_type": "instructions", "trial_index": 11, "time_elapsed": 772415, "internal_node_id": "0.0-2.1-3.1"}}, {"uniqueid": "w14730501:a56358067", "current_trial": 12, "dateTime": 1693482533565, "trialdata": {"rt": 19717, "response": {"Q0": "The cost for clicking on nodes may vary between nodes.", "Q1": "The better I perform the higher my bonus will be.", "Q2": "No, the amount of cash at each node of the web may be different each time.", "Q3": "To get the highest total score.", "Q4": "Only before moving the spider.", "Q5": "3 seconds"}, "question_order": [0, 1, 2, 3, 4, 5], "correct": {"Q0": "The cost for clicking on nodes may vary between nodes.", "Q1": "The better I perform the higher my bonus will be.", "Q2": "No, the amount of cash at each node of the web may be different each time.", "Q3": "To get the highest total score.", "Q4": "Only before moving the spider.", "Q5": "3 seconds"}, "trial_id": "mouselab_quiz_misaligned", "trial_type": "survey-multi-choice", "trial_index": 12, "time_elapsed": 792136, "internal_node_id": "0.0-2.1-4.1"}}, {"uniqueid": "w14730501:a56358067", "current_trial": 13, "dateTime": 1693482541252, "trialdata": {"rt": 7679, "response": {"Q0": "Not sure"}, "question_order": [0], "trial_id": "repeat_check", "trial_type": "survey-multi-choice", "trial_index": 13, "time_elapsed": 799823, "internal_node_id": "0.0-4.0-0.0"}}, {"uniqueid": "w14730501:a56358067", "current_trial": 14, "dateTime": 1693482548715, "trialdata": {"rt": 7457, "stimulus": "\n<h1> Get ready to start the game! </h1>\n\nThank you for reading the instructions. Get ready start with the 40 rounds of this game.\n<br><br>\nIf you need to take a break, feel free to take one after the end of a round, before continuing to the next one.\n<br><br>\nRemember, the more money the spider gets, the bigger your bonus will be!\n<br><br>\n<div style='text-align: center;'>Press <code>space</code> to begin.</div>\n\n<br><br>\n(If, at any point, the <code>space</code> key does not take you to the next page, click once on the text and try again.)", "response": " ", "trial_id": "mdp_ready", "trial_type": "html-keyboard-response", "trial_index": 14, "time_elapsed": 807286, "internal_node_id": "0.0-6.0-0.0"}}, {"uniqueid": "w14730501:a56358067", "current_trial": 15, "dateTime": 1693482566716, "trialdata": {"revealed_states": [], "clicked_states": ["23", "24", "25", "26", "27"], "num_clicks_accrued": [0, 0, 0, 0, 0, 0, 0, 0, 0, 0, 0, 0, 0], "stateRewards": ["", -2, -1, -3, -1, -78, -6, 2, -1, 22, -88, 32, 2, 2, -7, -8, -51, -17, 54, 2, -44, 54, 75, 2, -2, -8, -15, -29, 12, -67, 15, -1, -47, -47], "withholdReward": false, "trial_id": "mdp_trial_1", "block": "test", "trialIndex": 4, "score": 1.25, "costs": -4.75, "simulationMode": [null, null, null, null, null], "rewards": [2, -2, -8, 15, -1], "path": ["0", "0", "23", "24", "25", "30", "31"], "rt": [9939, 130, 217, 176, 185], "actions": ["left", "left", "left", "down", "right"], "actionTimes": [11852, 12507, 13259, 13963, 14691], "queries": {"click": {"state": {"target": ["23", "24", "25", "26", "27"], "time": [2542, 3350, 4260, 5157, 5870]}, "edge": {"target": [], "time": []}}, "mouseover": {"state": {"target": ["23", "24", "25", "26", "27", "28", "1"], "time": [2324, 3096, 4114, 4779, 5642, 6153, 6952]}, "edge": {"target": [], "time": []}}, "mouseout": {"state": {"target": ["0", "23", "24", "25", "26", "27", "28"], "time": [2004, 2977, 3819, 4503, 5432, 6038, 6667]}, "edge": {"target": [], "time": []}}}, "displayed_time": "15.91", "trialTime": 17627, "trial_type": "mouselab-mdp", "trial_index": 15, "time_elapsed": 825286, "internal_node_id": "0.0-6.0-1.0-0.0"}}, {"uniqueid": "w14730501:a56358067", "current_trial": 16, "dateTime": 1693482586771, "trialdata": {"revealed_states": [], "clicked_states": ["1", "2", "7"], "num_clicks_accrued": [0, 0, 0, 0, 0, 0, 0, 0, 0, 0, 0, 0, 0], "stateRewards": ["", 2, -4, 1, -12, -59, -53, -74, 16, -88, -66, 66, 1, -2, 8, -9, -14, 22, 25, -1, -39, 47, -14, -1, -1, -2, 1, -4, 52, -26, 15, -7, 46, 43], "withholdReward": false, "trial_id": "mdp_trial_2", "block": "test", "trialIndex": 5, "score": -75.25, "costs": -2.25, "simulationMode": [null, null, null, null, null], "rewards": [2, -4, 1, 16, -88], "path": ["0", "0", "1", "2", "3", "8", "9"], "rt": [6742, 391, 349, 1115, 213], "actions": ["up", "up", "up", "left", "up"], "actionTimes": [9489, 10401, 11289, 12929, 13656], "queries": {"click": {"state": {"target": ["1", "2", "7"], "time": [3427, 4117, 4823]}, "edge": {"target": [], "time": []}}, "mouseover": {"state": {"target": ["1", "2", "7", "3", "4"], "time": [3225, 3787, 4685, 5479, 6761]}, "edge": {"target": [], "time": []}}, "mouseout": {"state": {"target": ["1", "0", "0", "0", "1", "2", "7", "3", "4", "7"], "time": [1141, 1241, 1557, 2775, 3666, 4523, 5290, 6712, 8291, 8357]}, "edge": {"target": [], "time": []}}}, "displayed_time": "16.75", "trialTime": 19689, "trial_type": "mouselab-mdp", "trial_index": 16, "time_elapsed": 845341, "internal_node_id": "0.0-6.0-1.0-1.0"}}, {"uniqueid": "w14730501:a56358067", "current_trial": 17, "dateTime": 1693482607900, "trialdata": {"revealed_states": [], "clicked_states": ["25", "14", "17"], "num_clicks_accrued": [0, 0, 0, 0, 0, 0, 0, 0, 0, 0, 0, 0, 0], "stateRewards": ["", 1, -2, 7, -14, 88, -56, -44, -14, 64, -51, -57, -2, 3, -4, -9, -11, 19, -77, -1, 68, 75, -67, -1, 1, -2, 5, -37, 70, -34, -10, -72, 63, -41], "withholdReward": false, "trial_id": "mdp_trial_3", "block": "test", "trialIndex": 6, "score": 2.9499999999999993, "costs": -4.05, "simulationMode": [null, null, null, null, null], "rewards": [-2, 3, -4, -9, 19], "path": ["0", "0", "12", "13", "14", "15", "17"], "rt": [7596, 195, 239, 168, 181], "actions": ["right", "right", "right", "up", "right"], "actionTimes": [12198, 12910, 13670, 14366, 15078], "queries": {"click": {"state": {"target": ["25", "14", "17"], "time": [5376, 6158, 6695]}, "edge": {"target": [], "time": []}}, "mouseover": {"state": {"target": ["23", "24", "25", "24", "12", "13", "14", "17", "15", "15", "18", "12", "31", "31"], "time": [4956, 5014, 5194, 5561, 5616, 5650, 5982, 6510, 6932, 7287, 7679, 7936, 8057, 8286]}, "edge": {"target": [], "time": []}}, "mouseout": {"state": {"target": ["12", "0", "23", "24", "25", "25", "24", "12", "13", "14", "17", "15", "15", "18", "12", "31"], "time": [1692, 4928, 4992, 5077, 5444, 5534, 5589, 5646, 5933, 6350, 6871, 6962, 7597, 7797, 7963, 8083]}, "edge": {"target": [], "time": []}}}, "displayed_time": "18.60", "trialTime": 20742, "trial_type": "mouselab-mdp", "trial_index": 17, "time_elapsed": 866470, "internal_node_id": "0.0-6.0-1.0-2.0"}}, {"uniqueid": "w14730501:a56358067", "current_trial": 18, "dateTime": 1693482627979, "trialdata": {"revealed_states": [], "clicked_states": ["29", "25"], "num_clicks_accrued": [0, 0, 0, 0, 0, 0, 0, 0, 0, 0, 0, 0, 0], "stateRewards": ["", 2, -3, -4, -1, 25, -16, 16, 10, -71, -20, -55, 1, 3, -4, -9, 1, 32, 11, -6, 32, -50, -41, -1, 4, 4, -8, 7, -81, 70, 2, -52, 45, -10], "withholdReward": false, "trial_id": "mdp_trial_4", "block": "test", "trialIndex": 7, "score": 65.9, "costs": -3.0999999999999996, "simulationMode": [null, null, null, null, null], "rewards": [-1, 4, 4, -8, 70], "path": ["0", "0", "23", "24", "25", "26", "29"], "rt": [4673, 217, 215, 99, 244], "actions": ["left", "left", "left", "up", "left"], "actionTimes": [7963, 8707, 9451, 10083, 10858], "queries": {"click": {"state": {"target": ["29", "25"], "time": [3989, 6846]}, "edge": {"target": [], "time": []}}, "mouseover": {"state": {"target": ["23", "26", "29", "26", "17", "7", "10", "27", "26", "24", "24", "25"], "time": [3643, 3698, 3813, 4137, 4355, 4670, 4726, 5007, 5383, 5714, 6426, 6687]}, "edge": {"target": [], "time": []}}, "mouseout": {"state": {"target": ["31", "0", "23", "26", "29", "26", "17", "7", "10", "27", "26", "24", "24", "25"], "time": [866, 3604, 3670, 3764, 4109, 4165, 4594, 4698, 4754, 5334, 5433, 5764, 6478, 6981]}, "edge": {"target": [], "time": []}}}, "displayed_time": "17.29", "trialTime": 19699, "trial_type": "mouselab-mdp", "trial_index": 18, "time_elapsed": 886550, "internal_node_id": "0.0-6.0-1.0-3.0"}}, {"uniqueid": "w14730501:a56358067", "current_trial": 19, "dateTime": 1693482647803, "trialdata": {"revealed_states": [], "clicked_states": ["17", "29"], "num_clicks_accrued": [0, 0, 0, 0, 0, 0, 0, 0, 0, 0, 0, 0, 0], "stateRewards": ["", 2, -2, 7, -11, -76, -65, -23, 16, -58, 30, 81, 1, 2, 7, 14, 9, 55, -2, 6, 11, -15, 31, -1, -1, -3, 2, 15, 2, 46, 15, 18, 45, -34], "withholdReward": false, "trial_id": "mdp_trial_5", "block": "test", "trialIndex": 8, "score": 74.7, "costs": -4.3, "simulationMode": [null, null, null, null, null], "rewards": [1, 2, 7, 14, 55], "path": ["0", "0", "12", "13", "14", "15", "17"], "rt": [9744, 93, 131, 106, 159], "actions": ["right", "right", "right", "up", "right"], "actionTimes": [12863, 13486, 14142, 14784, 15454], "queries": {"click": {"state": {"target": ["17", "29"], "time": [3962, 8961]}, "edge": {"target": [], "time": []}}, "mouseover": {"state": {"target": ["17", "28", "26", "29", "26", "24", "26", "29", "23", "0", "0", "23", "26", "29", "23"], "time": [3593, 4401, 4505, 4673, 5793, 5926, 6642, 6771, 7741, 7770, 7943, 8447, 8574, 8758, 9498]}, "edge": {"target": [], "time": []}}, "mouseout": {"state": {"target": ["0", "17", "28", "26", "29", "26", "24", "26", "29", "23", "0", "0", "23", "26", "29", "23"], "time": [3445, 4097, 4477, 4594, 5765, 5821, 6261, 6694, 7692, 7766, 7795, 8423, 8472, 8707, 9445, 9526]}, "edge": {"target": [], "time": []}}}, "displayed_time": "17.12", "trialTime": 19422, "trial_type": "mouselab-mdp", "trial_index": 19, "time_elapsed": 906373, "internal_node_id": "0.0-6.0-1.0-4.0"}}, {"uniqueid": "w14730501:a56358067", "current_trial": 20, "dateTime": 1693482667395, "trialdata": {"revealed_states": [], "clicked_states": ["5", "9"], "num_clicks_accrued": [0, 0, 0, 0, 0, 0, 0, 0, 0, 0, 0, 0, 0], "stateRewards": ["", -1, -3, -7, -4, -85, -70, 79, 8, 84, -66, 42, 2, -2, -3, -16, -54, -66, 68, -3, 21, -14, 7, -2, -1, -3, -8, 75, 80, 86, -7, -84, 73, -16], "withholdReward": false, "trial_id": "mdp_trial_6", "block": "test", "trialIndex": 9, "score": 76.7, "costs": -4.3, "simulationMode": [null, null, null, null, null], "rewards": [-1, -3, -7, 8, 84], "path": ["0", "0", "1", "2", "3", "8", "9"], "rt": [8083, 167, 272, 164, 219], "actions": ["up", "up", "up", "left", "up"], "actionTimes": [10466, 11176, 11968, 12672, 13424], "queries": {"click": {"state": {"target": ["5", "9"], "time": [3651, 6730]}, "edge": {"target": [], "time": []}}, "mouseover": {"state": {"target": ["0", "1", "7", "3", "5", "1", "1", "2", "9", "8", "2", "24", "30", "29", "24"], "time": [2941, 3004, 3140, 3321, 3457, 4316, 4795, 4923, 5190, 7122, 7180, 7424, 7487, 9890, 10287]}, "edge": {"target": [], "time": []}}, "mouseout": {"state": {"target": ["0", "0", "0", "1", "7", "3", "5", "1", "1", "2", "9", "8", "2", "24", "30", "29", "24", "23"], "time": [1672, 2413, 2978, 3055, 3274, 3354, 4011, 4723, 4844, 4956, 7095, 7149, 7373, 7456, 7512, 10205, 10309, 16820]}, "edge": {"target": [], "time": []}}}, "displayed_time": "16.38", "trialTime": 19233, "trial_type": "mouselab-mdp", "trial_index": 20, "time_elapsed": 925965, "internal_node_id": "0.0-6.0-1.0-5.0"}}, {"uniqueid": "w14730501:a56358067", "current_trial": 21, "dateTime": 1693482694298, "trialdata": {"revealed_states": [], "clicked_states": ["9", "29", "27", "17", "16"], "num_clicks_accrued": [0, 0, 0, 0, 0, 0, 0, 0, 0, 0, 0, 0, 0], "stateRewards": ["", 2, 4, 7, -6, -76, -81, 2, 5, -66, -3, 36, -2, -4, 6, -2, -69, 4, -49, -6, 67, 38, -67, 2, 1, 1, 6, -68, -21, 52, -16, -16, 6, -70], "withholdReward": false, "trial_id": "mdp_trial_7", "block": "test", "trialIndex": 10, "score": 51.25, "costs": -10.75, "simulationMode": [null, null, null, null, null], "rewards": [2, 1, 1, 6, 52], "path": ["0", "0", "23", "24", "25", "26", "29"], "rt": [18809, 63, 88, 95, 86], "actions": ["left", "left", "left", "up", "left"], "actionTimes": [21050, 21633, 22249, 22881, 23489], "queries": {"click": {"state": {"target": ["9", "29", "27", "17", "16"], "time": [3578, 6675, 10402, 14153, 17802]}, "edge": {"target": [], "time": []}}, "mouseover": {"state": {"target": ["8", "9", "8", "10", "28", "26", "29", "26", "27", "26", "28", "18", "15", "17", "16", "18", "23"], "time": [3153, 3386, 3761, 3983, 4534, 4632, 4885, 6923, 10133, 10597, 13518, 13599, 13783, 13915, 17599, 18210, 18330]}, "edge": {"target": [], "time": []}}, "mouseout": {"state": {"target": ["0", "8", "9", "8", "10", "28", "26", "29", "26", "27", "26", "28", "18", "15", "17", "17", "16", "18", "23", "12"], "time": [2753, 3201, 3735, 3788, 4169, 4560, 4734, 6896, 10051, 10537, 10623, 13553, 13622, 13867, 14799, 17449, 18014, 18236, 18755, 25596]}, "edge": {"target": [], "time": []}}}, "displayed_time": "24.01", "trialTime": 26537, "trial_type": "mouselab-mdp", "trial_index": 21, "time_elapsed": 952869, "internal_node_id": "0.0-6.0-1.0-6.0"}}, {"uniqueid": "w14730501:a56358067", "current_trial": 22, "dateTime": 1693482716363, "trialdata": {"revealed_states": [], "clicked_states": ["31", "22", "17", "29"], "num_clicks_accrued": [0, 0, 0, 0, 0, 0, 0, 0, 0, 0, 0, 0, 0], "stateRewards": ["", -2, -1, -5, 10, -36, -70, 68, -9, 86, 71, -10, 2, -4, 7, -7, 66, 44, -66, -13, -69, 43, 15, -2, 2, 6, -13, 62, 57, 50, -10, -69, 42, -72], "withholdReward": false, "trial_id": "mdp_trial_8", "block": "test", "trialIndex": 11, "score": 34.4, "costs": -8.6, "simulationMode": [null, null, null, null, null], "rewards": [-2, 2, 6, -13, 50], "path": ["0", "0", "23", "24", "25", "26", "29"], "rt": [14610, 16, 65, 112, 28], "actions": ["left", "left", "left", "up", "left"], "actionTimes": [16363, 16910, 17490, 18130, 18676], "queries": {"click": {"state": {"target": ["31", "22", "17", "29"], "time": [2935, 6269, 9562, 12891]}, "edge": {"target": [], "time": []}}, "mouseover": {"state": {"target": ["23", "31", "30", "31", "22", "13", "15", "17", "25", "29", "29"], "time": [2287, 2407, 2473, 2793, 6125, 8817, 8871, 9097, 11361, 11525, 11730]}, "edge": {"target": [], "time": []}}, "mouseout": {"state": {"target": ["0", "0", "23", "31", "30", "31", "22", "13", "15", "17", "25", "29", "29"], "time": [1057, 2259, 2326, 2429, 2698, 3293, 6688, 8844, 8897, 9729, 11388, 11552, 13136]}, "edge": {"target": [], "time": []}}}, "displayed_time": "19.23", "trialTime": 21714, "trial_type": "mouselab-mdp", "trial_index": 22, "time_elapsed": 974933, "internal_node_id": "0.0-6.0-1.0-7.0"}}, {"uniqueid": "w14730501:a56358067", "current_trial": 23, "dateTime": 1693482745123, "trialdata": {"revealed_states": [], "clicked_states": ["5", "7", "10", "17", "29", "27"], "num_clicks_accrued": [0, 0, 0, 0, 0, 0, 0, 0, 0, 0, 0, 0, 0], "stateRewards": ["", -1, 2, -2, 13, -56, -28, 10, 14, 53, -80, -29, 1, -3, -3, -14, 14, 9, -40, -9, 18, 18, 48, 1, 1, 1, -9, 64, -39, -9, 7, -52, -78, 7], "withholdReward": false, "trial_id": "mdp_trial_9", "block": "test", "trialIndex": 12, "score": 45.1, "costs": -12.9, "simulationMode": [null, null, null, null, null], "rewards": [1, 1, 1, -9, 64], "path": ["0", "0", "23", "24", "25", "26", "27"], "rt": [21382, 567, 160, 68, 68], "actions": ["left", "left", "left", "up", "up"], "actionTimes": [22764, 23852, 24540, 25148, 25732], "queries": {"click": {"state": {"target": ["5", "7", "10", "17", "29", "27"], "time": [2350, 5536, 8887, 12407, 15831, 19493]}, "edge": {"target": [], "time": []}}, "mouseover": {"state": {"target": ["1", "2", "4", "5", "4", "7", "7", "2", "10", "10", "2", "18", "13", "12", "13", "14", "17", "14", "30", "29", "24", "23", "0", "27"], "time": [1833, 1893, 1982, 2184, 2497, 2527, 3861, 5782, 5814, 6436, 9078, 9186, 9314, 11651, 11710, 11763, 12049, 12617, 13661, 13968, 16071, 16105, 18980, 19429]}, "edge": {"target": [], "time": []}}, "mouseout": {"state": {"target": ["1", "2", "4", "5", "4", "7", "7", "2", "10", "10", "2", "18", "13", "12", "13", "14", "17", "14", "30", "29", "24", "23", "0", "27"], "time": [1869, 1917, 2081, 2469, 2523, 2576, 5755, 5810, 5845, 9047, 9111, 9310, 9342, 11706, 11736, 11787, 12519, 12668, 13688, 16015, 16102, 16133, 19016, 19908]}, "edge": {"target": [], "time": []}}}, "displayed_time": "26.27", "trialTime": 28404, "trial_type": "mouselab-mdp", "trial_index": 23, "time_elapsed": 1003693, "internal_node_id": "0.0-6.0-1.0-8.0"}}, {"uniqueid": "w14730501:a56358067", "current_trial": 24, "dateTime": 1693482761979, "trialdata": {"revealed_states": [], "clicked_states": ["31"], "num_clicks_accrued": [0, 0, 0, 0, 0, 0, 0, 0, 0, 0, 0, 0, 0], "stateRewards": ["", 1, 1, 5, 6, -29, -7, 3, -16, 9, -46, 65, -1, 4, -1, -16, -63, -77, -87, 8, 80, -50, 43, -1, -1, -5, 5, -38, -71, -62, 9, 81, -50, -52], "withholdReward": false, "trial_id": "mdp_trial_10", "block": "test", "trialIndex": 13, "score": 80.85, "costs": -2.15, "simulationMode": [null, null, null, null, null], "rewards": [-1, -1, -5, 9, 81], "path": ["0", "0", "23", "24", "25", "30", "31"], "rt": [4791, 17, 692, 158, 261], "actions": ["left", "left", "left", "down", "right"], "actionTimes": [6211, 6760, 7987, 8659, 9459], "queries": {"click": {"state": {"target": ["31"], "time": [2876]}, "edge": {"target": [], "time": []}}, "mouseover": {"state": {"target": ["31", "30", "30", "32", "31", "19", "22"], "time": [1965, 2045, 2282, 2539, 2681, 3512, 3746]}, "edge": {"target": [], "time": []}}, "mouseout": {"state": {"target": ["0", "31", "30", "30", "32", "31", "31", "19", "22"], "time": [1816, 2014, 2096, 2330, 2596, 2947, 3129, 3719, 11296]}, "edge": {"target": [], "time": []}}}, "displayed_time": "15.42", "trialTime": 16499, "trial_type": "mouselab-mdp", "trial_index": 24, "time_elapsed": 1020549, "internal_node_id": "0.0-6.0-1.0-9.0"}}, {"uniqueid": "w14730501:a56358067", "current_trial": 25, "dateTime": 1693482791601, "trialdata": {"revealed_states": [], "clicked_states": ["22", "31", "28", "18", "7", "10"], "num_clicks_accrued": [0, 0, 0, 0, 0, 0, 0, 0, 0, 0, 0, 0, 0], "stateRewards": ["", -2, 4, -7, -3, -76, 39, -28, 10, 14, 12, 60, 2, -3, 6, -10, 88, -34, -41, -3, 72, -13, -56, 1, 3, 2, 8, -51, 23, -57, 1, 14, -46, -16], "withholdReward": false, "trial_id": "mdp_trial_11", "block": "test", "trialIndex": 14, "score": 24.1, "costs": -12.9, "simulationMode": [null, null, null, null, null], "rewards": [1, 3, 2, 8, 23], "path": ["0", "0", "23", "24", "25", "26", "28"], "rt": [22163, 106, 27, 18, 56], "actions": ["left", "left", "left", "up", "right"], "actionTimes": [24148, 24788, 25347, 25895, 26491], "queries": {"click": {"state": {"target": ["22", "31", "28", "18", "7", "10"], "time": [3015, 6421, 9909, 13181, 16829, 20158]}, "edge": {"target": [], "time": []}}, "mouseover": {"state": {"target": ["22", "31", "23", "28", "18", "7", "1", "10", "23"], "time": [2391, 6157, 9319, 9655, 10755, 16454, 17023, 19717, 21098]}, "edge": {"target": [], "time": []}}, "mouseout": {"state": {"target": ["0", "22", "31", "23", "28", "18", "7", "1", "10", "23"], "time": [2341, 3208, 6587, 9353, 10047, 13384, 16972, 17049, 20327, 21239]}, "edge": {"target": [], "time": []}}}, "displayed_time": "27.03", "trialTime": 29252, "trial_type": "mouselab-mdp", "trial_index": 25, "time_elapsed": 1050172, "internal_node_id": "0.0-6.0-1.0-10.0"}}, {"uniqueid": "w14730501:a56358067", "current_trial": 26, "dateTime": 1693482820168, "trialdata": {"revealed_states": [], "clicked_states": ["9", "27", "32", "31", "33", "29"], "num_clicks_accrued": [0, 0, 0, 0, 0, 0, 0, 0, 0, 0, 0, 0, 0], "stateRewards": ["", -2, -4, -2, 10, -8, -15, -47, 7, -84, 53, 5, -1, 2, -7, 3, 83, 31, 47, -1, 30, -8, 69, 2, -4, -1, 8, -7, 12, -8, -8, -13, 30, -84], "withholdReward": false, "trial_id": "mdp_trial_12", "block": "test", "trialIndex": 15, "score": 6.100000000000001, "costs": -12.9, "simulationMode": [null, null, null, null, null], "rewards": [2, -4, -1, -8, 30], "path": ["0", "0", "23", "24", "25", "30", "32"], "rt": [22219, 17, 16, 48, 44], "actions": ["left", "left", "left", "down", "down"], "actionTimes": [23666, 24218, 24765, 25353, 25945], "queries": {"click": {"state": {"target": ["9", "27", "32", "31", "33", "29"], "time": [2795, 6539, 9971, 13459, 16802, 20477]}, "edge": {"target": [], "time": []}}, "mouseover": {"state": {"target": ["10", "8", "9", "8", "10", "8", "27", "26", "24", "31", "30", "30", "32", "31", "30", "33", "33", "30", "24", "26", "29", "24", "23"], "time": [2172, 2309, 2437, 2963, 5771, 5872, 6371, 6709, 7083, 9073, 9127, 9435, 9704, 13136, 16148, 16201, 16519, 16950, 20100, 20166, 20366, 20631, 20669]}, "edge": {"target": [], "time": []}}, "mouseout": {"state": {"target": ["0", "10", "8", "9", "8", "10", "8", "27", "26", "24", "31", "30", "30", "32", "31", "31", "30", "33", "33", "30", "24", "26", "29", "24", "23"], "time": [2056, 2272, 2404, 2936, 3014, 5820, 6003, 6682, 6735, 7113, 9100, 9309, 9457, 10022, 13641, 16121, 16175, 16368, 16922, 16977, 20123, 20239, 20568, 20664, 20823]}, "edge": {"target": [], "time": []}}}, "displayed_time": "26.49", "trialTime": 28209, "trial_type": "mouselab-mdp", "trial_index": 26, "time_elapsed": 1078738, "internal_node_id": "0.0-6.0-1.0-11.0"}}, {"uniqueid": "w14730501:a56358067", "current_trial": 27, "dateTime": 1693482837417, "trialdata": {"revealed_states": [], "clicked_states": ["18", "20"], "num_clicks_accrued": [0, 0, 0, 0, 0, 0, 0, 0, 0, 0, 0, 0, 0], "stateRewards": ["", -2, -1, -6, -14, -55, 78, -13, 11, 14, -71, 59, 2, 2, 6, -6, 9, 38, 14, 7, 85, 11, 68, 1, -4, -1, -3, -63, -85, 9, -2, 63, -86, -10], "withholdReward": false, "trial_id": "mdp_trial_13", "block": "test", "trialIndex": 16, "score": 97.7, "costs": -4.3, "simulationMode": [null, null, null, null, null], "rewards": [2, 2, 6, 7, 85], "path": ["0", "0", "12", "13", "14", "19", "20"], "rt": [8558, 17, 116, 16, 178], "actions": ["right", "right", "right", "down", "right"], "actionTimes": [9892, 10448, 11099, 11652, 12356], "queries": {"click": {"state": {"target": ["18", "20"], "time": [2205, 6260]}, "edge": {"target": [], "time": []}}, "mouseover": {"state": {"target": ["12", "13", "18", "13", "14", "19", "20", "22"], "time": [1623, 1663, 2019, 2409, 4497, 5684, 6132, 9299]}, "edge": {"target": [], "time": []}}, "mouseout": {"state": {"target": ["0", "12", "13", "18", "13", "14", "19", "20", "22"], "time": [1586, 1658, 1698, 2380, 2437, 4524, 6067, 6385, 10090]}, "edge": {"target": [], "time": []}}}, "displayed_time": "15.34", "trialTime": 16844, "trial_type": "mouselab-mdp", "trial_index": 27, "time_elapsed": 1095987, "internal_node_id": "0.0-6.0-1.0-12.0"}}, {"uniqueid": "w14730501:a56358067", "current_trial": 28, "dateTime": 1693482864097, "trialdata": {"revealed_states": [], "clicked_states": ["7", "10", "6", "22", "31"], "num_clicks_accrued": [0, 0, 0, 0, 0, 0, 0, 0, 0, 0, 0, 0, 0], "stateRewards": ["", -1, 1, -5, -6, -78, 47, -13, 12, 48, -88, 20, 2, -3, -2, 13, -20, 37, -57, 14, -38, 30, 31, -2, -2, 8, 2, -23, 78, 28, 12, -74, -88, 8], "withholdReward": false, "trial_id": "mdp_trial_14", "block": "test", "trialIndex": 17, "score": 25.25, "costs": -10.75, "simulationMode": [null, null, null, null, null], "rewards": [-1, 1, -5, -6, 47], "path": ["0", "0", "1", "2", "3", "4", "6"], "rt": [20376, 17, 66, 50, 76], "actions": ["up", "up", "up", "right", "right"], "actionTimes": [22146, 22692, 23273, 23849, 24465], "queries": {"click": {"state": {"target": ["7", "10", "6", "22", "31"], "time": [3180, 6603, 10411, 14361, 18882]}, "edge": {"target": [], "time": []}}, "mouseover": {"state": {"target": ["1", "2", "7", "1", "1", "2", "10", "1", "7", "6", "18", "13", "22", "22", "13", "24", "31"], "time": [2369, 2791, 2853, 3487, 3833, 4014, 4230, 6822, 9919, 10166, 10656, 10734, 12900, 13175, 17950, 18417, 18697]}, "edge": {"target": [], "time": []}}, "mouseout": {"state": {"target": ["0", "1", "2", "7", "1", "1", "2", "10", "1", "7", "6", "18", "13", "22", "22", "22", "13", "24", "31"], "time": [2304, 2754, 2819, 3393, 3560, 3895, 4064, 6790, 6855, 10086, 10571, 10707, 10784, 12973, 14499, 17800, 18084, 18514, 18952]}, "edge": {"target": [], "time": []}}}, "displayed_time": "25.00", "trialTime": 26297, "trial_type": "mouselab-mdp", "trial_index": 28, "time_elapsed": 1122667, "internal_node_id": "0.0-6.0-1.0-13.0"}}, {"uniqueid": "w14730501:a56358067", "current_trial": 29, "dateTime": 1693482881577, "trialdata": {"revealed_states": [], "clicked_states": ["28", "18", "10"], "num_clicks_accrued": [0, 0, 0, 0, 0, 0, 0, 0, 0, 0, 0, 0, 0], "stateRewards": ["", -1, -3, -7, -7, -76, 30, -49, 11, -70, 56, 2, 1, 4, -3, -14, -59, -83, -25, -9, -21, -67, -73, -2, 4, 4, -9, -11, -32, 60, 9, -87, 22, -64], "withholdReward": false, "trial_id": "mdp_trial_15", "block": "test", "trialIndex": 18, "score": 49.55, "costs": -6.449999999999999, "simulationMode": [null, null, null, null, null], "rewards": [-1, -3, -7, 11, 56], "path": ["0", "0", "1", "2", "3", "8", "10"], "rt": [11614, 22, 102, 50, 118], "actions": ["up", "up", "up", "left", "down"], "actionTimes": [12846, 13406, 14046, 14630, 15286], "queries": {"click": {"state": {"target": ["28", "18", "10"], "time": [2320, 5776, 9271]}, "edge": {"target": [], "time": []}}, "mouseover": {"state": {"target": ["0", "31", "24", "28", "25", "24", "23", "1", "18", "12", "1", "10", "1", "1", "7"], "time": [1398, 1599, 1871, 2112, 2568, 2946, 3321, 5264, 5596, 5955, 8763, 9145, 9433, 9591, 11847]}, "edge": {"target": [], "time": []}}, "mouseout": {"state": {"target": ["0", "0", "31", "24", "28", "25", "24", "23", "1", "18", "12", "1", "10", "1", "1", "7", "12"], "time": [1261, 1516, 1712, 2048, 2471, 2828, 3222, 5214, 5331, 5906, 5982, 8843, 9384, 9565, 9799, 13210, 16294]}, "edge": {"target": [], "time": []}}}, "displayed_time": "15.80", "trialTime": 17094, "trial_type": "mouselab-mdp", "trial_index": 29, "time_elapsed": 1140147, "internal_node_id": "0.0-6.0-1.0-14.0"}}, {"uniqueid": "w14730501:a56358067", "current_trial": 30, "dateTime": 1693482898656, "trialdata": {"revealed_states": [], "clicked_states": ["5", "7"], "num_clicks_accrued": [0, 0, 0, 0, 0, 0, 0, 0, 0, 0, 0, 0, 0], "stateRewards": ["", 1, -1, 4, -2, -75, -75, 84, -9, -60, -79, 59, 2, -4, 8, 9, -17, -82, 80, 14, -4, 49, 49, -1, 3, 6, -11, -33, 34, 55, 9, -57, 5, 59], "withholdReward": false, "trial_id": "mdp_trial_16", "block": "test", "trialIndex": 19, "score": 81.7, "costs": -4.3, "simulationMode": [null, null, null, null, null], "rewards": [1, -1, 4, -2, 84], "path": ["0", "0", "1", "2", "3", "4", "7"], "rt": [7908, 23, 74, 41, 38], "actions": ["up", "up", "up", "right", "down"], "actionTimes": [9286, 9854, 10485, 11061, 11661], "queries": {"click": {"state": {"target": ["5", "7"], "time": [2311, 5495]}, "edge": {"target": [], "time": []}}, "mouseover": {"state": {"target": ["12", "7", "4", "5", "7", "18", "18", "2", "10", "10"], "time": [1438, 1805, 1863, 2069, 3355, 5744, 6419, 8341, 8467, 8540]}, "edge": {"target": [], "time": []}}, "mouseout": {"state": {"target": ["0", "12", "7", "4", "5", "7", "18", "18", "7", "7", "2", "10", "10", "1", "0"], "time": [1410, 1738, 1840, 2004, 2471, 5715, 5881, 7469, 8177, 8318, 8384, 8504, 12617, 12685, 12735]}, "edge": {"target": [], "time": []}}}, "displayed_time": "15.38", "trialTime": 16701, "trial_type": "mouselab-mdp", "trial_index": 30, "time_elapsed": 1157226, "internal_node_id": "0.0-6.0-1.0-15.0"}}, {"uniqueid": "w14730501:a56358067", "current_trial": 31, "dateTime": 1693482919536, "trialdata": {"revealed_states": [], "clicked_states": ["10", "7", "18", "28"], "num_clicks_accrued": [0, 0, 0, 0, 0, 0, 0, 0, 0, 0, 0, 0, 0], "stateRewards": ["", -2, 1, -7, -8, -37, -76, -87, 11, 30, -63, 80, -1, 4, 2, -1, 42, 17, 52, -3, -75, -80, -68, 2, -3, -5, -15, -48, 82, 24, -7, 5, -22, -71], "withholdReward": false, "trial_id": "mdp_trial_17", "block": "test", "trialIndex": 20, "score": 52.4, "costs": -8.6, "simulationMode": [null, null, null, null, null], "rewards": [2, -3, -5, -15, 82], "path": ["0", "0", "23", "24", "25", "26", "28"], "rt": [14141, 533, 178, 146, 141], "actions": ["left", "left", "left", "up", "right"], "actionTimes": [15572, 16643, 17347, 18003, 18675], "queries": {"click": {"state": {"target": ["10", "7", "18", "28"], "time": [2341, 5557, 8820, 12165]}, "edge": {"target": [], "time": []}}, "mouseover": {"state": {"target": ["1", "2", "10", "1", "7", "7", "18", "24", "24", "28"], "time": [1910, 1974, 2177, 2529, 4000, 4440, 8195, 9058, 9266, 10050]}, "edge": {"target": [], "time": []}}, "mouseout": {"state": {"target": ["0", "1", "2", "10", "10", "1", "7", "7", "18", "24", "24", "28"], "time": [1860, 1943, 2023, 2410, 2479, 3024, 4263, 5737, 8964, 9108, 9316, 12369]}, "edge": {"target": [], "time": []}}}, "displayed_time": "19.21", "trialTime": 20491, "trial_type": "mouselab-mdp", "trial_index": 31, "time_elapsed": 1178106, "internal_node_id": "0.0-6.0-1.0-16.0"}}, {"uniqueid": "w14730501:a56358067", "current_trial": 32, "dateTime": 1693482940479, "trialdata": {"revealed_states": [], "clicked_states": ["28", "18", "22", "31"], "num_clicks_accrued": [0, 0, 0, 0, 0, 0, 0, 0, 0, 0, 0, 0, 0], "stateRewards": ["", 1, 2, -3, -5, 66, -50, -47, -5, 1, 28, -27, 1, 1, -1, -6, 37, -25, 56, 1, -82, -66, -40, -1, -4, -7, 15, -61, -23, 26, 10, 14, -56, 29], "withholdReward": false, "trial_id": "mdp_trial_18", "block": "test", "trialIndex": 21, "score": 42.4, "costs": -8.6, "simulationMode": [null, null, null, null, null], "rewards": [1, 1, -1, -6, 56], "path": ["0", "0", "12", "13", "14", "15", "18"], "rt": [14895, 41, 181, 80, 113], "actions": ["right", "right", "right", "up", "left"], "actionTimes": [16123, 16695, 17395, 18002, 18651], "queries": {"click": {"state": {"target": ["28", "18", "22", "31"], "time": [2757, 5909, 9181, 12412]}, "edge": {"target": [], "time": []}}, "mouseover": {"state": {"target": ["31", "24", "28", "12", "13", "18", "13", "22", "22", "31", "31", "31", "23", "0", "12"], "time": [2057, 2376, 2454, 2991, 3065, 3617, 6142, 6310, 6776, 9595, 9779, 10118, 14829, 15274, 15384]}, "edge": {"target": [], "time": []}}, "mouseout": {"state": {"target": ["0", "0", "31", "24", "28", "12", "13", "18", "13", "22", "22", "31", "31", "31", "23", "0", "12", "12"], "time": [622, 1259, 2341, 2421, 2911, 3023, 3264, 6115, 6192, 6390, 9340, 9644, 9830, 14623, 14856, 15309, 15408, 16675]}, "edge": {"target": [], "time": []}}}, "displayed_time": "19.18", "trialTime": 20571, "trial_type": "mouselab-mdp", "trial_index": 32, "time_elapsed": 1199049, "internal_node_id": "0.0-6.0-1.0-17.0"}}, {"uniqueid": "w14730501:a56358067", "current_trial": 33, "dateTime": 1693482964262, "trialdata": {"revealed_states": [], "clicked_states": ["7", "5", "10", "28", "18"], "num_clicks_accrued": [0, 0, 0, 0, 0, 0, 0, 0, 0, 0, 0, 0, 0], "stateRewards": ["", 2, 3, -6, -5, -3, 55, 40, 11, 61, 11, 51, 2, -4, -6, 9, -25, 29, -15, -6, 7, -77, -2, -2, -4, 1, 14, -43, -1, 56, -12, -54, 41, -74], "withholdReward": false, "trial_id": "mdp_trial_19", "block": "test", "trialIndex": 22, "score": 23.25, "costs": -10.75, "simulationMode": [null, null, null, null, null], "rewards": [2, 3, -6, -5, 40], "path": ["0", "0", "1", "2", "3", "4", "7"], "rt": [17273, 606, 216, 116, 130], "actions": ["up", "up", "up", "right", "down"], "actionTimes": [18721, 19865, 20617, 21264, 21921], "queries": {"click": {"state": {"target": ["7", "5", "10", "28", "18"], "time": [2474, 5778, 8906, 12234, 15556]}, "edge": {"target": [], "time": []}}, "mouseover": {"state": {"target": ["1", "7", "4", "5", "8", "11", "10", "28", "24", "28", "0", "12", "18", "12"], "time": [1986, 2139, 4631, 5003, 6040, 6127, 6332, 9247, 9596, 10884, 12473, 14741, 14840, 15783]}, "edge": {"target": [], "time": []}}, "mouseout": {"state": {"target": ["12", "0", "1", "7", "7", "4", "5", "8", "11", "10", "28", "24", "28", "0", "12", "18", "12"], "time": [653, 1922, 2054, 2503, 2709, 4690, 5944, 6068, 6235, 9152, 9297, 10789, 12387, 12522, 14790, 15686, 16201]}, "edge": {"target": [], "time": []}}}, "displayed_time": "22.44", "trialTime": 23409, "trial_type": "mouselab-mdp", "trial_index": 33, "time_elapsed": 1222833, "internal_node_id": "0.0-6.0-1.0-18.0"}}, {"uniqueid": "w14730501:a56358067", "current_trial": 34, "dateTime": 1693482992480, "trialdata": {"revealed_states": [], "clicked_states": ["29", "17", "18", "28", "7", "10"], "num_clicks_accrued": [0, 0, 0, 0, 0, 0, 0, 0, 0, 0, 0, 0, 0], "stateRewards": ["", 1, 1, -5, 8, -6, 45, 16, -6, -7, -22, -38, -1, -4, 8, -11, -16, 21, -45, -15, -59, -32, 42, -1, 3, 6, 11, -7, 34, -27, -8, 85, 43, -9], "withholdReward": false, "trial_id": "mdp_trial_20", "block": "test", "trialIndex": 23, "score": 40.1, "costs": -12.9, "simulationMode": [null, null, null, null, null], "rewards": [-1, 3, 6, 11, 34], "path": ["0", "0", "23", "24", "25", "26", "28"], "rt": [21053, 16, 112, 46, 111], "actions": ["left", "left", "left", "up", "right"], "actionTimes": [23217, 23767, 24393, 24968, 25593], "queries": {"click": {"state": {"target": ["29", "17", "18", "28", "7", "10"], "time": [3261, 6387, 9642, 12770, 16722, 19993]}, "edge": {"target": [], "time": []}}, "mouseover": {"state": {"target": ["26", "29", "26", "28", "12", "13", "14", "17", "18", "18", "1", "28", "1", "7", "25", "10"], "time": [2833, 2983, 3494, 3571, 4759, 4790, 4845, 5037, 7956, 8127, 9877, 10256, 13128, 16498, 16995, 17602]}, "edge": {"target": [], "time": []}}, "mouseout": {"state": {"target": ["12", "0", "26", "29", "26", "28", "12", "13", "14", "17", "18", "18", "1", "28", "1", "7", "25", "28", "10", "1"], "time": [1181, 2505, 2897, 3438, 3544, 3621, 4786, 4817, 4871, 6593, 7984, 9802, 9904, 12988, 13164, 16877, 17111, 17531, 20184, 27143]}, "edge": {"target": [], "time": []}}}, "displayed_time": "26.11", "trialTime": 27809, "trial_type": "mouselab-mdp", "trial_index": 34, "time_elapsed": 1251050, "internal_node_id": "0.0-6.0-1.0-19.0"}}, {"uniqueid": "w14730501:a56358067", "current_trial": 35, "dateTime": 1693483009495, "trialdata": {"revealed_states": [], "clicked_states": ["5", "9"], "num_clicks_accrued": [0, 0, 0, 0, 0, 0, 0, 0, 0, 0, 0, 0, 0], "stateRewards": ["", 2, -4, 4, 9, 69, 9, -75, 12, -86, 66, 25, -1, 3, 2, -13, -88, -3, 1, 4, -69, 49, -84, 2, -1, 4, 2, -18, -81, -52, -15, -69, -54, 25], "withholdReward": false, "trial_id": "mdp_trial_21", "block": "test", "trialIndex": 24, "score": 75.7, "costs": -4.3, "simulationMode": [null, null, null, null, null], "rewards": [2, -4, 4, 9, 69], "path": ["0", "0", "1", "2", "3", "4", "5"], "rt": [9069, 79, 69, 45, 78], "actions": ["up", "up", "up", "right", "up"], "actionTimes": [10462, 11053, 11653, 12237, 12861], "queries": {"click": {"state": {"target": ["5", "9"], "time": [3752, 7294]}, "edge": {"target": [], "time": []}}, "mouseover": {"state": {"target": ["1", "7", "4", "5", "9", "27", "27"], "time": [2289, 2640, 3319, 3505, 5116, 7559, 7747]}, "edge": {"target": [], "time": []}}, "mouseout": {"state": {"target": ["0", "1", "7", "4", "5", "9", "27", "27", "23"], "time": [1422, 2389, 3056, 3403, 4553, 7486, 7586, 14737, 14800]}, "edge": {"target": [], "time": []}}}, "displayed_time": "15.39", "trialTime": 16637, "trial_type": "mouselab-mdp", "trial_index": 35, "time_elapsed": 1268065, "internal_node_id": "0.0-6.0-1.0-20.0"}}, {"uniqueid": "w14730501:a56358067", "current_trial": 36, "dateTime": 1693483039839, "trialdata": {"revealed_states": [], "clicked_states": ["6", "11", "18", "28", "10", "7", "9"], "num_clicks_accrued": [0, 0, 0, 0, 0, 0, 0, 0, 0, 0, 0, 0, 0], "stateRewards": ["", 1, 3, -2, 15, 51, 15, -19, 11, 67, -45, -73, 2, 4, -2, -13, 36, 9, -28, 10, -30, 31, 16, 1, 2, -1, -16, 14, -22, 36, -1, 88, -5, 45], "withholdReward": false, "trial_id": "mdp_trial_22", "block": "test", "trialIndex": 25, "score": 64.95, "costs": -15.05, "simulationMode": [null, null, null, null, null], "rewards": [1, 3, -2, 11, 67], "path": ["0", "0", "1", "2", "3", "8", "9"], "rt": [24114, 28, 47, 46, 115], "actions": ["up", "up", "up", "left", "up"], "actionTimes": [25622, 26190, 26774, 27358, 28006], "queries": {"click": {"state": {"target": ["6", "11", "18", "28", "10", "7", "9"], "time": [2560, 5769, 8976, 12176, 15296, 18415, 22175]}, "edge": {"target": [], "time": []}}, "mouseover": {"state": {"target": ["2", "3", "6", "2", "10", "11", "10", "1", "18", "1", "28", "26", "28", "2", "10", "2", "7", "7", "1", "9", "4", "18", "7", "4", "5"], "time": [2045, 2083, 2311, 3414, 4793, 4895, 6036, 6678, 7705, 9219, 9522, 9623, 9824, 12810, 14123, 15493, 15547, 15737, 18789, 21958, 22626, 22795, 24814, 24868, 24989]}, "edge": {"target": [], "time": []}}, "mouseout": {"state": {"target": ["0", "2", "3", "6", "2", "10", "11", "10", "1", "18", "1", "28", "26", "28", "2", "10", "2", "7", "7", "1", "7", "9", "4", "18", "7", "7", "4", "5", "4", "7", "1", "23"], "time": [1537, 2079, 2108, 2682, 3470, 4821, 5985, 6063, 6708, 9123, 9245, 9596, 9773, 12383, 14074, 15465, 15520, 15641, 18625, 19347, 21707, 22356, 22676, 23193, 23293, 24842, 24895, 25871, 26037, 26130, 29071, 29370]}, "edge": {"target": [], "time": []}}}, "displayed_time": "28.54", "trialTime": 29959, "trial_type": "mouselab-mdp", "trial_index": 36, "time_elapsed": 1298409, "internal_node_id": "0.0-6.0-1.0-21.0"}}, {"uniqueid": "w14730501:a56358067", "current_trial": 37, "dateTime": 1693483069990, "trialdata": {"revealed_states": [], "clicked_states": ["28", "18", "7", "10", "9", "5", "6"], "num_clicks_accrued": [0, 0, 0, 0, 0, 0, 0, 0, 0, 0, 0, 0, 0], "stateRewards": ["", 2, 3, -3, 12, -43, 81, -82, -15, 58, -7, -75, -1, -1, 3, -5, 50, -25, -8, 4, 66, 65, -66, 2, -4, 2, -1, -10, 10, 37, 11, 88, -37, 8], "withholdReward": false, "trial_id": "mdp_trial_23", "block": "test", "trialIndex": 26, "score": 79.95, "costs": -15.05, "simulationMode": [null, null, null, null, null], "rewards": [2, 3, -3, 12, 81], "path": ["0", "0", "1", "2", "3", "4", "6"], "rt": [23600, 553, 238, 162, 240], "actions": ["up", "up", "up", "right", "right"], "actionTimes": [24686, 25758, 26534, 27222, 27990], "queries": {"click": {"state": {"target": ["28", "18", "7", "10", "9", "5", "6"], "time": [1959, 5072, 8287, 11591, 14839, 18095, 21287]}, "edge": {"target": [], "time": []}}, "mouseover": {"state": {"target": ["28", "18", "23", "1", "7", "2", "10", "9", "9", "4", "5", "5", "6", "6", "11", "11"], "time": [1768, 2434, 5450, 5666, 7814, 8456, 8938, 12290, 14681, 15842, 16427, 16957, 18608, 20411, 21723, 22070]}, "edge": {"target": [], "time": []}}, "mouseout": {"state": {"target": ["0", "28", "18", "23", "1", "7", "2", "10", "9", "9", "4", "5", "5", "6", "6", "11", "11", "1"], "time": [1407, 2082, 5353, 5615, 6099, 8429, 8483, 11812, 14354, 15000, 16219, 16800, 18316, 18925, 21446, 21860, 25008, 25227]}, "edge": {"target": [], "time": []}}}, "displayed_time": "28.53", "trialTime": 29758, "trial_type": "mouselab-mdp", "trial_index": 37, "time_elapsed": 1328560, "internal_node_id": "0.0-6.0-1.0-22.0"}}, {"uniqueid": "w14730501:a56358067", "current_trial": 38, "dateTime": 1693483418850, "trialdata": {"revealed_states": [], "clicked_states": ["22", "31", "28", "18", "5", "9", "10", "7"], "num_clicks_accrued": [0, 0, 0, 0, 0, 0, 0, 0, 0, 0, 0, 0, 0], "stateRewards": ["", 2, -4, -4, 13, -80, 62, 13, -11, 57, -13, -44, 1, 4, 3, -4, -29, -88, 15, 16, -58, 68, -45, -1, -3, -1, -9, -44, -86, -19, -7, -36, 59, 66], "withholdReward": false, "trial_id": "mdp_trial_24", "block": "test", "trialIndex": 27, "score": 22.799999999999997, "costs": -17.2, "simulationMode": [null, null, null, null, null], "rewards": [2, -4, -4, -11, 57], "path": ["0", "0", "1", "2", "3", "8", "9"], "rt": [28162, 493, 138, 138, 191], "actions": ["up", "up", "up", "left", "up"], "actionTimes": [29520, 30552, 31216, 31880, 32592], "queries": {"click": {"state": {"target": ["22", "31", "28", "18", "5", "9", "10", "7"], "time": [2898, 6081, 9545, 12721, 16481, 19753, 23281, 26410]}, "edge": {"target": [], "time": []}}, "mouseover": {"state": {"target": ["1", "12", "22", "31", "24", "23", "23", "28", "28", "1", "18", "12", "12", "7", "4", "5", "3", "2", "8", "9", "9", "3", "10", "10", "2", "7", "2", "1"], "time": [1399, 1733, 1918, 3310, 6423, 6819, 8451, 8711, 9384, 9736, 12018, 12996, 13201, 16015, 16069, 16232, 16703, 16757, 17583, 17928, 19580, 19951, 20646, 21193, 23461, 23837, 26817, 27085]}, "edge": {"target": [], "time": []}}, "mouseout": {"state": {"target": ["0", "1", "12", "22", "31", "24", "23", "23", "28", "28", "1", "18", "12", "12", "7", "4", "5", "3", "2", "8", "9", "9", "3", "10", "10", "2", "7", "2", "1", "5", "26", "33", "25", "6", "16"], "time": [1395, 1451, 1766, 3140, 6257, 6744, 7175, 8502, 8898, 9663, 9771, 12899, 13069, 13299, 16046, 16113, 16653, 16730, 16786, 17684, 18451, 19924, 20255, 21044, 23434, 23605, 26603, 26847, 27113, 97759, 97809, 98111, 98148, 344148, 345346]}, "edge": {"target": [], "time": []}}}, "displayed_time": "33.12", "trialTime": 348476, "trial_type": "mouselab-mdp", "trial_index": 38, "time_elapsed": 1677420, "internal_node_id": "0.0-6.0-1.0-23.0"}}, {"uniqueid": "w14730501:a56358067", "current_trial": 39, "dateTime": 1693483446361, "trialdata": {"revealed_states": [], "clicked_states": ["10", "7", "5", "9", "6", "11"], "num_clicks_accrued": [0, 0, 0, 0, 0, 0, 0, 0, 0, 0, 0, 0, 0], "stateRewards": ["", 1, -2, -2, 10, -31, -77, 35, 9, -47, 8, 48, -2, 1, -4, -3, -26, -50, 43, -11, 76, -38, 17, 1, -1, 6, 10, 15, -9, 12, -8, 85, 11, -55], "withholdReward": false, "trial_id": "mdp_trial_25", "block": "test", "trialIndex": 28, "score": 41.1, "costs": -12.9, "simulationMode": [null, null, null, null, null], "rewards": [1, -2, -2, 9, 48], "path": ["0", "0", "1", "2", "3", "8", "11"], "rt": [21698, 19, 127, 16, 111], "actions": ["up", "up", "up", "left", "left"], "actionTimes": [23075, 23610, 24266, 24815, 25453], "queries": {"click": {"state": {"target": ["10", "7", "5", "9", "6", "11"], "time": [2629, 5908, 9317, 12780, 16020, 19644]}, "edge": {"target": [], "time": []}}, "mouseover": {"state": {"target": ["10", "7", "4", "5", "2", "1", "12", "13", "18", "6", "4", "9", "4", "6", "18", "18", "7", "8", "11", "10", "1", "15", "18"], "time": [2261, 3334, 8401, 8908, 9541, 9834, 9888, 9991, 11279, 11360, 12471, 12570, 12963, 15806, 16179, 19155, 19190, 19269, 19453, 19786, 19817, 22157, 22771]}, "edge": {"target": [], "time": []}}, "mouseout": {"state": {"target": ["0", "10", "7", "4", "5", "2", "1", "12", "13", "18", "6", "4", "9", "4", "6", "18", "18", "7", "8", "11", "10", "1", "15"], "time": [1890, 2691, 8303, 8522, 9474, 9593, 9861, 9941, 11202, 11308, 11387, 12496, 12911, 12991, 16152, 16230, 19187, 19214, 19388, 19759, 19813, 19844, 22446]}, "edge": {"target": [], "time": []}}}, "displayed_time": "25.95", "trialTime": 26986, "trial_type": "mouselab-mdp", "trial_index": 39, "time_elapsed": 1704931, "internal_node_id": "0.0-6.0-1.0-24.0"}}, {"uniqueid": "w14730501:a56358067", "current_trial": 40, "dateTime": 1693483486401, "trialdata": {"revealed_states": [], "clicked_states": ["18", "28", "9", "5", "7", "10", "27", "16", "17", "29"], "num_clicks_accrued": [0, 0, 0, 0, 0, 0, 0, 0, 0, 0, 0, 0, 0], "stateRewards": ["", -2, -4, 6, 14, -34, 49, 36, -8, -3, 32, -4, 1, -2, 1, -8, -20, -71, -57, -7, -86, -62, -16, -2, -3, -5, 11, 23, -21, 53, 5, -5, 85, 73], "withholdReward": false, "trial_id": "mdp_trial_26", "block": "test", "trialIndex": 29, "score": 32.5, "costs": -21.499999999999996, "simulationMode": [null, null, null, null, null], "rewards": [-2, -3, -5, 11, 53], "path": ["0", "0", "23", "24", "25", "26", "29"], "rt": [33892, 17, 61, 26, 93], "actions": ["left", "left", "left", "up", "left"], "actionTimes": [35828, 36364, 36955, 37515, 38148], "queries": {"click": {"state": {"target": ["18", "28", "9", "5", "7", "10", "27", "16", "17", "29"], "time": [2885, 6093, 9436, 12605, 15805, 19165, 22413, 25684, 29245, 32398]}, "edge": {"target": [], "time": []}}, "mouseover": {"state": {"target": ["12", "13", "18", "13", "12", "0", "23", "28", "24", "9", "3", "7", "4", "5", "5", "7", "1", "10", "12", "24", "26", "27", "23", "22", "19", "17", "17", "16", "17", "17", "17", "14", "13", "12", "24", "26", "29", "25", "24", "23"], "time": [2326, 2382, 2758, 3084, 3490, 4971, 5026, 5317, 6451, 9093, 9620, 9689, 9948, 10298, 12442, 13121, 18277, 19024, 19443, 21557, 21884, 22020, 22586, 22711, 22766, 23283, 23337, 25225, 25923, 26139, 28905, 29476, 29531, 29807, 29932, 30056, 30291, 32602, 32634, 32790]}, "edge": {"target": [], "time": []}}, "mouseout": {"state": {"target": ["18", "13", "0", "12", "13", "18", "13", "12", "0", "23", "28", "24", "9", "3", "7", "4", "5", "5", "7", "1", "10", "12", "24", "26", "27", "23", "22", "19", "17", "17", "16", "17", "17", "17", "14", "13", "12", "24", "26", "29", "25", "24", "23"], "time": [593, 677, 2295, 2358, 2628, 3010, 3183, 3542, 4999, 5194, 6231, 6836, 9569, 9651, 9921, 10182, 10547, 12753, 15973, 18306, 19274, 19470, 21585, 21978, 22536, 22614, 22738, 22793, 23310, 23410, 25827, 26022, 26174, 29379, 29504, 29582, 29834, 29959, 30082, 32575, 32629, 32665, 33002]}, "edge": {"target": [], "time": []}}}, "displayed_time": "38.67", "trialTime": 39636, "trial_type": "mouselab-mdp", "trial_index": 40, "time_elapsed": 1744971, "internal_node_id": "0.0-6.0-1.0-25.0"}}, {"uniqueid": "w14730501:a56358067", "current_trial": 41, "dateTime": 1693483503697, "trialdata": {"revealed_states": [], "clicked_states": ["31"], "num_clicks_accrued": [0, 0, 0, 0, 0, 0, 0, 0, 0, 0, 0, 0, 0], "stateRewards": ["", 1, -3, 4, 13, -72, 52, 5, 5, -58, 5, 14, 2, 1, 3, -14, -86, -4, 73, 6, -58, -50, 49, 2, -3, -4, 2, 33, -41, 42, -11, 81, 45, 53], "withholdReward": false, "trial_id": "mdp_trial_27", "block": "test", "trialIndex": 30, "score": 62.85, "costs": -2.15, "simulationMode": [null, null, null, null, null], "rewards": [2, -3, -4, -11, 81], "path": ["0", "0", "23", "24", "25", "30", "31"], "rt": [4422, 546, 159, 133, 132], "actions": ["left", "left", "left", "down", "right"], "actionTimes": [5957, 7028, 7732, 8388, 9044], "queries": {"click": {"state": {"target": ["31"], "time": [2514]}, "edge": {"target": [], "time": []}}, "mouseover": {"state": {"target": ["31"], "time": [2371]}, "edge": {"target": [], "time": []}}, "mouseout": {"state": {"target": ["0", "31"], "time": [1583, 2644]}, "edge": {"target": [], "time": []}}}, "displayed_time": "15.54", "trialTime": 16901, "trial_type": "mouselab-mdp", "trial_index": 41, "time_elapsed": 1762268, "internal_node_id": "0.0-6.0-1.0-26.0"}}, {"uniqueid": "w14730501:a56358067", "current_trial": 42, "dateTime": 1693483520617, "trialdata": {"revealed_states": [], "clicked_states": ["22", "32", "7"], "num_clicks_accrued": [0, 0, 0, 0, 0, 0, 0, 0, 0, 0, 0, 0, 0], "stateRewards": ["", -1, -3, -3, 1, -38, 2, -53, -2, -1, -81, 70, -1, 1, -5, -9, 46, 15, 35, -1, -22, 38, 59, -2, 4, -8, 13, 1, -83, -43, 4, 76, 13, 48], "withholdReward": false, "trial_id": "mdp_trial_28", "block": "test", "trialIndex": 31, "score": 46.55, "costs": -6.449999999999999, "simulationMode": [null, null, null, null, null], "rewards": [-1, 1, -5, -1, 59], "path": ["0", "0", "12", "13", "14", "19", "22"], "rt": [10497, 115, 141, 491, 104], "actions": ["right", "right", "right", "down", "left"], "actionTimes": [11815, 12462, 13135, 14158, 14774], "queries": {"click": {"state": {"target": ["22", "32", "7"], "time": [2296, 5384, 8648]}, "edge": {"target": [], "time": []}}, "mouseover": {"state": {"target": ["21", "22", "21", "32", "32", "21", "13", "7", "13", "19", "22"], "time": [1873, 2106, 2465, 4296, 4521, 6490, 7627, 7729, 8916, 8992, 9756]}, "edge": {"target": [], "time": []}}, "mouseout": {"state": {"target": ["0", "21", "22", "21", "32", "32", "21", "22", "13", "7", "13", "19", "22"], "time": [1348, 1936, 2400, 2836, 4475, 5625, 7525, 7576, 7655, 8842, 8942, 9569, 9784]}, "edge": {"target": [], "time": []}}}, "displayed_time": "15.32", "trialTime": 16526, "trial_type": "mouselab-mdp", "trial_index": 42, "time_elapsed": 1779187, "internal_node_id": "0.0-6.0-1.0-27.0"}}, {"uniqueid": "w14730501:a56358067", "current_trial": 43, "dateTime": 1693483540480, "trialdata": {"revealed_states": [], "clicked_states": ["28"], "num_clicks_accrued": [0, 0, 0, 0, 0, 0, 0, 0, 0, 0, 0, 0, 0], "stateRewards": ["", -2, 3, -5, -7, 66, 43, -60, -4, -70, -75, 4, -1, 2, 2, -13, 54, 11, -40, -1, 77, 32, 15, -2, 3, -8, -9, -35, 83, -27, 6, -74, -34, 44], "withholdReward": false, "trial_id": "mdp_trial_29", "block": "test", "trialIndex": 32, "score": 64.85, "costs": -2.15, "simulationMode": [null, null, null, null, null], "rewards": [-2, 3, -8, -9, 83], "path": ["0", "0", "23", "24", "25", "26", "28"], "rt": [4553, 58, 64, 34, 23], "actions": ["left", "left", "left", "up", "right"], "actionTimes": [6627, 7226, 7826, 8386, 8946], "queries": {"click": {"state": {"target": ["28"], "time": [3059]}, "edge": {"target": [], "time": []}}, "mouseover": {"state": {"target": ["0", "24", "28", "0", "22", "22", "15"], "time": [2335, 2684, 2915, 3240, 3612, 4983, 6167]}, "edge": {"target": [], "time": []}}, "mouseout": {"state": {"target": ["0", "0", "0", "24", "28", "0", "22", "22", "15", "18", "25"], "time": [1550, 2101, 2465, 2868, 3187, 3272, 3639, 5056, 6348, 10016, 18296]}, "edge": {"target": [], "time": []}}}, "displayed_time": "16.07", "trialTime": 19473, "trial_type": "mouselab-mdp", "trial_index": 43, "time_elapsed": 1799050, "internal_node_id": "0.0-6.0-1.0-28.0"}}, {"uniqueid": "w14730501:a56358067", "current_trial": 44, "dateTime": 1693483557792, "trialdata": {"revealed_states": [], "clicked_states": ["6", "11"], "num_clicks_accrued": [0, 0, 0, 0, 0, 0, 0, 0, 0, 0, 0, 0, 0], "stateRewards": ["", -2, 2, -1, -6, 22, 6, 6, -5, 70, -42, 65, 1, 3, 5, -6, -67, -9, 3, 14, 7, -62, -13, -2, 4, 1, 16, 42, -21, -52, -8, 32, 53, 81], "withholdReward": false, "trial_id": "mdp_trial_30", "block": "test", "trialIndex": 33, "score": 54.7, "costs": -4.3, "simulationMode": [null, null, null, null, null], "rewards": [-2, 2, -1, -5, 65], "path": ["0", "0", "1", "2", "3", "8", "11"], "rt": [7819, 82, 90, 42, 117], "actions": ["up", "up", "up", "left", "left"], "actionTimes": [9618, 10225, 10849, 11425, 12089], "queries": {"click": {"state": {"target": ["6", "11"], "time": [2907, 6122]}, "edge": {"target": [], "time": []}}, "mouseover": {"state": {"target": ["0", "16", "6", "6", "18", "22", "10", "11", "11", "1", "13", "15"], "time": [1826, 2267, 2517, 2722, 3086, 3195, 5232, 5265, 5569, 6363, 6444, 9032]}, "edge": {"target": [], "time": []}}, "mouseout": {"state": {"target": ["31", "0", "0", "16", "6", "6", "18", "22", "10", "11", "11", "1", "13", "15", "16", "7", "12"], "time": [699, 1399, 1966, 2304, 2555, 3031, 3136, 5133, 5261, 5293, 6288, 6392, 6472, 9064, 13647, 13828, 14386]}, "edge": {"target": [], "time": []}}}, "displayed_time": "15.80", "trialTime": 16873, "trial_type": "mouselab-mdp", "trial_index": 44, "time_elapsed": 1816362, "internal_node_id": "0.0-6.0-1.0-29.0"}}, {"uniqueid": "w14730501:a56358067", "current_trial": 45, "dateTime": 1693483591311, "trialdata": {"revealed_states": [], "clicked_states": ["7", "16", "28", "31", "22", "18", "10"], "num_clicks_accrued": [0, 0, 0, 0, 0, 0, 0, 0, 0, 0, 0, 0, 0], "stateRewards": ["", 1, 2, -3, 6, -88, 74, -45, 7, -46, 40, -77, 1, -4, 4, 3, 22, -25, -59, 8, -83, 19, -60, -1, -1, -1, -8, 26, -29, 64, -7, -88, -51, -55], "withholdReward": false, "trial_id": "mdp_trial_31", "block": "test", "trialIndex": 34, "score": 31.95, "costs": -15.05, "simulationMode": [null, null, null, null, null], "rewards": [1, 2, -3, 7, 40], "path": ["0", "0", "1", "2", "3", "8", "10"], "rt": [27010, 76, 103, 388, 102], "actions": ["up", "up", "up", "left", "down"], "actionTimes": [28394, 28985, 29633, 30554, 31193], "queries": {"click": {"state": {"target": ["7", "16", "28", "31", "22", "18", "10"], "time": [2518, 5798, 9461, 12843, 16979, 20651, 25142]}, "edge": {"target": [], "time": []}}, "mouseover": {"state": {"target": ["1", "2", "7", "17", "17", "16", "18", "12", "31", "25", "28", "23", "31", "22", "22", "13", "18", "13", "22", "14", "15", "10", "0"], "time": [2042, 2142, 2296, 2729, 5246, 5441, 5949, 5982, 6454, 7751, 8807, 9751, 12742, 16425, 16688, 20271, 20487, 20786, 23988, 24071, 24369, 24986, 25393]}, "edge": {"target": [], "time": []}}, "mouseout": {"state": {"target": ["12", "0", "1", "2", "7", "17", "17", "16", "18", "12", "31", "25", "28", "23", "31", "22", "22", "22", "13", "18", "13", "22", "14", "15", "10", "0"], "time": [191, 1525, 2092, 2261, 2630, 2757, 5326, 5921, 5978, 6012, 6484, 7781, 9676, 9780, 12947, 16491, 18077, 20187, 20423, 20759, 20814, 24021, 24206, 24392, 25261, 25422]}, "edge": {"target": [], "time": []}}}, "displayed_time": "31.72", "trialTime": 33041, "trial_type": "mouselab-mdp", "trial_index": 45, "time_elapsed": 1849881, "internal_node_id": "0.0-6.0-1.0-30.0"}}, {"uniqueid": "w14730501:a56358067", "current_trial": 46, "dateTime": 1693483607504, "trialdata": {"revealed_states": [], "clicked_states": ["9"], "num_clicks_accrued": [0, 0, 0, 0, 0, 0, 0, 0, 0, 0, 0, 0, 0], "stateRewards": ["", -1, -3, -6, 14, 41, 18, 63, -14, 80, 21, 17, -2, -4, -2, -5, 13, 70, 8, -4, -64, -10, -20, 2, -1, 4, -1, -17, -55, 42, -7, 47, 54, 15], "withholdReward": false, "trial_id": "mdp_trial_32", "block": "test", "trialIndex": 35, "score": 53.85, "costs": -2.15, "simulationMode": [null, null, null, null, null], "rewards": [-1, -3, -6, -14, 80], "path": ["0", "0", "1", "2", "3", "8", "9"], "rt": [4520, 43, 106, 514, 223], "actions": ["up", "up", "up", "left", "up"], "actionTimes": [5676, 6256, 6896, 7960, 8712], "queries": {"click": {"state": {"target": ["9"], "time": [1993]}, "edge": {"target": [], "time": []}}, "mouseover": {"state": {"target": ["0", "3", "9", "3", "2", "12", "0", "23", "1", "10"], "time": [1188, 1553, 1836, 2147, 2205, 3835, 3940, 3995, 4688, 5320]}, "edge": {"target": [], "time": []}}, "mouseout": {"state": {"target": ["0", "0", "3", "9", "3", "2", "12", "0", "23", "1", "10"], "time": [835, 1234, 1617, 2118, 2175, 2429, 3911, 3968, 4048, 4918, 5420]}, "edge": {"target": [], "time": []}}}, "displayed_time": "15.16", "trialTime": 15784, "trial_type": "mouselab-mdp", "trial_index": 46, "time_elapsed": 1866074, "internal_node_id": "0.0-6.0-1.0-31.0"}}, {"uniqueid": "w14730501:a56358067", "current_trial": 47, "dateTime": 1693483632638, "trialdata": {"revealed_states": [], "clicked_states": ["7", "25", "27", "28", "29"], "num_clicks_accrued": [0, 0, 0, 0, 0, 0, 0, 0, 0, 0, 0, 0, 0], "stateRewards": ["", 1, 2, -5, 14, 54, -14, -25, 16, -5, -87, 78, -1, 1, 3, -3, 52, 53, 53, -10, 73, -69, -48, 2, 3, 1, 8, -62, -7, 85, 7, 82, 52, -28], "withholdReward": false, "trial_id": "mdp_trial_33", "block": "test", "trialIndex": 36, "score": -82.55, "costs": -9.55, "simulationMode": [null, null, null, null, null], "rewards": [1, 2, -5, 16, -87], "path": ["0", "0", "1", "2", "3", "8", "10"], "rt": [16884, 1561, 115, 132, 69], "actions": ["up", "up", "up", "left", "down"], "actionTimes": [18571, 20659, 21307, 21979, 22579], "queries": {"click": {"state": {"target": ["7", "25", "27", "28", "29"], "time": [2705, 5851, 7876, 11294, 15158]}, "edge": {"target": [], "time": []}}, "mouseover": {"state": {"target": ["0", "1", "7", "23", "24", "24", "25", "26", "27", "28", "23", "28", "27", "24", "24", "28", "25", "29", "30", "30", "30", "30", "33"], "time": [2219, 2350, 2483, 2909, 2993, 4809, 5003, 6082, 6139, 6479, 6536, 7252, 7501, 8164, 9189, 11116, 11480, 14780, 15449, 17106, 17434, 17800, 18162]}, "edge": {"target": [], "time": []}}, "mouseout": {"state": {"target": ["0", "0", "1", "7", "23", "24", "24", "25", "26", "27", "28", "23", "28", "27", "24", "24", "28", "25", "29", "29", "30", "30", "30", "30", "33"], "time": [1720, 2254, 2374, 2832, 2938, 4781, 4838, 5919, 6110, 6352, 6507, 6965, 7365, 8094, 8194, 9481, 11429, 14516, 15224, 15345, 15480, 17332, 17577, 18030, 18496]}, "edge": {"target": [], "time": []}}}, "displayed_time": "23.10", "trialTime": 24706, "trial_type": "mouselab-mdp", "trial_index": 47, "time_elapsed": 1891208, "internal_node_id": "0.0-6.0-1.0-32.0"}}, {"uniqueid": "w14730501:a56358067", "current_trial": 48, "dateTime": 1693483658927, "trialdata": {"revealed_states": [], "clicked_states": ["29", "28", "9", "10", "7", "5"], "num_clicks_accrued": [0, 0, 0, 0, 0, 0, 0, 0, 0, 0, 0, 0, 0], "stateRewards": ["", 1, -1, 8, 4, 76, -33, -17, -3, -1, -54, -74, -2, 2, -5, 13, -51, 63, 83, 1, 84, 29, -36, 2, -1, 7, -12, -10, -44, -43, -14, 8, -69, 19], "withholdReward": false, "trial_id": "mdp_trial_34", "block": "test", "trialIndex": 37, "score": 75.1, "costs": -12.9, "simulationMode": [null, null, null, null, null], "rewards": [1, -1, 8, 4, 76], "path": ["0", "0", "1", "2", "3", "4", "5"], "rt": [20088, 546, 95, 47, 98], "actions": ["up", "up", "up", "right", "up"], "actionTimes": [21395, 22458, 23082, 23674, 24306], "queries": {"click": {"state": {"target": ["29", "28", "9", "10", "7", "5"], "time": [2142, 5300, 8388, 11773, 14924, 18100]}, "edge": {"target": [], "time": []}}, "mouseover": {"state": {"target": ["23", "26", "29", "26", "28", "10", "8", "9", "3", "4", "2", "10", "2", "7", "7", "6", "5", "4", "18", "18"], "time": [1691, 1824, 2008, 3808, 4010, 6058, 6599, 6805, 8617, 9338, 9417, 9824, 11962, 12017, 12272, 15202, 15872, 18295, 18443, 18737]}, "edge": {"target": [], "time": []}}, "mouseout": {"state": {"target": ["30", "31", "0", "23", "26", "29", "26", "28", "10", "8", "9", "3", "4", "2", "10", "2", "7", "7", "6", "5", "4", "18", "18", "7", "0"], "time": [541, 608, 1458, 1715, 1958, 3755, 3933, 5463, 6110, 6749, 8581, 8657, 9366, 9494, 11935, 12013, 12044, 15152, 15230, 18268, 18323, 18590, 18863, 19622, 25456]}, "edge": {"target": [], "time": []}}}, "displayed_time": "24.83", "trialTime": 25858, "trial_type": "mouselab-mdp", "trial_index": 48, "time_elapsed": 1917497, "internal_node_id": "0.0-6.0-1.0-33.0"}}, {"uniqueid": "w14730501:a56358067", "current_trial": 49, "dateTime": 1693483698822, "trialdata": {"revealed_states": [], "clicked_states": ["16", "18", "17", "7", "6", "9", "10", "27", "28", "31"], "num_clicks_accrued": [0, 0, 0, 0, 0, 0, 0, 0, 0, 0, 0, 0, 0], "stateRewards": ["", 2, -1, -3, 16, -3, -16, -62, -1, 13, -26, 43, -1, 4, 3, -9, -54, -37, -3, -12, -71, -68, -57, 1, -3, 2, -9, 2, -2, -9, -11, 84, -52, 55], "withholdReward": false, "trial_id": "mdp_trial_35", "block": "test", "trialIndex": 38, "score": 51.5, "costs": -21.499999999999996, "simulationMode": [null, null, null, null, null], "rewards": [1, -3, 2, -11, 84], "path": ["0", "0", "23", "24", "25", "30", "31"], "rt": [33341, 516, 293, 126, 173], "actions": ["left", "left", "left", "down", "right"], "actionTimes": [34540, 35609, 36441, 37089, 37793], "queries": {"click": {"state": {"target": ["16", "18", "17", "7", "6", "9", "10", "27", "28", "31"], "time": [2051, 5259, 8427, 11507, 14706, 17843, 21243, 24354, 27562, 31204]}, "edge": {"target": [], "time": []}}, "mouseover": {"state": {"target": ["12", "18", "16", "18", "15", "17", "16", "6", "7", "6", "5", "5", "9", "8", "10", "10", "28", "25", "25", "26", "27", "28", "23", "31"], "time": [1232, 1344, 1863, 3845, 5491, 5569, 8710, 8792, 9422, 13349, 14982, 15139, 16918, 18026, 18057, 18532, 21589, 21632, 21817, 22123, 22341, 24632, 27771, 31057]}, "edge": {"target": [], "time": []}}, "mouseout": {"state": {"target": ["0", "12", "18", "16", "18", "15", "17", "16", "6", "7", "6", "5", "5", "9", "8", "10", "10", "28", "25", "25", "26", "27", "28", "23", "31", "31"], "time": [1228, 1279, 1398, 3605, 5463, 5542, 8648, 8740, 9183, 11750, 14908, 15009, 16628, 17999, 18053, 18108, 21556, 21628, 21700, 21868, 22197, 24533, 27720, 28080, 31320, 34504]}, "edge": {"target": [], "time": []}}}, "displayed_time": "38.32", "trialTime": 39481, "trial_type": "mouselab-mdp", "trial_index": 49, "time_elapsed": 1957393, "internal_node_id": "0.0-6.0-1.0-34.0"}}, {"uniqueid": "w14730501:a56358067", "current_trial": 50, "dateTime": 1693483715791, "trialdata": {"revealed_states": [], "clicked_states": [], "num_clicks_accrued": [0, 0, 0, 0, 0, 0, 0, 0, 0, 0, 0, 0, 0], "stateRewards": ["", -1, -4, -6, -15, 21, -67, -63, 9, 51, 69, -14, -1, 3, 8, -8, 39, 72, 63, 15, 19, 47, 15, 1, 4, 5, 16, -18, 34, 35, -14, -80, 40, 1], "withholdReward": false, "trial_id": "mdp_trial_36", "block": "test", "trialIndex": 39, "score": -89, "costs": 0, "simulationMode": [null, null, null, null, null], "rewards": [-1, -4, -6, -15, -63], "path": ["0", "0", "1", "2", "3", "4", "7"], "rt": [4657, 26, 62, 18, 45], "actions": ["up", "up", "up", "right", "down"], "actionTimes": [5822, 6397, 7006, 7565, 8141], "queries": {"click": {"state": {"target": [], "time": []}, "edge": {"target": [], "time": []}}, "mouseover": {"state": {"target": ["23", "24", "24", "23", "24", "31", "31", "31"], "time": [2009, 2075, 2279, 2358, 2516, 2910, 3209, 4025]}, "edge": {"target": [], "time": []}}, "mouseout": {"state": {"target": ["0", "23", "24", "24", "23", "24", "31", "31", "31"], "time": [1194, 2042, 2125, 2328, 2477, 2628, 3086, 3242, 4394]}, "edge": {"target": [], "time": []}}}, "displayed_time": "15.17", "trialTime": 16574, "trial_type": "mouselab-mdp", "trial_index": 50, "time_elapsed": 1974361, "internal_node_id": "0.0-6.0-1.0-35.0"}}, {"uniqueid": "w14730501:a56358067", "current_trial": 51, "dateTime": 1693483732158, "trialdata": {"revealed_states": [], "clicked_states": ["16", "7"], "num_clicks_accrued": [0, 0, 0, 0, 0, 0, 0, 0, 0, 0, 0, 0, 0], "stateRewards": ["", -1, 1, 8, -8, -49, 62, -78, 16, 28, -81, 78, -2, -3, -1, -4, 67, 49, -2, -13, -16, -39, 83, 1, -4, 4, -5, -20, 7, 84, 7, -32, -59, 19], "withholdReward": false, "trial_id": "mdp_trial_37", "block": "test", "trialIndex": 40, "score": 52.7, "costs": -4.3, "simulationMode": [null, null, null, null, null], "rewards": [-2, -3, -1, -4, 67], "path": ["0", "0", "12", "13", "14", "15", "16"], "rt": [7358, 160, 82, 525, 167], "actions": ["right", "right", "right", "up", "up"], "actionTimes": [8452, 9147, 9780, 10844, 11523], "queries": {"click": {"state": {"target": ["16", "7"], "time": [1988, 5120]}, "edge": {"target": [], "time": []}}, "mouseover": {"state": {"target": ["0", "16", "1", "7", "2", "10", "10"], "time": [1253, 1786, 3227, 3956, 5565, 5623, 5790]}, "edge": {"target": [], "time": []}}, "mouseout": {"state": {"target": ["12", "12", "0", "0", "16", "1", "7", "2", "10", "10", "10", "26", "24"], "time": [404, 520, 1120, 1303, 2132, 3446, 5535, 5594, 5675, 13153, 13702, 13899, 13966]}, "edge": {"target": [], "time": []}}}, "displayed_time": "15.10", "trialTime": 15924, "trial_type": "mouselab-mdp", "trial_index": 51, "time_elapsed": 1990728, "internal_node_id": "0.0-6.0-1.0-36.0"}}, {"uniqueid": "w14730501:a56358067", "current_trial": 52, "dateTime": 1693483749135, "trialdata": {"revealed_states": [], "clicked_states": ["28", "29", "17"], "num_clicks_accrued": [0, 0, 0, 0, 0, 0, 0, 0, 0, 0, 0, 0, 0], "stateRewards": ["", 1, 4, 5, 8, -55, -11, 8, 16, -37, 77, -22, -2, 3, -8, -10, 45, 87, -67, 4, 17, -33, -22, -1, -3, 7, 6, -39, -85, 75, -1, 7, -48, 45], "withholdReward": false, "trial_id": "mdp_trial_38", "block": "test", "trialIndex": 41, "score": 63.55, "costs": -6.449999999999999, "simulationMode": [null, null, null, null, null, null], "rewards": [-2, 3, -8, -10, 87], "path": ["0", "0", "12", "13", "14", "15", "17"], "rt": [8185, 2448, 47, 73, 49, 156], "actions": ["left", "right", "right", "right", "up", "right"], "actionTimes": [9478, 11930, 12514, 13138, 13714, 14418], "queries": {"click": {"state": {"target": ["28", "29", "17"], "time": [2220, 5405, 8540]}, "edge": {"target": [], "time": []}}, "mouseover": {"state": {"target": ["0", "28", "29", "26", "12", "13", "17", "15", "18"], "time": [1448, 2082, 4082, 5612, 5717, 6730, 7234, 8901, 8933]}, "edge": {"target": [], "time": []}}, "mouseout": {"state": {"target": ["0", "0", "28", "29", "26", "12", "13", "17", "15", "18"], "time": [1320, 1648, 2346, 5608, 5641, 5746, 7077, 8872, 8929, 8963]}, "edge": {"target": [], "time": []}}}, "displayed_time": "15.29", "trialTime": 16547, "trial_type": "mouselab-mdp", "trial_index": 52, "time_elapsed": 2007705, "internal_node_id": "0.0-6.0-1.0-37.0"}}, {"uniqueid": "w14730501:a56358067", "current_trial": 53, "dateTime": 1693483766574, "trialdata": {"revealed_states": [], "clicked_states": ["29", "25", "26"], "num_clicks_accrued": [0, 0, 0, 0, 0, 0, 0, 0, 0, 0, 0, 0, 0], "stateRewards": ["", 1, -2, 4, 7, -43, -83, -60, -5, -86, -80, 83, -1, -2, 6, 11, -15, 21, 13, 9, 29, -49, 11, -1, 4, -6, -11, 87, 40, 63, -8, -39, -11, 62], "withholdReward": false, "trial_id": "mdp_trial_39", "block": "test", "trialIndex": 42, "score": 44.35, "costs": -4.6499999999999995, "simulationMode": [null, null, null, null, null], "rewards": [-1, 4, -6, -11, 63], "path": ["0", "0", "23", "24", "25", "26", "29"], "rt": [7095, 56, 97, 29, 72], "actions": ["left", "left", "left", "up", "left"], "actionTimes": [8904, 9498, 10138, 10698, 11322], "queries": {"click": {"state": {"target": ["29", "25", "26"], "time": [2812, 6075, 7915]}, "edge": {"target": [], "time": []}}, "mouseover": {"state": {"target": ["0", "23", "28", "26", "29", "26", "23", "0", "23", "24", "25", "24", "23", "0", "24", "26", "24"], "time": [2099, 2206, 2265, 2506, 2580, 3399, 3478, 3568, 5464, 5521, 5840, 6240, 6272, 6593, 7288, 7590, 8089]}, "edge": {"target": [], "time": []}}, "mouseout": {"state": {"target": ["0", "0", "23", "28", "26", "29", "26", "23", "0", "23", "24", "25", "24", "23", "0", "24", "26", "24"], "time": [1340, 2139, 2240, 2356, 2556, 3172, 3426, 3513, 3824, 5493, 5548, 6212, 6268, 6298, 7224, 7322, 8038, 12772]}, "edge": {"target": [], "time": []}}}, "displayed_time": "15.81", "trialTime": 17034, "trial_type": "mouselab-mdp", "trial_index": 53, "time_elapsed": 2025144, "internal_node_id": "0.0-6.0-1.0-38.0"}}, {"uniqueid": "w14730501:a56358067", "current_trial": 54, "dateTime": 1693483803381, "trialdata": {"revealed_states": [], "clicked_states": ["25", "24", "28", "29", "26", "18", "16", "13", "14", "15", "17"], "num_clicks_accrued": [0, 0, 0, 0, 0, 0, 0, 0, 0, 0, 0, 0, 0], "stateRewards": ["", -2, 4, -5, -12, 85, -24, -18, -15, -78, -22, 26, -1, -1, 2, 14, -45, 52, -23, 7, -33, 24, -6, -2, -4, 5, -7, -16, 36, -39, 5, 71, -87, -23], "withholdReward": false, "trial_id": "mdp_trial_40", "block": "test", "trialIndex": 43, "score": 49.55, "costs": -16.45, "simulationMode": [null, null, null, null, null], "rewards": [-1, -1, 2, 14, 52], "path": ["0", "0", "12", "13", "14", "15", "17"], "rt": [22537, 516, 160, 117, 246], "actions": ["right", "right", "right", "up", "right"], "actionTimes": [27229, 28285, 28981, 29628, 30413], "queries": {"click": {"state": {"target": ["25", "24", "28", "29", "26", "18", "16", "13", "14", "15", "17"], "time": [5392, 6227, 7136, 10438, 13534, 15511, 18734, 21750, 22317, 23018, 23768]}, "edge": {"target": [], "time": []}}, "mouseover": {"state": {"target": ["24", "25", "24", "28", "31", "26", "27", "29", "24", "24", "26", "24", "23", "22", "22", "12", "1", "12", "13", "18", "13", "15", "16", "15", "14", "14", "14", "13", "12", "12", "13", "14", "15", "17"], "time": [4941, 5124, 5944, 6990, 7358, 9064, 9194, 10037, 10719, 12870, 13057, 13725, 13757, 13910, 14063, 14319, 14471, 14652, 15136, 15302, 17072, 17274, 17403, 18901, 18960, 19412, 19612, 19976, 20180, 20515, 20712, 22042, 22727, 23295]}, "edge": {"target": [], "time": []}}, "mouseout": {"state": {"target": ["0", "24", "25", "24", "24", "28", "24", "31", "26", "27", "29", "24", "24", "26", "24", "23", "22", "22", "12", "1", "12", "13", "18", "13", "15", "16", "15", "14", "14", "14", "13", "12", "12", "13", "14", "15", "17"], "time": [4724, 4980, 5635, 6424, 6818, 7282, 7325, 8939, 9140, 9941, 10642, 10747, 12901, 13697, 13754, 13787, 13987, 14267, 14395, 14569, 14686, 15202, 15674, 17124, 17327, 18874, 18930, 18987, 19464, 19899, 20103, 20343, 20544, 21990, 22556, 23209, 23946]}, "edge": {"target": [], "time": []}}}, "displayed_time": "30.95", "trialTime": 36413, "trial_type": "mouselab-mdp", "trial_index": 54, "time_elapsed": 2061951, "internal_node_id": "0.0-6.0-1.0-39.0"}}, {"uniqueid": "w14730501:a56358067", "current_trial": 55, "dateTime": 1693483891917, "trialdata": {"rt": 88474, "response": {"Q0": "$-2 to $2", "Q1": "$-16 to $16", "Q2": "$-88 to $88", "Q3": "The cost for clicking on nodes varied between nodes.", "Q4": "Very motivated"}, "question_order": [0, 1, 2, 3, 4], "trial_id": "final_quiz_control", "trial_type": "survey-multi-choice", "trial_index": 55, "time_elapsed": 2150487, "internal_node_id": "0.0-6.0-2.0"}}, {"uniqueid": "w14730501:a56358067", "current_trial": 56, "dateTime": 1693484021437, "trialdata": {"rt": 129451, "response": {"Q0": "I clicked on 1-3 three outer nodes at the first few games to determine the highest score.", "Q1": "I started clicking on on nodes closer to the start first to see where the higher amounts were and then proceeded to click on the outer nodes to get the highest amount.", "Q2": "It wasn't too difficult, i just had to follow the trail of higher nodes from start to end."}, "trial_id": "self_report_control", "trial_type": "survey-text", "trial_index": 56, "time_elapsed": 2280008, "internal_node_id": "0.0-6.0-3.0"}}, {"uniqueid": "w14730501:a56358067", "current_trial": 57, "dateTime": 1693484073490, "trialdata": {"rt": 52041, "response": {"Q0": "Disagree", "Q1": "Neither disagree nor agree", "Q2": "Agree", "Q3": "Agree", "Q4": "Agree", "Q5": "Strongly agree", "Q6": "Strongly disagree"}, "question_order": [0, 1, 2, 3, 4, 5, 6], "trial_id": "self_report_2", "trial_type": "survey-multi-choice", "trial_index": 57, "time_elapsed": 2332061, "internal_node_id": "0.0-6.0-4.0"}}, {"uniqueid": "w14730501:a56358067", "current_trial": 58, "dateTime": 1693484099921, "trialdata": {"rt": 26424, "response": {"gender": "male", "age": "40", "colorblind": "0", "effort": "1"}, "trial_type": "survey-html-form", "trial_index": 58, "time_elapsed": 2358492, "internal_node_id": "0.0-6.0-5.0"}}, {"uniqueid": "w14730501:a56358067", "current_trial": 59, "dateTime": 1693484131689, "trialdata": {"rt": 31758, "response": {"Q0": "Nothing was confusing.", "Q1": "Yes, but this one seemed different.", "Q2": ""}, "trial_type": "survey-text", "trial_index": 59, "time_elapsed": 2390260, "internal_node_id": "0.0-6.0-6.0"}}, {"uniqueid": "w14730501:a56358067", "current_trial": 60, "dateTime": 1693484176872, "trialdata": {"rt": 45179, "stimulus": "<h1>Completion Code Instructions (1/2)</h1>\n<br><br><br><br>\nYou have reached the end of the experiment! The completion code consists of two parts: (1) a code with 2 characters (2) a code with 6 characters. On this page, you will receive the second part of the code. The first part of the completion code will be on the next page.\n<br><br>\nThe second part of your completion code is: <b>EWEK22</b>\n<br><br>\nPlease note this down. Then, press 'Finish HIT' in order to find the first part of your completion code. Once the data has been saved, you will receive this code either in this window or in the original browser window where you started the experiment.\n", "response": 0, "trial_type": "html-button-response", "trial_index": 60, "time_elapsed": 2435443, "internal_node_id": "0.0-6.0-7.0"}}, {"uniqueid": "w14730501:a56358067", "current_trial": 61, "dateTime": 1693484177878, "trialdata": {"success": true, "trial_type": "fullscreen", "trial_index": 61, "time_elapsed": 2436449, "internal_node_id": "0.0-7.0"}}], "questiondata": {"params": {"CODE": "C6DMOQA6", "MIN_TIME": 14, "inspectCost": 1, "startTime": "Thu Aug 31 2023 13:35:39 GMT+0200 (South Africa Standard Time)", "bonusRate": 0.002, "variance": "1_2_4_8_44", "branching": "31123"}, "final_score": 1597.35}, "eventdata": [{"eventtype": "initialized", "value": null, "timestamp": 1693481738241, "interval": 0}, {"eventtype": "window_resize", "value": [1024, 767], "timestamp": 1693481738241, "interval": 0}, {"eventtype": "focus", "value": "off", "timestamp": 1693481738715, "interval": 474}, {"eventtype": "window_resize", "value": [1024, 767], "timestamp": 1693481739141, "interval": 426}, {"eventtype": "focus", "value": "on", "timestamp": 1693481742886, "interval": 3745}, {"eventtype": "window_resize", "value": [1280, 1024], "timestamp": 1693481746542, "interval": 3656}, {"eventtype": "focus", "value": "off", "timestamp": 1693481766290, "interval": 19748}, {"eventtype": "window_resize", "value": [1280, 1023], "timestamp": 1693481766498, "interval": 208}, {"eventtype": "focus", "value": "on", "timestamp": 1693481768661, "interval": 2163}, {"eventtype": "window_resize", "value": [1280, 1024], "timestamp": 1693481768886, "interval": 225}, {"eventtype": "window_resize", "value": [1024, 767], "timestamp": 1693481772697, "interval": 3811}, {"eventtype": "focus", "value": "off", "timestamp": 1693481774249, "interval": 1552}, {"eventtype": "focus", "value": "on", "timestamp": 1693481965180, "interval": 190931}, {"eventtype": "window_resize", "value": [1280, 1024], "timestamp": 1693481969572, "interval": 4392}, {"eventtype": "window_resize", "value": [1024, 767], "timestamp": 1693481971569, "interval": 1997}, {"eventtype": "focus", "value": "off", "timestamp": 1693481973055, "interval": 1486}, {"eventtype": "focus", "value": "on", "timestamp": 1693481997603, "interval": 24548}, {"eventtype": "window_resize", "value": [1280, 1024], "timestamp": 1693481999479, "interval": 1876}, {"eventtype": "focus", "value": "off", "timestamp": 1693482357481, "interval": 358002}, {"eventtype": "focus", "value": "on", "timestamp": 1693482357481, "interval": 0}, {"eventtype": "window_resize", "value": [1024, 767], "timestamp": 1693483113255, "interval": 755774}, {"eventtype": "focus", "value": "off", "timestamp": 1693483121128, "interval": 7873}, {"eventtype": "focus", "value": "on", "timestamp": 1693483130622, "interval": 9494}, {"eventtype": "focus", "value": "off", "timestamp": 1693483166348, "interval": 35726}, {"eventtype": "focus", "value": "on", "timestamp": 1693483167928, "interval": 1580}, {"eventtype": "focus", "value": "off", "timestamp": 1693483169366, "interval": 1438}, {"eventtype": "focus", "value": "on", "timestamp": 1693483169498, "interval": 132}, {"eventtype": "focus", "value": "off", "timestamp": 1693483170420, "interval": 922}, {"eventtype": "focus", "value": "on", "timestamp": 1693483414052, "interval": 243632}, {"eventtype": "window_resize", "value": [1280, 1024], "timestamp": 1693483417475, "interval": 3423}, {"eventtype": "window_resize", "value": [1024, 767], "timestamp": 1693484164905, "interval": 747430}, {"eventtype": "focus", "value": "off", "timestamp": 1693484166085, "interval": 1180}, {"eventtype": "focus", "value": "on", "timestamp": 1693484175546, "interval": 9461}], "useragent": "Mozilla/5.0 (Windows NT 10.0; Win64; x64) AppleWebKit/537.36 (KHTML, like Gecko) Chrome/116.0.0.0 Safari/537.36", "mode": "live", "id": "w14730501:a56358067", "status": "user data saved", "Beginhit": "2023-08-31 11:35:33.169312", "Beginexp": "2023-08-31 11:35:45.035337", "Endhit": "2023-08-31 12:16:17.812899", "psiturkStatus": 3, "browser": "<redacted>", "platform": "windows", "language": "en-US", "excludeReason": "alreadyparticipated"}