{"condition": 0, "counterbalance": 0, "assignmentId": "a61004108", "workerId": "w71836683", "hitId": "h60294503", "currenttrial": 56, "bonus": 0, "data": [{"uniqueid": "w71836683:a61004108", "current_trial": 0, "dateTime": 1691485339147, "trialdata": {"success": true, "trial_type": "fullscreen", "trial_index": 0, "time_elapsed": 6225, "internal_node_id": "0.0-0.0"}}, {"uniqueid": "w71836683:a61004108", "current_trial": 1, "dateTime": 1691485379340, "trialdata": {"view_history": [{"page_index": 0, "viewing_time": 40162}], "rt": 40165, "trial_id": "exp_instructions_misaligned", "trial_type": "instructions", "trial_index": 1, "time_elapsed": 46417, "internal_node_id": "0.0-1.0"}}, {"uniqueid": "w71836683:a61004108", "current_trial": 2, "dateTime": 1691485386316, "trialdata": {"success": true, "trial_type": "fullscreen", "trial_index": 2, "time_elapsed": 53396, "internal_node_id": "0.0-2.0-0.0"}}, {"uniqueid": "w71836683:a61004108", "current_trial": 3, "dateTime": 1691485722964, "trialdata": {"view_history": [{"page_index": 0, "viewing_time": 81461}, {"page_index": 1, "viewing_time": 2891}, {"page_index": 0, "viewing_time": 13540}, {"page_index": 1, "viewing_time": 132510}, {"page_index": 2, "viewing_time": 62477}, {"page_index": 3, "viewing_time": 43740}], "rt": 336622, "trial_id": "mouselab_instructions_1_misaligned", "trial_type": "instructions", "trial_index": 3, "time_elapsed": 390043, "internal_node_id": "0.0-2.0-1.0"}}, {"uniqueid": "w71836683:a61004108", "current_trial": 4, "dateTime": 1691485808768, "trialdata": {"revealed_states": [], "clicked_states": ["24", "12", "14", "19", "2", "3", "8", "23", "25", "30", "31", "32", "1", "4", "6", "13", "20", "22", "21", "17", "16", "18"], "num_clicks_accrued": [0, 0, 0, 0, 0, 0, 0, 0, 0, 0, 0, 0, 0], "stateRewards": ["", 10, -10, -10, 10, -10, 10, 10, -10, -10, -10, -10, -10, -10, -10, 10, -10, -10, 10, 10, 10, -10, 10, 10, -10, 10, -10, 10, 10, -10, -10, 10, 10, -10], "withholdReward": false, "trial_id": "practice_1", "block": "test", "trialIndex": 0, "score": -37.5, "costs": -11, "simulationMode": [null, null, null, null, null], "rewards": [-10, -10, -10, 10, -10], "path": ["0", "0", "12", "13", "14", "19", "21"], "rt": [67487, 1950, 652, 427, 140], "actions": ["right", "right", "right", "down", "down"], "actionTimes": [72573, 75038, 76216, 77185, 77865], "queries": {"click": {"state": {"target": ["24", "12", "14", "19", "2", "3", "8", "23", "25", "30", "31", "32", "1", "4", "6", "13", "20", "22", "21", "17", "16", "18"], "time": [8711, 12027, 13922, 15719, 17210, 18593, 20003, 21656, 28428, 29831, 31924, 33462, 38331, 43530, 45119, 54500, 59325, 60687, 62541, 64528, 67489, 69753]}, "edge": {"target": [], "time": []}}, "mouseover": {"state": {"target": ["23", "24", "23", "0", "12", "13", "14", "19", "19", "13", "2", "3", "8", "23", "30", "25", "25", "24", "25", "30", "31", "32", "23", "0", "12", "1", "2", "3", "4", "6", "13", "12", "13", "21", "19", "14", "20", "19", "22", "21", "17", "15", "16", "18", "14"], "time": [7724, 8277, 10291, 11411, 11631, 13279, 13525, 14826, 15358, 16371, 16716, 18133, 19655, 21274, 22619, 23947, 25392, 26126, 27976, 29415, 31125, 32906, 35643, 35753, 37391, 37844, 40170, 42723, 43062, 44517, 51279, 53900, 54108, 57757, 58237, 58474, 58828, 59952, 60316, 61940, 64006, 64995, 65943, 69403, 71839]}, "edge": {"target": [], "time": []}}, "mouseout": {"state": {"target": ["0", "23", "24", "23", "0", "12", "13", "14", "19", "19", "13", "2", "3", "8", "23", "30", "25", "25", "24", "25", "30", "31", "32", "31", "23", "0", "12", "1", "2", "3", "4", "6", "13", "12", "13", "21", "19", "14", "20", "19", "22", "21", "17", "15", "16", "18"], "time": [7577, 8211, 10040, 11345, 11477, 12940, 13378, 14742, 14879, 15933, 16431, 17381, 19441, 20948, 22384, 23910, 24642, 25999, 27875, 29330, 30961, 32688, 33644, 35546, 35708, 36395, 37645, 40138, 42614, 42935, 44381, 47230, 51315, 53935, 55198, 58201, 58275, 58764, 59891, 60189, 61806, 63865, 64939, 65815, 69007, 71763]}, "edge": {"target": [], "time": []}}}, "displayed_time": "78.43", "trialTime": 83724, "trial_type": "mouselab-mdp", "trial_index": 4, "time_elapsed": 475843, "internal_node_id": "0.0-2.0-2.0-0.0"}}, {"uniqueid": "w71836683:a61004108", "current_trial": 5, "dateTime": 1691485850604, "trialdata": {"revealed_states": [], "clicked_states": ["24", "30", "25", "26", "27"], "num_clicks_accrued": [0, 0, 0, 0, 0, 0, 0, 0, 0, 0, 0, 0, 0], "stateRewards": ["", 10, 10, 10, 10, 10, 10, 10, 10, 10, 10, 10, -10, 10, -10, -10, -10, 10, 10, -10, 10, 10, 10, -10, 10, -10, 10, 10, 10, -10, -10, -10, -10, -10], "withholdReward": false, "trial_id": "practice_2", "block": "test", "trialIndex": 1, "score": 11, "costs": -2.5, "simulationMode": [null, null, null, null, null], "rewards": [-10, 10, -10, 10, 10], "path": ["0", "0", "23", "24", "25", "26", "27"], "rt": [23432, 228, 365, 1347, 692], "actions": ["left", "left", "left", "up", "up"], "actionTimes": [27438, 28253, 29136, 31030, 32252], "queries": {"click": {"state": {"target": ["24", "30", "25", "26", "27"], "time": [8552, 13123, 18210, 21801, 23885]}, "edge": {"target": [], "time": []}}, "mouseover": {"state": {"target": ["0", "23", "24", "25", "30", "31", "30", "31", "25", "26", "25", "26", "27", "24", "23"], "time": [4222, 4908, 8191, 10434, 10550, 11721, 12678, 14232, 16841, 17160, 17825, 19018, 23454, 26175, 26508]}, "edge": {"target": [], "time": []}}, "mouseout": {"state": {"target": ["13", "12", "0", "23", "24", "25", "30", "31", "30", "31", "25", "26", "25", "26", "27", "26", "24", "23", "0", "12", "14", "19", "22"], "time": [2385, 2568, 4854, 8042, 10359, 10496, 11470, 12522, 14062, 16780, 16908, 17758, 18848, 23033, 25628, 25760, 26237, 26660, 37681, 37727, 37787, 39225, 39291]}, "edge": {"target": [], "time": []}}}, "displayed_time": "32.79", "trialTime": 40491, "trial_type": "mouselab-mdp", "trial_index": 5, "time_elapsed": 517677, "internal_node_id": "0.0-2.0-2.0-1.0"}}, {"uniqueid": "w71836683:a61004108", "current_trial": 6, "dateTime": 1691485893138, "trialdata": {"view_history": [{"page_index": 0, "viewing_time": 29936}, {"page_index": 1, "viewing_time": 12567}], "rt": 42506, "trial_id": "mouselab_instructions_2_misaligned", "trial_type": "instructions", "trial_index": 6, "time_elapsed": 560217, "internal_node_id": "0.0-2.0-3.0"}}, {"uniqueid": "w71836683:a61004108", "current_trial": 7, "dateTime": 1691485945567, "trialdata": {"rt": 52389, "response": {"Q0": "The cost for clicking on nodes may vary between nodes.", "Q1": "The better I perform the higher my bonus will be.", "Q2": "No, the amount of cash at each node of the web may be different each time.", "Q3": "To get the highest total score.", "Q4": "Only before moving the spider.", "Q5": "3 seconds"}, "question_order": [0, 1, 2, 3, 4, 5], "correct": {"Q0": "The cost for clicking on nodes may vary between nodes.", "Q1": "The better I perform the higher my bonus will be.", "Q2": "No, the amount of cash at each node of the web may be different each time.", "Q3": "To get the highest total score.", "Q4": "Only before moving the spider.", "Q5": "3 seconds"}, "trial_id": "mouselab_quiz_misaligned", "trial_type": "survey-multi-choice", "trial_index": 7, "time_elapsed": 612647, "internal_node_id": "0.0-2.0-4.0"}}, {"uniqueid": "w71836683:a61004108", "current_trial": 8, "dateTime": 1691485973193, "trialdata": {"rt": 27584, "stimulus": "\n<h1> Get ready to start the game! </h1>\n\nThank you for reading the instructions. Get ready start with the 40 rounds of this game.\n<br><br>\nIf you need to take a break, feel free to take one after the end of a round, before continuing to the next one.\n<br><br>\nRemember, the more money the spider gets, the bigger your bonus will be!\n<br><br>\n<div style='text-align: center;'>Press <code>space</code> to begin.</div>\n\n<br><br>\n(If, at any point, the <code>space</code> key does not take you to the next page, click once on the text and try again.)", "response": " ", "trial_id": "mdp_ready", "trial_type": "html-keyboard-response", "trial_index": 8, "time_elapsed": 640272, "internal_node_id": "0.0-4.0-0.0"}}, {"uniqueid": "w71836683:a61004108", "current_trial": 9, "dateTime": 1691485999327, "trialdata": {"revealed_states": [], "clicked_states": ["23", "25", "30", "31"], "num_clicks_accrued": [0, 0, 0, 0, 0, 0, 0, 0, 0, 0, 0, 0, 0], "stateRewards": ["", -1, 1, -6, -1, 80, 23, 2, -11, 73, -81, 59, 1, 3, 5, -1, -26, 28, -3, 16, -59, -13, -50, -2, -2, 2, 15, -50, 86, 17, -4, 37, 35, 44], "withholdReward": false, "trial_id": "mdp_trial_1", "block": "test", "trialIndex": 2, "score": 26.6, "costs": -4.4, "simulationMode": [null, null, null, null, null], "rewards": [-2, -2, 2, -4, 37], "path": ["0", "0", "23", "24", "25", "30", "31"], "rt": [12609, 242, 321, 864, 411], "actions": ["left", "left", "left", "down", "right"], "actionTimes": [17227, 18022, 18883, 20300, 21251], "queries": {"click": {"state": {"target": ["23", "25", "30", "31"], "time": [6188, 9142, 11677, 12756]}, "edge": {"target": [], "time": []}}, "mouseover": {"state": {"target": ["23", "24", "24", "25", "30", "32", "30", "30", "31"], "time": [5424, 6804, 8199, 8675, 9939, 10192, 10749, 11255, 12257]}, "edge": {"target": [], "time": []}}, "mouseout": {"state": {"target": ["2", "3", "3", "8", "10", "1", "12", "0", "23", "24", "24", "25", "30", "32", "30", "30"], "time": [75, 123, 254, 1137, 1226, 2787, 2956, 5321, 6749, 7742, 8494, 9803, 10133, 10707, 10842, 12139]}, "edge": {"target": [], "time": []}}}, "displayed_time": "21.79", "trialTime": 24674, "trial_type": "mouselab-mdp", "trial_index": 9, "time_elapsed": 666402, "internal_node_id": "0.0-4.0-1.0-0.0"}}, {"uniqueid": "w71836683:a61004108", "current_trial": 10, "dateTime": 1691486024049, "trialdata": {"revealed_states": [], "clicked_states": ["12", "14", "20", "19"], "num_clicks_accrued": [0, 0, 0, 0, 0, 0, 0, 0, 0, 0, 0, 0, 0], "stateRewards": ["", -1, 1, -1, 2, 19, 85, -18, 2, -3, -26, 36, 2, 4, 7, -9, -18, 70, 72, -5, 35, -20, -28, 1, -2, -4, -3, -59, -11, -63, -2, -72, 59, -69], "withholdReward": false, "trial_id": "mdp_trial_2", "block": "test", "trialIndex": 3, "score": 38.6, "costs": -4.3999999999999995, "simulationMode": [null, null, null, null, null], "rewards": [2, 4, 7, -5, 35], "path": ["0", "0", "12", "13", "14", "19", "20"], "rt": [12633, 220, 260, 275, 559], "actions": ["right", "right", "right", "down", "right"], "actionTimes": [15270, 16023, 16816, 17661, 18757], "queries": {"click": {"state": {"target": ["12", "14", "20", "19"], "time": [3932, 5598, 7421, 11135]}, "edge": {"target": [], "time": []}}, "mouseover": {"state": {"target": ["12", "13", "14", "19", "20", "19", "22"], "time": [3524, 4551, 5205, 6382, 6827, 8322, 12262]}, "edge": {"target": [], "time": []}}, "mouseout": {"state": {"target": ["31", "0", "12", "13", "14", "19", "20", "19"], "time": [36, 3376, 4451, 4763, 6201, 6619, 8184, 12088]}, "edge": {"target": [], "time": []}}}, "displayed_time": "19.29", "trialTime": 23173, "trial_type": "mouselab-mdp", "trial_index": 10, "time_elapsed": 691128, "internal_node_id": "0.0-4.0-1.0-1.0"}}, {"uniqueid": "w71836683:a61004108", "current_trial": 11, "dateTime": 1691486058485, "trialdata": {"revealed_states": [], "clicked_states": ["23", "24", "25", "30", "31", "33"], "num_clicks_accrued": [0, 0, 0, 0, 0, 0, 0, 0, 0, 0, 0, 0, 0], "stateRewards": ["", 2, 3, 6, -12, -29, 12, 87, 4, 35, -30, 67, 2, 3, -5, -9, 44, 69, -8, 1, 45, -8, 28, -2, -1, -8, 11, -12, -5, 81, 9, 87, 82, 88], "withholdReward": false, "trial_id": "mdp_trial_3", "block": "test", "trialIndex": 4, "score": 78.1, "costs": -6.9, "simulationMode": [null, null, null, null, null], "rewards": [-2, -1, -8, 9, 87], "path": ["0", "0", "23", "24", "25", "30", "31"], "rt": [18080, 597, 295, 563, 482], "actions": ["left", "left", "left", "down", "right"], "actionTimes": [22333, 23465, 24285, 25382, 26464], "queries": {"click": {"state": {"target": ["23", "24", "25", "30", "31", "33"], "time": [7053, 8845, 11347, 13802, 15449, 18870]}, "edge": {"target": [], "time": []}}, "mouseover": {"state": {"target": ["23", "24", "30", "25", "30", "31", "30", "33"], "time": [5466, 7873, 10235, 10578, 12499, 14916, 18112, 18305]}, "edge": {"target": [], "time": []}}, "mouseout": {"state": {"target": ["22", "12", "0", "23", "24", "30", "25", "30", "31", "30", "33"], "time": [2423, 2761, 5286, 7743, 9602, 10445, 12390, 14837, 17990, 18189, 19616]}, "edge": {"target": [], "time": []}}}, "displayed_time": "26.99", "trialTime": 32953, "trial_type": "mouselab-mdp", "trial_index": 11, "time_elapsed": 725558, "internal_node_id": "0.0-4.0-1.0-2.0"}}, {"uniqueid": "w71836683:a61004108", "current_trial": 12, "dateTime": 1691486092603, "trialdata": {"revealed_states": [], "clicked_states": ["25", "26", "28", "14", "12", "20", "27"], "num_clicks_accrued": [0, 0, 0, 0, 0, 0, 0, 0, 0, 0, 0, 0, 0], "stateRewards": ["", 1, -1, 8, -3, 38, 85, -20, -4, 8, 23, 73, 2, -4, 6, -13, 44, 7, -28, -11, -77, 45, -69, 1, -1, -7, -11, 75, -51, -87, 7, 36, -53, -26], "withholdReward": false, "trial_id": "mdp_trial_4", "block": "test", "trialIndex": 5, "score": 47.35, "costs": -9.65, "simulationMode": [null, null, null, null, null], "rewards": [1, -1, -7, -11, 75], "path": ["0", "0", "23", "24", "25", "26", "27"], "rt": [20044, 197, 85, 424, 157], "actions": ["left", "left", "left", "up", "up"], "actionTimes": [24061, 24805, 25457, 26418, 27131], "queries": {"click": {"state": {"target": ["25", "26", "28", "14", "12", "20", "27"], "time": [5797, 7446, 8929, 12685, 14750, 16561, 19410]}, "edge": {"target": [], "time": []}}, "mouseover": {"state": {"target": ["24", "25", "26", "28", "12", "13", "14", "13", "12", "19", "20", "27", "27", "29"], "time": [4759, 5142, 6912, 8580, 10456, 11263, 12013, 13867, 14411, 15774, 16042, 18577, 19009, 22642]}, "edge": {"target": [], "time": []}}, "mouseout": {"state": {"target": ["31", "23", "0", "24", "25", "26", "28", "12", "13", "14", "13", "12", "19", "20", "27", "27", "29"], "time": [2141, 2373, 4653, 4908, 6652, 8493, 10047, 11138, 11879, 13835, 14076, 15569, 15926, 18475, 18633, 22375, 28613]}, "edge": {"target": [], "time": []}}}, "displayed_time": "27.67", "trialTime": 32446, "trial_type": "mouselab-mdp", "trial_index": 12, "time_elapsed": 759677, "internal_node_id": "0.0-4.0-1.0-3.0"}}, {"uniqueid": "w71836683:a61004108", "current_trial": 13, "dateTime": 1691486129810, "trialdata": {"revealed_states": [], "clicked_states": ["2", "3", "11", "9", "28", "32", "31"], "num_clicks_accrued": [0, 0, 0, 0, 0, 0, 0, 0, 0, 0, 0, 0, 0], "stateRewards": ["", 1, 4, 5, -5, 58, -80, 75, 6, 25, -39, 46, 2, -2, 4, 2, 59, 31, -22, -12, -61, 15, 72, 1, -2, -7, 8, 77, 76, -23, -7, 71, -15, -3], "withholdReward": false, "trial_id": "mdp_trial_5", "block": "test", "trialIndex": 6, "score": 63.95, "costs": -12.05, "simulationMode": [null, null, null, null, null], "rewards": [1, -2, -7, 8, 76], "path": ["0", "0", "23", "24", "25", "26", "28"], "rt": [24484, 282, 192, 219, 318], "actions": ["left", "left", "left", "up", "right"], "actionTimes": [27950, 28779, 29544, 30307, 31162], "queries": {"click": {"state": {"target": ["2", "3", "11", "9", "28", "32", "31"], "time": [5002, 7969, 9448, 13289, 16247, 19719, 24369]}, "edge": {"target": [], "time": []}}, "mouseover": {"state": {"target": ["1", "2", "3", "8", "11", "9", "26", "27", "28", "26", "25", "30", "32", "31", "24", "28"], "time": [4133, 4355, 5776, 8685, 8884, 10497, 14549, 15079, 15932, 17638, 17830, 17950, 18230, 20915, 25562, 25642]}, "edge": {"target": [], "time": []}}, "mouseout": {"state": {"target": ["30", "31", "0", "1", "2", "3", "8", "11", "9", "26", "27", "28", "28", "26", "25", "30", "32", "31", "24", "28"], "time": [1106, 1217, 4096, 4241, 5179, 8626, 8791, 10357, 14176, 14774, 15517, 16447, 17476, 17774, 17931, 18136, 20756, 25478, 25627, 25862]}, "edge": {"target": [], "time": []}}}, "displayed_time": "31.69", "trialTime": 35435, "trial_type": "mouselab-mdp", "trial_index": 13, "time_elapsed": 796883, "internal_node_id": "0.0-4.0-1.0-4.0"}}, {"uniqueid": "w71836683:a61004108", "current_trial": 14, "dateTime": 1691486183343, "trialdata": {"revealed_states": [], "clicked_states": ["14", "20", "21", "33", "9", "5", "6", "27", "28", "31"], "num_clicks_accrued": [0, 0, 0, 0, 0, 0, 0, 0, 0, 0, 0, 0, 0], "stateRewards": ["", 1, -4, -4, 8, 1, -79, 68, -10, -79, 8, -74, -1, -3, -6, 14, 43, 23, 9, 5, -51, 63, 61, -2, 4, 6, -10, 69, -32, 57, 15, -80, -80, -77], "withholdReward": false, "trial_id": "mdp_trial_6", "block": "test", "trialIndex": 7, "score": 46.7, "costs": -20.299999999999997, "simulationMode": [null, null, null, null, null], "rewards": [-2, 4, 6, -10, 69], "path": ["0", "0", "23", "24", "25", "26", "27"], "rt": [39353, 364, 95, 537, 560], "actions": ["left", "left", "left", "up", "up"], "actionTimes": [42238, 43196, 43820, 44914, 46021], "queries": {"click": {"state": {"target": ["14", "20", "21", "33", "9", "5", "6", "27", "28", "31"], "time": [4729, 6148, 9944, 14693, 18181, 22824, 26748, 31205, 35049, 38936]}, "edge": {"target": [], "time": []}}, "mouseover": {"state": {"target": ["12", "14", "14", "20", "21", "30", "33", "25", "28", "25", "33", "25", "28", "10", "3", "9", "5", "6", "2", "10", "27", "28", "24", "31", "31"], "time": [3680, 3856, 4318, 5570, 7729, 11293, 11622, 13407, 13491, 14009, 14109, 15414, 15531, 15951, 16138, 16480, 21343, 24149, 30409, 30514, 30889, 32684, 36005, 36785, 37880]}, "edge": {"target": [], "time": []}}, "mouseout": {"state": {"target": ["0", "12", "14", "14", "20", "21", "30", "33", "25", "28", "25", "33", "25", "28", "10", "3", "9", "5", "6", "2", "10", "27", "28", "24", "31", "31"], "time": [3636, 3726, 3970, 5159, 7668, 10579, 11602, 13356, 13446, 13967, 14049, 14917, 15474, 15581, 16073, 16294, 21142, 23757, 30278, 30456, 30595, 32498, 35947, 36064, 37059, 49004]}, "edge": {"target": [], "time": []}}}, "displayed_time": "46.56", "trialTime": 51682, "trial_type": "mouselab-mdp", "trial_index": 14, "time_elapsed": 850417, "internal_node_id": "0.0-4.0-1.0-5.0"}}, {"uniqueid": "w71836683:a61004108", "current_trial": 15, "dateTime": 1691486234551, "trialdata": {"revealed_states": [], "clicked_states": ["27", "29", "28", "32", "9", "11", "17", "21", "20", "22"], "num_clicks_accrued": [0, 0, 0, 0, 0, 0, 0, 0, 0, 0, 0, 0, 0], "stateRewards": ["", 2, -4, -4, 13, -80, 62, 13, -11, 57, -13, -44, 1, 4, 3, -4, -29, -88, 15, 16, -58, 68, -45, -1, -3, -1, -9, -44, -86, -19, -7, -36, 59, 66], "withholdReward": false, "trial_id": "mdp_trial_7", "block": "test", "trialIndex": 8, "score": 70.5, "costs": -21.499999999999996, "simulationMode": [null, null, null, null, null], "rewards": [1, 4, 3, 16, 68], "path": ["0", "0", "12", "13", "14", "19", "21"], "rt": [37517, 230, 45, 494, 270], "actions": ["right", "right", "right", "down", "down"], "actionTimes": [41822, 42607, 43234, 44286, 45097], "queries": {"click": {"state": {"target": ["27", "29", "28", "32", "9", "11", "17", "21", "20", "22"], "time": [6279, 9905, 13354, 16629, 20167, 24222, 27654, 30995, 34653, 38103]}, "edge": {"target": [], "time": []}}, "mouseover": {"state": {"target": ["28", "27", "29", "26", "28", "24", "32", "32", "24", "9", "11", "15", "17", "21", "20", "20", "19", "22"], "time": [5401, 5763, 7068, 10839, 11097, 14392, 14802, 15219, 17449, 17853, 23762, 25757, 25968, 29203, 31650, 32033, 37336, 37563]}, "edge": {"target": [], "time": []}}, "mouseout": {"state": {"target": ["0", "28", "27", "29", "26", "28", "24", "32", "32", "24", "9", "11", "15", "17", "21", "20", "20", "19"], "time": [5342, 5441, 6959, 10784, 10986, 14376, 14461, 14945, 16820, 17546, 23648, 25115, 25872, 28554, 31585, 31759, 37280, 37435]}, "edge": {"target": [], "time": []}}}, "displayed_time": "45.67", "trialTime": 49450, "trial_type": "mouselab-mdp", "trial_index": 15, "time_elapsed": 901626, "internal_node_id": "0.0-4.0-1.0-6.0"}}, {"uniqueid": "w71836683:a61004108", "current_trial": 16, "dateTime": 1691486271704, "trialdata": {"revealed_states": [], "clicked_states": ["29", "32", "9", "5", "11", "6"], "num_clicks_accrued": [0, 0, 0, 0, 0, 0, 0, 0, 0, 0, 0, 0, 0], "stateRewards": ["", 2, -3, -5, 5, 11, -9, -33, 6, 67, 6, -30, -1, -2, -6, 13, 55, 13, 72, -14, 75, 21, -66, -2, -4, 6, 15, -1, -35, 60, 2, 51, -73, 12], "withholdReward": false, "trial_id": "mdp_trial_8", "block": "test", "trialIndex": 9, "score": 54.1, "costs": -12.9, "simulationMode": [null, null, null, null, null], "rewards": [2, -3, -5, 6, 67], "path": ["0", "0", "1", "2", "3", "8", "9"], "rt": [22884, 683, 224, 314, 113], "actions": ["up", "up", "up", "left", "up"], "actionTimes": [26297, 27517, 28279, 29130, 29790], "queries": {"click": {"state": {"target": ["29", "32", "9", "5", "11", "6"], "time": [5365, 8696, 12168, 16413, 19827, 23181]}, "edge": {"target": [], "time": []}}, "mouseover": {"state": {"target": ["24", "29", "29", "33", "32", "28", "10", "8", "9", "5", "8", "11", "8", "4", "6"], "time": [4448, 4675, 5043, 6288, 6618, 9575, 10386, 10465, 10576, 16049, 18642, 18839, 20654, 20781, 20858]}, "edge": {"target": [], "time": []}}, "mouseout": {"state": {"target": ["22", "0", "24", "29", "29", "33", "32", "28", "10", "8", "9", "9", "5", "8", "11", "8", "4", "6", "16", "15", "13"], "time": [1750, 4359, 4498, 4844, 6173, 6352, 9473, 9624, 10450, 10519, 12351, 15695, 18466, 18701, 20637, 20716, 20839, 31612, 31844, 31949, 32149]}, "edge": {"target": [], "time": []}}}, "displayed_time": "30.31", "trialTime": 35085, "trial_type": "mouselab-mdp", "trial_index": 16, "time_elapsed": 938779, "internal_node_id": "0.0-4.0-1.0-7.0"}}, {"uniqueid": "w71836683:a61004108", "current_trial": 17, "dateTime": 1691486314476, "trialdata": {"revealed_states": [], "clicked_states": ["17", "16", "21", "20", "9", "11", "29", "32"], "num_clicks_accrued": [0, 0, 0, 0, 0, 0, 0, 0, 0, 0, 0, 0, 0], "stateRewards": ["", -2, 3, 8, -9, 59, 41, -50, -1, 82, 66, 33, 2, -2, 7, 8, 1, -38, 12, -16, 24, -37, 67, 1, 4, -2, 5, 35, -83, 28, 8, -27, 69, -64], "withholdReward": false, "trial_id": "mdp_trial_9", "block": "test", "trialIndex": 10, "score": 72.8, "costs": -17.2, "simulationMode": [null, null, null, null, null], "rewards": [-2, 3, 8, -1, 82], "path": ["0", "0", "1", "2", "3", "8", "9"], "rt": [29114, 62, 16, 486, 993], "actions": ["up", "up", "up", "left", "up"], "actionTimes": [33572, 34369, 34966, 36019, 37565], "queries": {"click": {"state": {"target": ["17", "16", "21", "20", "9", "11", "29", "32"], "time": [6107, 9448, 12931, 16279, 19558, 23250, 26787, 30119]}, "edge": {"target": [], "time": []}}, "mouseover": {"state": {"target": ["12", "17", "16", "15", "18", "21", "20", "7", "9", "11", "27", "29", "27", "26", "25", "30", "32", "30", "28"], "time": [5196, 5548, 6852, 10136, 10621, 11332, 13751, 16912, 17625, 20383, 23863, 24020, 27698, 28022, 28140, 28218, 28409, 31014, 31394]}, "edge": {"target": [], "time": []}}, "mouseout": {"state": {"target": ["0", "12", "17", "16", "15", "18", "21", "20", "7", "9", "11", "27", "29", "27", "26", "25", "30", "32", "30", "28", "2", "7"], "time": [3241, 5260, 6517, 10071, 10193, 11127, 13532, 16806, 16965, 20155, 23427, 23922, 26952, 27961, 28077, 28199, 28277, 30953, 31120, 31729, 39633, 39717]}, "edge": {"target": [], "time": []}}}, "displayed_time": "38.10", "trialTime": 40978, "trial_type": "mouselab-mdp", "trial_index": 17, "time_elapsed": 981550, "internal_node_id": "0.0-4.0-1.0-8.0"}}, {"uniqueid": "w71836683:a61004108", "current_trial": 18, "dateTime": 1691486351429, "trialdata": {"revealed_states": [], "clicked_states": ["9", "5", "32", "21", "17", "16"], "num_clicks_accrued": [0, 0, 0, 0, 0, 0, 0, 0, 0, 0, 0, 0, 0], "stateRewards": ["", -1, 2, 7, 8, 75, 67, -11, 6, 52, -17, 38, -1, 4, -8, 14, 74, -37, -17, -12, 52, 55, 71, -2, -1, -5, 2, 21, 6, -88, -14, 64, -61, -47], "withholdReward": false, "trial_id": "mdp_trial_10", "block": "test", "trialIndex": 11, "score": 78.1, "costs": -12.9, "simulationMode": [null, null, null, null, null], "rewards": [-1, 2, 7, 8, 75], "path": ["0", "0", "1", "2", "3", "4", "5"], "rt": [23923, 240, 117, 190, 398], "actions": ["up", "up", "up", "right", "up"], "actionTimes": [28028, 28819, 29458, 30185, 31121], "queries": {"click": {"state": {"target": ["9", "5", "32", "21", "17", "16"], "time": [6118, 9384, 13412, 16806, 21027, 24541]}, "edge": {"target": [], "time": []}}, "mouseover": {"state": {"target": ["28", "26", "26", "8", "9", "5", "6", "7", "24", "30", "32", "21", "20", "17", "16"], "time": [4970, 5065, 5342, 5426, 5758, 7088, 10553, 12342, 12528, 12663, 13029, 16109, 18196, 20515, 22700]}, "edge": {"target": [], "time": []}}, "mouseout": {"state": {"target": ["0", "28", "26", "26", "8", "9", "5", "5", "6", "7", "24", "30", "32", "21", "20", "17", "16", "15"], "time": [4925, 5016, 5274, 5384, 5465, 6673, 9595, 10455, 12247, 12411, 12584, 12793, 15179, 17937, 20467, 22402, 32009, 33045]}, "edge": {"target": [], "time": []}}}, "displayed_time": "31.66", "trialTime": 35127, "trial_type": "mouselab-mdp", "trial_index": 18, "time_elapsed": 1018502, "internal_node_id": "0.0-4.0-1.0-9.0"}}, {"uniqueid": "w71836683:a61004108", "current_trial": 19, "dateTime": 1691486384314, "trialdata": {"revealed_states": [], "clicked_states": ["27", "32", "5", "9", "25", "26"], "num_clicks_accrued": [0, 0, 0, 0, 0, 0, 0, 0, 0, 0, 0, 0, 0], "stateRewards": ["", -1, 1, 6, -6, 70, 66, 67, -16, -75, -35, 37, -1, 4, 4, -6, 47, -9, 63, 15, 21, -63, 13, 1, 3, -6, 10, 79, -29, 18, -15, 9, -67, -19], "withholdReward": false, "trial_id": "mdp_trial_11", "block": "test", "trialIndex": 12, "score": 75.9, "costs": -11.1, "simulationMode": [null, null, null, null, null], "rewards": [1, 3, -6, 10, 79], "path": ["0", "0", "23", "24", "25", "26", "27"], "rt": [19123, 9, 100, 64, 9], "actions": ["left", "left", "left", "up", "up"], "actionTimes": [23876, 24422, 25078, 25697, 26242], "queries": {"click": {"state": {"target": ["27", "32", "5", "9", "25", "26"], "time": [6308, 9715, 12598, 16054, 20289, 22394]}, "edge": {"target": [], "time": []}}, "mouseover": {"state": {"target": ["27", "29", "30", "32", "12", "4", "5", "5", "9", "2", "28", "25", "24", "26", "24"], "time": [5873, 7519, 8212, 8369, 10744, 10856, 10930, 11380, 13837, 17213, 19643, 19827, 21588, 21975, 23141]}, "edge": {"target": [], "time": []}}, "mouseout": {"state": {"target": ["12", "0", "27", "29", "30", "32", "12", "4", "5", "5", "9", "2", "28", "25", "24", "26", "24", "23"], "time": [3270, 5327, 7367, 8063, 8270, 10454, 10801, 10915, 11148, 13466, 17021, 19475, 19696, 21213, 21896, 22985, 23194, 27843]}, "edge": {"target": [], "time": []}}}, "displayed_time": "26.81", "trialTime": 31189, "trial_type": "mouselab-mdp", "trial_index": 19, "time_elapsed": 1051392, "internal_node_id": "0.0-4.0-1.0-10.0"}}, {"uniqueid": "w71836683:a61004108", "current_trial": 20, "dateTime": 1691486425936, "trialdata": {"revealed_states": [], "clicked_states": ["27", "9", "5", "17", "20", "32", "33", "7"], "num_clicks_accrued": [0, 0, 0, 0, 0, 0, 0, 0, 0, 0, 0, 0, 0], "stateRewards": ["", 2, -4, 4, 9, 69, 9, -75, 12, -86, 66, 25, -1, 3, 2, -13, -88, -3, 1, 4, -69, 49, -84, 2, -1, 4, 2, -18, -81, -52, -15, -69, -54, 25], "withholdReward": false, "trial_id": "mdp_trial_12", "block": "test", "trialIndex": 13, "score": 62.8, "costs": -17.2, "simulationMode": [null, null, null, null, null], "rewards": [2, -4, 4, 9, 69], "path": ["0", "0", "1", "2", "3", "4", "5"], "rt": [29889, 536, 286, 169, 465], "actions": ["up", "up", "up", "right", "up"], "actionTimes": [33264, 34353, 35182, 35893, 36895], "queries": {"click": {"state": {"target": ["27", "9", "5", "17", "20", "32", "33", "7"], "time": [4895, 8252, 11508, 15030, 18317, 21763, 25032, 28615]}, "edge": {"target": [], "time": []}}, "mouseover": {"state": {"target": ["27", "11", "9", "5", "6", "16", "17", "20", "22", "31", "32", "33", "33", "23", "7"], "time": [4436, 5809, 5937, 9365, 12257, 12430, 12756, 15972, 18937, 19062, 19200, 22700, 23093, 25944, 26623]}, "edge": {"target": [], "time": []}}, "mouseout": {"state": {"target": ["12", "27", "11", "9", "5", "6", "16", "17", "20", "22", "31", "32", "33", "33", "23", "7", "12"], "time": [1488, 5478, 5875, 8436, 12197, 12323, 12506, 15645, 18873, 18999, 19138, 21933, 22849, 25633, 26061, 29530, 38788]}, "edge": {"target": [], "time": []}}}, "displayed_time": "37.43", "trialTime": 39827, "trial_type": "mouselab-mdp", "trial_index": 20, "time_elapsed": 1093010, "internal_node_id": "0.0-4.0-1.0-11.0"}}, {"uniqueid": "w71836683:a61004108", "current_trial": 21, "dateTime": 1691486478097, "trialdata": {"revealed_states": [], "clicked_states": ["7", "10", "28", "27", "32", "21", "20", "17", "9", "33"], "num_clicks_accrued": [0, 0, 0, 0, 0, 0, 0, 0, 0, 0, 0, 0, 0], "stateRewards": ["", 1, -3, 4, 13, -72, 52, 5, 5, -58, 5, 14, 2, 1, 3, -14, -86, -4, 73, 6, -58, -50, 49, 2, -3, -4, 2, 33, -41, 42, -11, 81, 45, 53], "withholdReward": false, "trial_id": "mdp_trial_13", "block": "test", "trialIndex": 14, "score": 15.5, "costs": -21.499999999999996, "simulationMode": [null, null, null, null, null], "rewards": [2, -3, -4, -11, 53], "path": ["0", "0", "23", "24", "25", "30", "33"], "rt": [35506, 231, 513, 817, 736], "actions": ["left", "left", "left", "down", "left"], "actionTimes": [40411, 41230, 42283, 43633, 44898], "queries": {"click": {"state": {"target": ["7", "10", "28", "27", "32", "21", "20", "17", "9", "33"], "time": [6381, 9735, 12848, 16175, 19727, 23556, 27183, 30485, 33882, 37195]}, "edge": {"target": [], "time": []}}, "mouseover": {"state": {"target": ["1", "7", "2", "10", "28", "27", "26", "30", "32", "21", "20", "17", "16", "6", "5", "9", "5", "26", "33", "30", "31"], "time": [5760, 5863, 7032, 7197, 10568, 14067, 17231, 17351, 17476, 23072, 26134, 28046, 31113, 31238, 31320, 32326, 34652, 35646, 35960, 38130, 38216]}, "edge": {"target": [], "time": []}}, "mouseout": {"state": {"target": ["0", "1", "7", "2", "10", "28", "28", "27", "26", "30", "32", "21", "20", "17", "16", "6", "5", "9", "5", "26", "33", "30"], "time": [3553, 5805, 6968, 7095, 10512, 13035, 13868, 17215, 17292, 17409, 22165, 25988, 27837, 31050, 31176, 31304, 31529, 34038, 35449, 35704, 38070, 38196]}, "edge": {"target": [], "time": []}}}, "displayed_time": "45.44", "trialTime": 50164, "trial_type": "mouselab-mdp", "trial_index": 21, "time_elapsed": 1145175, "internal_node_id": "0.0-4.0-1.0-12.0"}}, {"uniqueid": "w71836683:a61004108", "current_trial": 22, "dateTime": 1691486532776, "trialdata": {"revealed_states": [], "clicked_states": ["33", "27", "5", "17", "16", "21", "18", "7", "11", "10"], "num_clicks_accrued": [0, 0, 0, 0, 0, 0, 0, 0, 0, 0, 0, 0, 0], "stateRewards": ["", 1, -2, -8, -13, 4, 34, -84, -4, -49, 88, -70, -1, 3, -4, 10, -77, 13, -34, 15, -21, -16, 27, 1, -2, 8, -8, -6, 38, -26, 6, -15, 66, -3], "withholdReward": false, "trial_id": "mdp_trial_14", "block": "test", "trialIndex": 15, "score": 53.5, "costs": -21.499999999999996, "simulationMode": [null, null, null, null, null], "rewards": [1, -2, -8, -4, 88], "path": ["0", "0", "1", "2", "3", "8", "10"], "rt": [42497, 531, 261, 165, 74], "actions": ["up", "up", "up", "left", "down"], "actionTimes": [47289, 48366, 49163, 49860, 50465], "queries": {"click": {"state": {"target": ["33", "27", "5", "17", "16", "21", "18", "7", "11", "10"], "time": [6484, 9863, 13143, 16488, 21225, 25923, 30745, 34923, 38568, 41916]}, "edge": {"target": [], "time": []}}, "mouseover": {"state": {"target": ["23", "30", "33", "27", "11", "9", "5", "6", "17", "15", "18", "16", "18", "22", "21", "22", "18", "18", "7", "2", "10", "11", "10", "8", "9"], "time": [5594, 5693, 5916, 7612, 10380, 10504, 11169, 13824, 14315, 20174, 20371, 20736, 24930, 25057, 25264, 29547, 30113, 30315, 31854, 36244, 36359, 38095, 39870, 42773, 42902]}, "edge": {"target": [], "time": []}}, "mouseout": {"state": {"target": ["31", "0", "23", "30", "33", "27", "11", "9", "5", "5", "6", "17", "15", "18", "16", "18", "22", "21", "22", "18", "18", "7", "2", "10", "11", "10", "8"], "time": [2436, 5570, 5634, 5735, 7113, 10311, 10445, 10708, 13321, 13761, 13894, 20116, 20268, 20417, 24863, 24989, 25167, 29502, 29717, 30173, 31657, 36228, 36301, 37991, 39536, 42708, 42838]}, "edge": {"target": [], "time": []}}}, "displayed_time": "51.05", "trialTime": 52801, "trial_type": "mouselab-mdp", "trial_index": 22, "time_elapsed": 1199850, "internal_node_id": "0.0-4.0-1.0-13.0"}}, {"uniqueid": "w71836683:a61004108", "current_trial": 23, "dateTime": 1691486581278, "trialdata": {"revealed_states": [], "clicked_states": ["10", "11", "7", "5", "33", "31", "27", "32"], "num_clicks_accrued": [0, 0, 0, 0, 0, 0, 0, 0, 0, 0, 0, 0, 0], "stateRewards": ["", -1, 3, 8, 10, -86, 61, -36, 10, 17, -60, 24, -1, -3, 3, 11, 50, 60, 33, -3, -20, 58, -6, 1, -4, -4, 13, -70, -71, 43, 14, 52, 82, -11], "withholdReward": false, "trial_id": "mdp_trial_15", "block": "test", "trialIndex": 16, "score": 71.8, "costs": -17.2, "simulationMode": [null, null, null, null, null], "rewards": [1, -4, -4, 14, 82], "path": ["0", "0", "23", "24", "25", "30", "32"], "rt": [35928, 202, 547, 196, 935], "actions": ["left", "left", "left", "down", "down"], "actionTimes": [39955, 40695, 41787, 42517, 44015], "queries": {"click": {"state": {"target": ["10", "11", "7", "5", "33", "31", "27", "32"], "time": [5280, 8647, 12241, 17686, 23154, 26949, 30475, 35479]}, "edge": {"target": [], "time": []}}, "mouseover": {"state": {"target": ["10", "11", "9", "7", "5", "26", "33", "33", "30", "31", "27", "27", "26", "30", "32", "21"], "time": [4959, 6348, 9637, 10269, 13524, 18898, 19362, 20072, 24250, 24445, 28576, 29047, 34180, 34680, 34913, 36466]}, "edge": {"target": [], "time": []}}, "mouseout": {"state": {"target": ["9", "8", "10", "0", "10", "11", "9", "7", "5", "26", "33", "33", "30", "31", "27", "27", "26", "30", "32"], "time": [2039, 2099, 2160, 4671, 6108, 9470, 9749, 12980, 17874, 18959, 19468, 24184, 24379, 28275, 28789, 34107, 34319, 34812, 36254]}, "edge": {"target": [], "time": []}}}, "displayed_time": "44.55", "trialTime": 46562, "trial_type": "mouselab-mdp", "trial_index": 23, "time_elapsed": 1248351, "internal_node_id": "0.0-4.0-1.0-14.0"}}, {"uniqueid": "w71836683:a61004108", "current_trial": 24, "dateTime": 1691486607287, "trialdata": {"revealed_states": [], "clicked_states": ["21", "16"], "num_clicks_accrued": [0, 0, 0, 0, 0, 0, 0, 0, 0, 0, 0, 0, 0], "stateRewards": ["", 2, 4, 4, 9, -88, -10, 44, 16, -54, 64, 78, 1, 2, 5, 16, 80, 36, 7, -4, 9, -47, -70, -1, -3, 6, -16, 11, 80, 28, 8, -1, 34, -17], "withholdReward": false, "trial_id": "mdp_trial_16", "block": "test", "trialIndex": 17, "score": 99.7, "costs": -4.3, "simulationMode": [null, null, null, null, null], "rewards": [1, 2, 5, 16, 80], "path": ["0", "0", "12", "13", "14", "15", "16"], "rt": [13165, 11, 45, 923, 167], "actions": ["right", "right", "right", "up", "up"], "actionTimes": [16232, 16766, 17358, 19024, 19952], "queries": {"click": {"state": {"target": ["21", "16"], "time": [5153, 8518]}, "edge": {"target": [], "time": []}}, "mouseover": {"state": {"target": ["12", "13", "19", "21", "19", "14", "15", "16", "32", "25", "26", "27", "26", "25", "30", "32"], "time": [4047, 4109, 4197, 4555, 6262, 6339, 6418, 6535, 9688, 13164, 13269, 13445, 14295, 14418, 14516, 14712]}, "edge": {"target": [], "time": []}}, "mouseout": {"state": {"target": ["21", "22", "12", "0", "12", "13", "19", "21", "19", "14", "15", "16", "32", "25", "26", "27", "26", "25", "30", "32"], "time": [1086, 1143, 1370, 4001, 4091, 4169, 4345, 6246, 6323, 6401, 6480, 9189, 13102, 13215, 13337, 14224, 14366, 14467, 14606, 22680]}, "edge": {"target": [], "time": []}}}, "displayed_time": "20.48", "trialTime": 24000, "trial_type": "mouselab-mdp", "trial_index": 24, "time_elapsed": 1274366, "internal_node_id": "0.0-4.0-1.0-15.0"}}, {"uniqueid": "w71836683:a61004108", "current_trial": 25, "dateTime": 1691486777091, "trialdata": {"revealed_states": [], "clicked_states": ["20", "29", "27", "32", "9"], "num_clicks_accrued": [0, 0, 0, 0, 0, 0, 0, 0, 0, 0, 0, 0, 0], "stateRewards": ["", -2, -1, -4, -15, -14, -67, 32, -3, -59, 63, 31, 2, -1, -7, -15, 71, -66, -27, -3, -54, -39, 72, 2, 1, 1, -13, 77, -40, 35, -9, 35, 75, 57], "withholdReward": false, "trial_id": "mdp_trial_17", "block": "test", "trialIndex": 18, "score": 57.25, "costs": -10.75, "simulationMode": [null, null, null, null, null], "rewards": [2, 1, 1, -13, 77], "path": ["0", "0", "23", "24", "25", "26", "27"], "rt": [20640, 389, 175, 24, 39], "actions": ["left", "left", "left", "up", "up"], "actionTimes": [162015, 162934, 163660, 164232, 164812], "queries": {"click": {"state": {"target": ["20", "29", "27", "32", "9"], "time": [143791, 148519, 152079, 155415, 158691]}, "edge": {"target": [], "time": []}}, "mouseover": {"state": {"target": ["14", "20", "0", "23", "24", "26", "29", "27", "30", "32", "10", "3", "9"], "time": [142742, 143303, 147342, 147408, 147732, 147824, 148078, 149289, 152780, 152983, 156068, 156161, 156513]}, "edge": {"target": [], "time": []}}, "mouseout": {"state": {"target": ["31", "0", "14", "20", "0", "23", "24", "26", "29", "27", "30", "32", "10", "3", "9", "4", "7"], "time": [870, 142666, 143188, 147289, 147394, 147439, 147780, 148021, 149228, 152609, 152851, 156001, 156144, 156286, 166407, 166580, 166990]}, "edge": {"target": [], "time": []}}}, "displayed_time": "165.37", "trialTime": 167336, "trial_type": "mouselab-mdp", "trial_index": 25, "time_elapsed": 1444169, "internal_node_id": "0.0-4.0-1.0-16.0"}}, {"uniqueid": "w71836683:a61004108", "current_trial": 26, "dateTime": 1691487127818, "trialdata": {"revealed_states": [], "clicked_states": ["32", "27"], "num_clicks_accrued": [0, 0, 0, 0, 0, 0, 0, 0, 0, 0, 0, 0, 0], "stateRewards": ["", -1, 2, -6, 6, 43, 78, 78, -2, 55, -29, -17, -2, -4, 1, -15, 13, 7, -79, 8, -28, -68, 36, -1, -3, 3, -16, 84, -18, 87, 10, 32, 13, -81], "withholdReward": false, "trial_id": "mdp_trial_18", "block": "test", "trialIndex": 19, "score": 62.7, "costs": -4.3, "simulationMode": [null, null, null, null, null], "rewards": [-1, -3, 3, -16, 84], "path": ["0", "0", "23", "24", "25", "26", "27"], "rt": [10239, 516, 304, 578, 204], "actions": ["left", "left", "left", "up", "up"], "actionTimes": [339859, 340939, 341786, 342914, 343643], "queries": {"click": {"state": {"target": ["32", "27"], "time": [330888, 335515]}, "edge": {"target": [], "time": []}}, "mouseover": {"state": {"target": ["23", "32", "26", "27", "29"], "time": [330127, 330563, 331540, 331877, 336538]}, "edge": {"target": [], "time": []}}, "mouseout": {"state": {"target": ["1", "0", "0", "23", "32", "26", "27", "29", "25"], "time": [304870, 327309, 329968, 330186, 331376, 331623, 336476, 346037, 346115]}, "edge": {"target": [], "time": []}}}, "displayed_time": "344.17", "trialTime": 347312, "trial_type": "mouselab-mdp", "trial_index": 26, "time_elapsed": 1794893, "internal_node_id": "0.0-4.0-1.0-17.0"}}, {"uniqueid": "w71836683:a61004108", "current_trial": 27, "dateTime": 1691487276361, "trialdata": {"revealed_states": [], "clicked_states": ["20", "9", "5", "3", "11"], "num_clicks_accrued": [0, 0, 0, 0, 0, 0, 0, 0, 0, 0, 0, 0, 0], "stateRewards": ["", -1, -3, -6, 14, 41, 18, 63, -14, 80, 21, 17, -2, -4, -2, -5, 13, 70, 8, -4, -64, -10, -20, 2, -1, 4, -1, -17, -55, 42, -7, 47, 54, 15], "withholdReward": false, "trial_id": "mdp_trial_19", "block": "test", "trialIndex": 20, "score": 46.45, "costs": -9.549999999999999, "simulationMode": [null, null, null, null, null], "rewards": [-1, -3, -6, -14, 80], "path": ["0", "0", "1", "2", "3", "8", "9"], "rt": [17875, 582, 205, 357, 822], "actions": ["up", "up", "up", "left", "up"], "actionTimes": [135458, 136579, 137326, 138294, 139669], "queries": {"click": {"state": {"target": ["20", "9", "5", "3", "11"], "time": [119845, 123138, 126607, 130461, 132292]}, "edge": {"target": [], "time": []}}, "mouseover": {"state": {"target": ["12", "13", "14", "20", "20", "9", "5", "11", "8", "3", "8", "11"], "time": [118882, 118949, 119016, 119118, 119469, 121330, 124237, 127773, 129202, 129671, 131202, 131953]}, "edge": {"target": [], "time": []}}, "mouseout": {"state": {"target": ["0", "12", "13", "14", "20", "20", "9", "5", "11", "8", "3", "8", "11", "8", "2", "1", "0"], "time": [115500, 118933, 119000, 119066, 119163, 120515, 123809, 127388, 129096, 129488, 131085, 131857, 143265, 143389, 144369, 144953, 145424]}, "edge": {"target": [], "time": []}}}, "displayed_time": "140.18", "trialTime": 146182, "trial_type": "mouselab-mdp", "trial_index": 27, "time_elapsed": 1943435, "internal_node_id": "0.0-4.0-1.0-18.0"}}, {"uniqueid": "w71836683:a61004108", "current_trial": 28, "dateTime": 1691487387253, "trialdata": {"revealed_states": [], "clicked_states": ["27", "29", "32", "21", "20", "18", "16", "7"], "num_clicks_accrued": [0, 0, 0, 0, 0, 0, 0, 0, 0, 0, 0, 0, 0], "stateRewards": ["", -2, 4, 3, 5, -61, 4, 30, 1, -47, 83, 10, 1, 4, 7, -14, 19, -74, -83, 6, -2, -2, -65, -1, -2, 4, -11, 12, -1, -68, 11, -38, -28, 66], "withholdReward": false, "trial_id": "mdp_trial_20", "block": "test", "trialIndex": 21, "score": 71.8, "costs": -17.2, "simulationMode": [null, null, null, null, null], "rewards": [-2, 4, 3, 1, 83], "path": ["0", "0", "1", "2", "3", "8", "10"], "rt": [36090, 200, 200, 779, 6970], "actions": ["up", "up", "up", "left", "down"], "actionTimes": [42464, 43253, 44006, 45381, 52880], "queries": {"click": {"state": {"target": ["27", "29", "32", "21", "20", "18", "16", "7"], "time": [8511, 11797, 15075, 18411, 21741, 25105, 28444, 31866]}, "edge": {"target": [], "time": []}}, "mouseover": {"state": {"target": ["28", "27", "27", "29", "33", "32", "31", "21", "21", "20", "15", "18", "16", "15", "7", "7", "2", "10", "9", "5", "5"], "time": [7271, 7601, 8150, 9448, 12342, 12808, 16154, 17305, 17737, 18988, 22271, 22534, 26114, 30174, 30320, 30792, 32461, 32589, 32916, 33734, 36200]}, "edge": {"target": [], "time": []}}, "mouseout": {"state": {"target": ["0", "28", "27", "27", "27", "29", "33", "32", "31", "21", "21", "20", "15", "18", "16", "15", "7", "7", "2", "10", "9", "5"], "time": [7255, 7322, 7683, 8665, 9198, 12280, 12412, 15945, 16771, 17563, 18972, 21892, 22351, 25999, 29644, 30254, 30436, 32396, 32524, 32754, 33345, 34093]}, "edge": {"target": [], "time": []}}}, "displayed_time": "53.42", "trialTime": 108639, "trial_type": "mouselab-mdp", "trial_index": 28, "time_elapsed": 2054327, "internal_node_id": "0.0-4.0-1.0-19.0"}}, {"uniqueid": "w71836683:a61004108", "current_trial": 29, "dateTime": 1691487440628, "trialdata": {"revealed_states": [], "clicked_states": ["20", "16", "13"], "num_clicks_accrued": [0, 0, 0, 0, 0, 0, 0, 0, 0, 0, 0, 0, 0], "stateRewards": ["", -2, 3, -5, -7, 66, 43, -60, -4, -70, -75, 4, -1, 2, 2, -13, 54, 11, -40, -1, 77, 32, 15, -2, 3, -8, -9, -35, 83, -27, 6, -74, -34, 44], "withholdReward": false, "trial_id": "mdp_trial_21", "block": "test", "trialIndex": 22, "score": 74.35, "costs": -4.6499999999999995, "simulationMode": [null, null, null, null, null], "rewards": [-1, 2, 2, -1, 77], "path": ["0", "0", "12", "13", "14", "19", "20"], "rt": [11809, 217, 81, 181, 555], "actions": ["right", "right", "right", "down", "right"], "actionTimes": [15001, 15771, 16402, 17117, 18201], "queries": {"click": {"state": {"target": ["20", "16", "13"], "time": [4501, 7749, 12407]}, "edge": {"target": [], "time": []}}, "mouseover": {"state": {"target": ["20", "17", "16", "8", "10", "18", "13", "14", "19"], "time": [4027, 6152, 6870, 8659, 8888, 11446, 11729, 13279, 13761]}, "edge": {"target": [], "time": []}}, "mouseout": {"state": {"target": ["5", "20", "17", "16", "8", "10", "18", "13", "14"], "time": [969, 6136, 6662, 8454, 8825, 11373, 11645, 13117, 13658]}, "edge": {"target": [], "time": []}}}, "displayed_time": "18.73", "trialTime": 51008, "trial_type": "mouselab-mdp", "trial_index": 29, "time_elapsed": 2107702, "internal_node_id": "0.0-4.0-1.0-20.0"}}, {"uniqueid": "w71836683:a61004108", "current_trial": 30, "dateTime": 1691487500726, "trialdata": {"revealed_states": [], "clicked_states": ["29"], "num_clicks_accrued": [0, 0, 0, 0, 0, 0, 0, 0, 0, 0, 0, 0, 0], "stateRewards": ["", -2, -3, 1, -7, 39, -67, 16, 5, -20, 73, 66, -1, 4, 5, -3, 23, -68, -87, -8, 3, -3, 17, 1, -4, -2, -13, -32, 34, 61, -5, -11, -18, 12], "withholdReward": false, "trial_id": "mdp_trial_22", "block": "test", "trialIndex": 23, "score": 40.85, "costs": -2.15, "simulationMode": [null, null, null, null, null], "rewards": [1, -4, -2, -13, 61], "path": ["0", "0", "23", "24", "25", "26", "29"], "rt": [9726, 28, 196, 767, 323], "actions": ["left", "left", "left", "up", "left"], "actionTimes": [51743, 52314, 53045, 54348, 55214], "queries": {"click": {"state": {"target": ["29"], "time": [43772]}, "edge": {"target": [], "time": []}}, "mouseover": {"state": {"target": ["26", "29", "27", "27"], "time": [43276, 43387, 47629, 48054]}, "edge": {"target": [], "time": []}}, "mouseout": {"state": {"target": ["19", "22", "12", "1", "0", "26", "29", "27"], "time": [39801, 39841, 39882, 40116, 43079, 43329, 47425, 47696]}, "edge": {"target": [], "time": []}}}, "displayed_time": "56.02", "trialTime": 57636, "trial_type": "mouselab-mdp", "trial_index": 30, "time_elapsed": 2167800, "internal_node_id": "0.0-4.0-1.0-21.0"}}, {"uniqueid": "w71836683:a61004108", "current_trial": 31, "dateTime": 1691487598986, "trialdata": {"revealed_states": [], "clicked_states": ["32", "31", "27", "10", "7", "20", "16", "18", "9", "5", "6", "11", "28", "33", "29"], "num_clicks_accrued": [0, 0, 0, 0, 0, 0, 0, 0, 0, 0, 0, 0, 0], "stateRewards": ["", 2, -4, 1, -12, -59, -53, -74, 16, -88, -66, 66, 1, -2, 8, -9, -14, 22, 25, -1, -39, 47, -14, -1, -1, -2, 1, -4, 52, -26, 15, -7, 46, 43], "withholdReward": false, "trial_id": "mdp_trial_23", "block": "test", "trialIndex": 24, "score": 48.75000000000001, "costs": -32.24999999999999, "simulationMode": [null, null, null, null, null], "rewards": [2, -4, 1, 16, 66], "path": ["0", "0", "1", "2", "3", "8", "11"], "rt": [53956, 65, 12, 205, 165], "actions": ["up", "up", "up", "left", "left"], "actionTimes": [58291, 58918, 59495, 60253, 60986], "queries": {"click": {"state": {"target": ["32", "31", "27", "10", "7", "20", "16", "18", "9", "5", "6", "11", "28", "33", "29"], "time": [6015, 9340, 12591, 15894, 19155, 22492, 25757, 29479, 32704, 36040, 39312, 42623, 45860, 50568, 54262]}, "edge": {"target": [], "time": []}}, "mouseover": {"state": {"target": ["23", "24", "30", "32", "31", "27", "11", "10", "2", "7", "15", "20", "16", "15", "18", "8", "9", "5", "5", "6", "3", "8", "11", "28", "26", "29", "33", "29", "26"], "time": [5278, 5346, 5474, 5577, 6924, 10251, 13336, 13634, 16392, 16646, 20218, 20591, 23412, 26449, 26691, 30867, 31181, 33620, 34285, 36881, 39933, 40030, 40162, 43510, 49387, 49454, 50312, 51517, 55368]}, "edge": {"target": [], "time": []}}, "mouseout": {"state": {"target": ["27", "0", "23", "24", "30", "32", "31", "27", "11", "10", "2", "7", "7", "15", "20", "16", "15", "18", "8", "9", "5", "5", "6", "3", "8", "11", "11", "28", "26", "29", "33", "29", "26"], "time": [2326, 2818, 5327, 5396, 5525, 6659, 9554, 13273, 13401, 16377, 16580, 19341, 19877, 20277, 23030, 26387, 26564, 30579, 30934, 33255, 33683, 36709, 39818, 40016, 40095, 42811, 43239, 49340, 49438, 49566, 50768, 55353, 55429]}, "edge": {"target": [], "time": []}}}, "displayed_time": "61.54", "trialTime": 95890, "trial_type": "mouselab-mdp", "trial_index": 31, "time_elapsed": 2266060, "internal_node_id": "0.0-4.0-1.0-22.0"}}, {"uniqueid": "w71836683:a61004108", "current_trial": 32, "dateTime": 1691487690566, "trialdata": {"revealed_states": [], "clicked_states": ["29", "32", "9", "6", "5", "10", "18", "20"], "num_clicks_accrued": [0, 0, 0, 0, 0, 0, 0, 0, 0, 0, 0, 0, 0], "stateRewards": ["", 1, 2, 8, -2, 23, -69, -18, -16, 54, -21, 71, -1, -4, 7, 11, 43, -6, 88, 6, -55, 72, 43, 1, -3, -2, -1, 68, -31, -54, 4, -8, 25, -2], "withholdReward": false, "trial_id": "mdp_trial_24", "block": "test", "trialIndex": 25, "score": 83.8, "costs": -17.2, "simulationMode": [null, null, null, null, null], "rewards": [-1, -4, 7, 11, 88], "path": ["0", "0", "12", "13", "14", "15", "18"], "rt": [28440, 380, 177, 413, 463], "actions": ["right", "right", "right", "up", "left"], "actionTimes": [64169, 65131, 65851, 66831, 68050], "queries": {"click": {"state": {"target": ["29", "32", "9", "6", "5", "10", "18", "20"], "time": [37402, 40642, 43983, 47209, 50691, 54178, 57539, 60970]}, "edge": {"target": [], "time": []}}, "mouseover": {"state": {"target": ["23", "24", "26", "29", "30", "32", "9", "9", "5", "6", "5", "3", "10", "7", "18", "15", "18", "20"], "time": [36712, 36785, 36904, 37097, 38831, 39015, 41671, 42181, 44655, 45139, 47802, 51206, 51529, 55528, 55995, 56280, 56401, 58665]}, "edge": {"target": [], "time": []}}, "mouseout": {"state": {"target": ["0", "23", "24", "26", "29", "30", "32", "9", "9", "5", "6", "5", "3", "10", "7", "18", "15", "18"], "time": [35781, 36769, 36852, 36953, 38264, 38942, 40856, 41973, 44507, 44753, 47445, 51115, 51487, 55083, 55966, 56121, 56384, 58268]}, "edge": {"target": [], "time": []}}}, "displayed_time": "68.78", "trialTime": 89135, "trial_type": "mouselab-mdp", "trial_index": 32, "time_elapsed": 2357641, "internal_node_id": "0.0-4.0-1.0-23.0"}}, {"uniqueid": "w71836683:a61004108", "current_trial": 33, "dateTime": 1691487780965, "trialdata": {"revealed_states": [], "clicked_states": ["33", "28", "7", "5", "9", "11", "3"], "num_clicks_accrued": [0, 0, 0, 0, 0, 0, 0, 0, 0, 0, 0, 0, 0], "stateRewards": ["", 1, 3, -2, 15, 51, 15, -19, 11, 67, -45, -73, 2, 4, -2, -13, 36, 9, -28, 10, -30, 31, 16, 1, 2, -1, -16, 14, -22, 36, -1, 88, -5, 45], "withholdReward": false, "trial_id": "mdp_trial_25", "block": "test", "trialIndex": 26, "score": 66.15, "costs": -13.85, "simulationMode": [null, null, null, null, null], "rewards": [1, 3, -2, 11, 67], "path": ["0", "0", "1", "2", "3", "8", "9"], "rt": [25383, 583, 166, 209, 20], "actions": ["up", "up", "up", "left", "up"], "actionTimes": [44296, 45444, 46132, 46788, 47410], "queries": {"click": {"state": {"target": ["33", "28", "7", "5", "9", "11", "3"], "time": [21549, 25483, 28733, 32321, 35566, 38920, 43046]}, "edge": {"target": [], "time": []}}, "mouseover": {"state": {"target": ["23", "24", "33", "30", "31", "24", "28", "10", "2", "7", "4", "5", "9", "9", "11", "8", "3"], "time": [20766, 20861, 21161, 23999, 24336, 24606, 24834, 26826, 27049, 27209, 31573, 31771, 33050, 33450, 36245, 42459, 42560]}, "edge": {"target": [], "time": []}}, "mouseout": {"state": {"target": ["20", "12", "23", "24", "33", "30", "31", "24", "28", "10", "2", "7", "4", "5", "9", "9", "9", "11", "8", "3"], "time": [16454, 16849, 20844, 20923, 23936, 24222, 24555, 24737, 26727, 26909, 27121, 31548, 31750, 32548, 33198, 35799, 36112, 42400, 42512, 49179]}, "edge": {"target": [], "time": []}}}, "displayed_time": "47.99", "trialTime": 87539, "trial_type": "mouselab-mdp", "trial_index": 33, "time_elapsed": 2448039, "internal_node_id": "0.0-4.0-1.0-24.0"}}, {"uniqueid": "w71836683:a61004108", "current_trial": 34, "dateTime": 1691488086002, "trialdata": {"revealed_states": [], "clicked_states": ["29", "10", "7", "32", "33", "31", "22"], "num_clicks_accrued": [0, 0, 0, 0, 0, 0, 0, 0, 0, 0, 0, 0, 0], "stateRewards": ["", 1, 1, 5, 6, -29, -7, 3, -16, 9, -46, 65, -1, 4, -1, -16, -63, -77, -87, 8, 80, -50, 43, -1, -1, -5, 5, -38, -71, -62, 9, 81, -50, -52], "withholdReward": false, "trial_id": "mdp_trial_26", "block": "test", "trialIndex": 27, "score": 67.95, "costs": -15.05, "simulationMode": [null, null, null, null, null], "rewards": [-1, -1, -5, 9, 81], "path": ["0", "0", "23", "24", "25", "30", "31"], "rt": [25898, 363, 190, 85, 48], "actions": ["left", "left", "left", "down", "right"], "actionTimes": [294257, 295152, 295883, 296510, 297131], "queries": {"click": {"state": {"target": ["29", "10", "7", "32", "33", "31", "22"], "time": [270033, 273674, 276981, 280176, 284060, 287371, 290643]}, "edge": {"target": [], "time": []}}, "mouseover": {"state": {"target": ["23", "29", "26", "28", "10", "2", "7", "12", "32", "33", "33", "30", "31", "12", "13", "22"], "time": [269328, 269705, 270923, 271004, 271326, 274356, 274519, 277788, 278272, 280983, 283734, 284714, 285008, 287971, 288053, 288296]}, "edge": {"target": [], "time": []}}, "mouseout": {"state": {"target": ["0", "23", "29", "26", "28", "10", "2", "7", "12", "32", "33", "33", "30", "31", "12", "13"], "time": [269272, 269385, 270905, 270989, 271067, 274336, 274508, 277605, 277855, 280917, 281596, 284646, 284842, 287853, 288035, 288180]}, "edge": {"target": [], "time": []}}}, "displayed_time": "297.70", "trialTime": 302323, "trial_type": "mouselab-mdp", "trial_index": 34, "time_elapsed": 2753076, "internal_node_id": "0.0-4.0-1.0-25.0"}}, {"uniqueid": "w71836683:a61004108", "current_trial": 35, "dateTime": 1691488274228, "trialdata": {"revealed_states": [], "clicked_states": ["7", "18", "9", "5", "6", "11", "10", "28", "27", "33", "29", "31"], "num_clicks_accrued": [0, 0, 0, 0, 0, 0, 0, 0, 0, 0, 0, 0, 0], "stateRewards": ["", -1, -1, 7, -15, -43, -21, -84, -9, -45, -66, 2, 1, -2, 2, 8, -27, 44, -52, -5, -84, 11, 53, 1, 4, -4, 16, 83, -82, -15, -16, 68, -43, 81], "withholdReward": false, "trial_id": "mdp_trial_27", "block": "test", "trialIndex": 28, "score": 74.2, "costs": -25.799999999999994, "simulationMode": [null, null, null, null, null], "rewards": [1, 4, -4, 16, 83], "path": ["0", "0", "23", "24", "25", "26", "27"], "rt": [41332, 442, 1180, 97, 54], "actions": ["left", "left", "left", "up", "up"], "actionTimes": [103704, 104707, 106430, 107070, 107778], "queries": {"click": {"state": {"target": ["7", "18", "9", "5", "6", "11", "10", "28", "27", "33", "29", "31"], "time": [63816, 67062, 70381, 73700, 76981, 80182, 83434, 86640, 89793, 92848, 95998, 100155]}, "edge": {"target": [], "time": []}}, "mouseover": {"state": {"target": ["7", "18", "9", "5", "6", "9", "11", "10", "28", "28", "27", "29", "33", "29", "25", "31"], "time": [63308, 64503, 67905, 70985, 74503, 77704, 78016, 80925, 84099, 84383, 87264, 90521, 90955, 94119, 99415, 99760]}, "edge": {"target": [], "time": []}}, "mouseout": {"state": {"target": ["22", "12", "0", "7", "18", "9", "5", "6", "9", "11", "11", "10", "28", "28", "27", "29", "33", "29", "25", "31"], "time": [1358, 1539, 63183, 64331, 67532, 70883, 74340, 77132, 77771, 80379, 80735, 83851, 84171, 87188, 90403, 90602, 94024, 99363, 99478, 105324]}, "edge": {"target": [], "time": []}}}, "displayed_time": "108.33", "trialTime": 185749, "trial_type": "mouselab-mdp", "trial_index": 35, "time_elapsed": 2941302, "internal_node_id": "0.0-4.0-1.0-26.0"}}, {"uniqueid": "w71836683:a61004108", "current_trial": 36, "dateTime": 1691488341161, "trialdata": {"revealed_states": [], "clicked_states": ["29", "33", "28"], "num_clicks_accrued": [0, 0, 0, 0, 0, 0, 0, 0, 0, 0, 0, 0, 0], "stateRewards": ["", -2, -3, 8, -4, -30, 31, 69, 9, 66, 87, 64, -2, 2, 8, 5, 47, 16, -39, -8, -54, 51, -19, 1, -2, -2, -11, -25, -26, 43, -9, 19, -84, 86], "withholdReward": false, "trial_id": "mdp_trial_28", "block": "test", "trialIndex": 29, "score": 67.55, "costs": -6.449999999999999, "simulationMode": [null, null, null, null, null], "rewards": [1, -2, -2, -9, 86], "path": ["0", "0", "23", "24", "25", "30", "33"], "rt": [10977, 359, 119, 467, 602], "actions": ["left", "left", "left", "down", "left"], "actionTimes": [56891, 57838, 58526, 59519, 60662], "queries": {"click": {"state": {"target": ["29", "33", "28"], "time": [47412, 50799, 53768]}, "edge": {"target": [], "time": []}}, "mouseover": {"state": {"target": ["26", "29", "33", "30", "24", "28", "27", "28"], "time": [46961, 47108, 48892, 51439, 51578, 51972, 52230, 52699]}, "edge": {"target": [], "time": []}}, "mouseout": {"state": {"target": ["0", "26", "29", "33", "30", "24", "28", "27", "28"], "time": [1497, 47018, 48530, 51423, 51508, 51644, 52088, 52493, 63418]}, "edge": {"target": [], "time": []}}}, "displayed_time": "61.19", "trialTime": 64458, "trial_type": "mouselab-mdp", "trial_index": 36, "time_elapsed": 3008230, "internal_node_id": "0.0-4.0-1.0-27.0"}}, {"uniqueid": "w71836683:a61004108", "current_trial": 37, "dateTime": 1691488806570, "trialdata": {"revealed_states": [], "clicked_states": [], "num_clicks_accrued": [0, 0, 0, 0, 0, 0, 0, 0, 0, 0, 0, 0, 0], "stateRewards": ["", -1, 4, -5, 9, 29, -75, -42, -16, 24, -28, -41, 2, -3, 1, 10, 60, 47, 55, -1, -53, 22, -40, 2, -3, -6, 4, -26, 44, 54, 15, -76, 42, 14], "withholdReward": false, "trial_id": "mdp_trial_29", "block": "test", "trialIndex": 30, "score": 41, "costs": 0, "simulationMode": [null, null, null, null, null], "rewards": [2, -3, -6, 4, 44], "path": ["0", "0", "23", "24", "25", "26", "28"], "rt": [7565, 226, 386, 1028, 186], "actions": ["left", "left", "left", "up", "right"], "actionTimes": [424417, 425170, 426108, 427660, 428372], "queries": {"click": {"state": {"target": [], "time": []}, "edge": {"target": [], "time": []}}, "mouseover": {"state": {"target": ["24", "25", "33"], "time": [420263, 420373, 420504]}, "edge": {"target": [], "time": []}}, "mouseout": {"state": {"target": ["0", "24", "25"], "time": [420206, 420314, 420457]}, "edge": {"target": [], "time": []}}}, "displayed_time": "430.85", "trialTime": 463026, "trial_type": "mouselab-mdp", "trial_index": 37, "time_elapsed": 3473642, "internal_node_id": "0.0-4.0-1.0-28.0"}}, {"uniqueid": "w71836683:a61004108", "current_trial": 38, "dateTime": 1691488945880, "trialdata": {"revealed_states": [], "clicked_states": ["31", "29", "33", "10", "11", "7", "9", "6"], "num_clicks_accrued": [0, 0, 0, 0, 0, 0, 0, 0, 0, 0, 0, 0, 0], "stateRewards": ["", 2, -1, 5, 6, 10, 86, 55, 10, -45, 63, -71, 1, -2, 5, -8, -50, -72, 36, 15, 61, 12, 33, -1, -4, 6, 5, 79, -56, -21, -16, -87, 60, -81], "withholdReward": false, "trial_id": "mdp_trial_30", "block": "test", "trialIndex": 31, "score": 80.8, "costs": -17.2, "simulationMode": [null, null, null, null, null], "rewards": [2, -1, 5, 6, 86], "path": ["0", "0", "1", "2", "3", "4", "6"], "rt": [30599, 366, 194, 16, 161], "actions": ["up", "up", "up", "right", "right"], "actionTimes": [124861, 125851, 126566, 127124, 127840], "queries": {"click": {"state": {"target": ["31", "29", "33", "10", "11", "7", "9", "6"], "time": [96314, 99661, 102955, 106365, 109758, 113145, 116476, 120383]}, "edge": {"target": [], "time": []}}, "mouseover": {"state": {"target": ["31", "31", "29", "33", "24", "1", "10", "11", "8", "7", "3", "9", "5", "6", "18"], "time": [95646, 95974, 97579, 101462, 103811, 104133, 104777, 107599, 110709, 110979, 114391, 115030, 117717, 119874, 122345]}, "edge": {"target": [], "time": []}}, "mouseout": {"state": {"target": ["33", "25", "23", "0", "31", "31", "29", "33", "24", "1", "10", "11", "8", "7", "3", "9", "5", "6"], "time": [92048, 92104, 92321, 95590, 95738, 97243, 100969, 103789, 104059, 104664, 107479, 110692, 110778, 114322, 114459, 117561, 119795, 121908]}, "edge": {"target": [], "time": []}}}, "displayed_time": "128.41", "trialTime": 136690, "trial_type": "mouselab-mdp", "trial_index": 38, "time_elapsed": 3612958, "internal_node_id": "0.0-4.0-1.0-29.0"}}, {"uniqueid": "w71836683:a61004108", "current_trial": 39, "dateTime": 1691489007542, "trialdata": {"revealed_states": [], "clicked_states": ["31", "22"], "num_clicks_accrued": [0, 0, 0, 0, 0, 0, 0, 0, 0, 0, 0, 0, 0], "stateRewards": ["", -1, 2, -7, -12, -62, 12, -13, 5, 77, -71, 83, 1, -4, 7, 15, -42, -87, -4, 5, -25, 44, 88, -1, 4, -5, -8, 14, 51, 8, -5, 83, -24, -19], "withholdReward": false, "trial_id": "mdp_trial_31", "block": "test", "trialIndex": 32, "score": 92.7, "costs": -4.3, "simulationMode": [null, null, null, null, null], "rewards": [1, -4, 7, 5, 88], "path": ["0", "0", "12", "13", "14", "19", "22"], "rt": [10083, 463, 141, 133, 34], "actions": ["right", "right", "right", "down", "left"], "actionTimes": [50057, 51083, 51737, 52406, 52962], "queries": {"click": {"state": {"target": ["31", "22"], "time": [41917, 45235]}, "edge": {"target": [], "time": []}}, "mouseover": {"state": {"target": ["30", "31", "22", "22"], "time": [41090, 41464, 42735, 43465]}, "edge": {"target": [], "time": []}}, "mouseout": {"state": {"target": ["18", "12", "0", "30", "31", "22", "22"], "time": [6072, 6338, 41035, 41153, 42659, 42989, 55920]}, "edge": {"target": [], "time": []}}}, "displayed_time": "53.97", "trialTime": 59240, "trial_type": "mouselab-mdp", "trial_index": 39, "time_elapsed": 3674615, "internal_node_id": "0.0-4.0-1.0-30.0"}}, {"uniqueid": "w71836683:a61004108", "current_trial": 40, "dateTime": 1691489120926, "trialdata": {"revealed_states": [], "clicked_states": ["31", "27", "9", "5", "6", "18", "21", "20"], "num_clicks_accrued": [0, 0, 0, 0, 0, 0, 0, 0, 0, 0, 0, 0, 0], "stateRewards": ["", 1, 1, 7, -11, 80, -20, -53, -14, 3, 31, 27, 2, -1, -8, -10, 33, 41, 86, 9, 78, -37, -13, -1, -2, -6, -8, -80, 75, 4, -16, -49, -74, 24], "withholdReward": false, "trial_id": "mdp_trial_32", "block": "test", "trialIndex": 33, "score": 51.8, "costs": -17.2, "simulationMode": [null, null, null, null, null], "rewards": [2, -1, -8, -10, 86], "path": ["0", "0", "12", "13", "14", "15", "18"], "rt": [29015, 226, 191, 524, 535], "actions": ["right", "right", "right", "up", "left"], "actionTimes": [100994, 101782, 102520, 103588, 104681], "queries": {"click": {"state": {"target": ["31", "27", "9", "5", "6", "18", "21", "20"], "time": [73647, 76909, 80154, 83385, 87019, 90297, 94327, 97828]}, "edge": {"target": [], "time": []}}, "mouseover": {"state": {"target": ["31", "24", "27", "10", "8", "9", "5", "6", "18", "21", "20"], "time": [73269, 74050, 74500, 77583, 77901, 78032, 80761, 83900, 88384, 91875, 95137]}, "edge": {"target": [], "time": []}}, "mouseout": {"state": {"target": ["0", "31", "24", "27", "10", "8", "9", "5", "6", "18", "21", "20", "22", "13", "14", "13", "12", "14", "14", "13"], "time": [73010, 74030, 74120, 77407, 77824, 77965, 80364, 83825, 88153, 91252, 95055, 107988, 108914, 109193, 109386, 109446, 109544, 109608, 109743, 110299]}, "edge": {"target": [], "time": []}}}, "displayed_time": "105.21", "trialTime": 110760, "trial_type": "mouselab-mdp", "trial_index": 40, "time_elapsed": 3788000, "internal_node_id": "0.0-4.0-1.0-31.0"}}, {"uniqueid": "w71836683:a61004108", "current_trial": 41, "dateTime": 1691489199048, "trialdata": {"revealed_states": [], "clicked_states": ["31", "11", "20", "17", "18", "32", "33", "29", "27", "10", "7", "5", "9", "6"], "num_clicks_accrued": [0, 0, 0, 0, 0, 0, 0, 0, 0, 0, 0, 0, 0], "stateRewards": ["", -2, 2, -5, 1, 42, -63, -58, -6, 2, 16, 81, -2, 4, 7, -10, 33, 3, -33, -2, -52, -84, -27, 2, -3, -3, 15, -74, -14, -5, -5, -84, 79, -31], "withholdReward": false, "trial_id": "mdp_trial_33", "block": "test", "trialIndex": 34, "score": -93.1, "costs": -30.09999999999999, "simulationMode": [null, null, null, null, null], "rewards": [2, -3, -3, 15, -74], "path": ["0", "0", "23", "24", "25", "26", "27"], "rt": [53379, 34, 407, 1598, 5877], "actions": ["left", "left", "left", "up", "up"], "actionTimes": [58839, 59519, 60486, 62626, 69055], "queries": {"click": {"state": {"target": ["31", "11", "20", "17", "18", "32", "33", "29", "27", "10", "7", "5", "9", "6"], "time": [7955, 11335, 14602, 18137, 21579, 26425, 30032, 33243, 36546, 39979, 43358, 46702, 50111, 55557]}, "edge": {"target": [], "time": []}}, "mouseover": {"state": {"target": ["23", "31", "31", "24", "28", "10", "8", "11", "13", "14", "20", "17", "15", "18", "16", "12", "32", "32", "31", "33", "29", "27", "10", "2", "7", "5", "9", "4", "6"], "time": [7245, 7380, 7612, 9008, 9222, 9463, 9932, 10200, 11942, 12323, 12529, 16773, 19649, 20072, 22935, 25133, 25691, 25995, 27268, 27656, 30551, 33945, 37713, 40580, 41419, 44115, 47528, 53548, 53789]}, "edge": {"target": [], "time": []}}, "mouseout": {"state": {"target": ["0", "23", "31", "31", "24", "28", "10", "8", "11", "13", "14", "20", "17", "15", "18", "18", "16", "12", "32", "32", "31", "33", "29", "27", "10", "2", "7", "5", "9", "4"], "time": [3139, 7314, 7438, 8876, 9088, 9305, 9538, 10072, 11773, 12257, 12397, 16495, 19581, 20054, 22167, 22600, 25082, 25188, 25747, 26602, 27457, 30483, 33700, 37106, 40566, 40964, 43566, 47286, 53488, 53645]}, "edge": {"target": [], "time": []}}}, "displayed_time": "69.60", "trialTime": 75633, "trial_type": "mouselab-mdp", "trial_index": 41, "time_elapsed": 3866121, "internal_node_id": "0.0-4.0-1.0-32.0"}}, {"uniqueid": "w71836683:a61004108", "current_trial": 42, "dateTime": 1691489222856, "trialdata": {"revealed_states": [], "clicked_states": [], "num_clicks_accrued": [0, 0, 0, 0, 0, 0, 0, 0, 0, 0, 0, 0, 0], "stateRewards": ["", -1, 1, 8, -3, -24, 11, -65, -6, -77, 48, 44, -2, 1, -2, -7, -55, -35, 33, 8, -28, 19, -53, -1, -1, -5, -5, -70, 10, 44, 8, -58, -70, 51], "withholdReward": false, "trial_id": "mdp_trial_34", "block": "test", "trialIndex": 35, "score": -82, "costs": 0, "simulationMode": [null, null, null, null, null], "rewards": [-1, -1, -5, -5, -70], "path": ["0", "0", "23", "24", "25", "26", "27"], "rt": [5883, 350, 653, 15, 16], "actions": ["left", "left", "left", "up", "up"], "actionTimes": [10553, 11440, 12642, 13267, 13837], "queries": {"click": {"state": {"target": [], "time": []}, "edge": {"target": [], "time": []}}, "mouseover": {"state": {"target": ["23", "25", "33", "33"], "time": [6406, 6817, 7096, 7826]}, "edge": {"target": [], "time": []}}, "mouseout": {"state": {"target": ["6", "7", "0", "23", "25", "33", "33", "31"], "time": [2378, 2447, 6390, 6529, 7034, 7218, 18451, 18532]}, "edge": {"target": [], "time": []}}}, "displayed_time": "18.67", "trialTime": 21110, "trial_type": "mouselab-mdp", "trial_index": 42, "time_elapsed": 3889929, "internal_node_id": "0.0-4.0-1.0-33.0"}}, {"uniqueid": "w71836683:a61004108", "current_trial": 43, "dateTime": 1691489253536, "trialdata": {"revealed_states": [], "clicked_states": ["20", "27", "29", "32", "9"], "num_clicks_accrued": [0, 0, 0, 0, 0, 0, 0, 0, 0, 0, 0, 0, 0], "stateRewards": ["", 2, 3, 6, -5, -74, -53, 17, -12, 46, 44, 18, -2, 4, 1, -8, 22, -23, -49, 9, -45, 55, 81, 1, -1, -7, -16, -83, -71, -45, 2, 51, 82, 61], "withholdReward": false, "trial_id": "mdp_trial_35", "block": "test", "trialIndex": 36, "score": 66.25, "costs": -10.75, "simulationMode": [null, null, null, null, null], "rewards": [1, -1, -7, 2, 82], "path": ["0", "0", "23", "24", "25", "30", "32"], "rt": [19664, 356, 70, 91, 678], "actions": ["left", "left", "left", "down", "down"], "actionTimes": [22876, 23749, 24353, 24992, 26406], "queries": {"click": {"state": {"target": ["20", "27", "29", "32", "9"], "time": [4829, 9032, 12690, 16288, 19693]}, "edge": {"target": [], "time": []}}, "mouseover": {"state": {"target": ["12", "14", "20", "19", "22", "28", "27", "27", "29", "32", "8", "9", "9"], "time": [3896, 3964, 4281, 5697, 6168, 8231, 8383, 8649, 9708, 13567, 17274, 17682, 18017]}, "edge": {"target": [], "time": []}}, "mouseout": {"state": {"target": ["0", "12", "14", "20", "19", "22", "28", "27", "27", "27", "29", "32", "8", "9", "9"], "time": [3880, 3948, 4024, 5625, 5824, 8020, 8332, 8451, 9182, 9584, 13372, 16889, 17664, 17750, 19902]}, "edge": {"target": [], "time": []}}}, "displayed_time": "26.95", "trialTime": 27834, "trial_type": "mouselab-mdp", "trial_index": 43, "time_elapsed": 3920613, "internal_node_id": "0.0-4.0-1.0-34.0"}}, {"uniqueid": "w71836683:a61004108", "current_trial": 44, "dateTime": 1691489287449, "trialdata": {"revealed_states": [], "clicked_states": ["17", "9", "32", "27", "5"], "num_clicks_accrued": [0, 0, 0, 0, 0, 0, 0, 0, 0, 0, 0, 0, 0], "stateRewards": ["", 1, 1, 4, 11, 83, -66, 18, -16, -23, 5, 25, 1, -3, 1, -12, 18, 24, -86, -11, -64, 36, 40, 2, 1, -6, 13, 55, 29, 72, -2, 81, -72, -41], "withholdReward": false, "trial_id": "mdp_trial_36", "block": "test", "trialIndex": 37, "score": 89.25, "costs": -10.75, "simulationMode": [null, null, null, null, null], "rewards": [1, 1, 4, 11, 83], "path": ["0", "0", "1", "2", "3", "4", "5"], "rt": [21381, 249, 298, 127, 55], "actions": ["up", "up", "up", "right", "up"], "actionTimes": [24933, 25747, 26566, 27212, 27793], "queries": {"click": {"state": {"target": ["17", "9", "32", "27", "5"], "time": [5316, 9758, 13130, 16479, 20236]}, "edge": {"target": [], "time": []}}, "mouseover": {"state": {"target": ["14", "17", "6", "5", "9", "28", "32", "25", "26", "27", "8", "3", "5", "6"], "time": [4358, 4761, 6813, 6900, 7784, 11246, 11662, 13905, 13992, 14241, 16995, 17137, 17438, 21141]}, "edge": {"target": [], "time": []}}, "mouseout": {"state": {"target": ["9", "2", "1", "0", "14", "17", "6", "5", "9", "28", "32", "25", "26", "27", "8", "3", "5"], "time": [807, 1018, 1252, 4278, 4398, 5504, 6883, 7107, 9940, 11318, 13782, 13977, 14167, 16923, 17064, 17264, 20913]}, "edge": {"target": [], "time": []}}}, "displayed_time": "28.38", "trialTime": 29538, "trial_type": "mouselab-mdp", "trial_index": 44, "time_elapsed": 3954525, "internal_node_id": "0.0-4.0-1.0-35.0"}}, {"uniqueid": "w71836683:a61004108", "current_trial": 45, "dateTime": 1691489325161, "trialdata": {"revealed_states": [], "clicked_states": ["21", "16", "10", "7", "32", "27"], "num_clicks_accrued": [0, 0, 0, 0, 0, 0, 0, 0, 0, 0, 0, 0, 0], "stateRewards": ["", 2, -1, -1, 7, 11, -40, -22, -2, 69, 37, 8, -2, 4, -8, -12, -2, -72, -3, -12, 17, 63, 12, 1, 3, -7, 6, 25, 61, 61, -9, 28, -17, 27], "withholdReward": false, "trial_id": "mdp_trial_37", "block": "test", "trialIndex": 38, "score": 32.1, "costs": -12.9, "simulationMode": [null, null, null, null, null], "rewards": [-2, 4, -8, -12, 63], "path": ["0", "0", "12", "13", "14", "19", "21"], "rt": [24392, 378, 179, 103, 308], "actions": ["right", "right", "right", "down", "down"], "actionTimes": [27825, 28749, 29448, 30083, 30956], "queries": {"click": {"state": {"target": ["21", "16", "10", "7", "32", "27"], "time": [5676, 9158, 12591, 16147, 20002, 24467]}, "edge": {"target": [], "time": []}}, "mouseover": {"state": {"target": ["12", "22", "21", "19", "14", "16", "10", "2", "7", "2", "33", "32", "25", "27", "26", "28"], "time": [4315, 4587, 5087, 6818, 6908, 7044, 11897, 13471, 13759, 16943, 17513, 18014, 23614, 24054, 25258, 25623]}, "edge": {"target": [], "time": []}}, "mouseout": {"state": {"target": ["6", "12", "22", "21", "19", "14", "16", "10", "2", "7", "2", "33", "32", "25", "27", "26"], "time": [825, 4385, 4904, 6748, 6888, 6971, 11302, 13399, 13617, 16923, 17009, 17644, 23549, 23671, 25185, 25382]}, "edge": {"target": [], "time": []}}}, "displayed_time": "31.51", "trialTime": 35275, "trial_type": "mouselab-mdp", "trial_index": 45, "time_elapsed": 3992239, "internal_node_id": "0.0-4.0-1.0-36.0"}}, {"uniqueid": "w71836683:a61004108", "current_trial": 46, "dateTime": 1691489360372, "trialdata": {"revealed_states": [], "clicked_states": ["29", "9", "5", "10", "11", "6"], "num_clicks_accrued": [0, 0, 0, 0, 0, 0, 0, 0, 0, 0, 0, 0, 0], "stateRewards": ["", -2, 2, -4, -4, -59, 88, 62, -3, 69, -15, -34, 1, -2, -5, 7, -54, -20, 78, -16, -74, -53, -21, 2, -4, 2, 13, -8, -44, 26, 9, 72, 4, 17], "withholdReward": false, "trial_id": "mdp_trial_38", "block": "test", "trialIndex": 39, "score": 67.1, "costs": -12.9, "simulationMode": [null, null, null, null, null], "rewards": [-2, 2, -4, -4, 88], "path": ["0", "0", "1", "2", "3", "4", "6"], "rt": [24859, 243, 183, 16, 145], "actions": ["up", "up", "up", "right", "right"], "actionTimes": [28513, 29318, 30054, 30602, 31303], "queries": {"click": {"state": {"target": ["29", "9", "5", "10", "11", "6"], "time": [5434, 8746, 12225, 15744, 19357, 22778]}, "edge": {"target": [], "time": []}}, "mouseover": {"state": {"target": ["23", "24", "25", "29", "26", "8", "9", "5", "5", "3", "10", "2", "7", "2", "11", "8", "3", "4", "6", "16", "17"], "time": [4395, 4511, 4640, 4983, 6409, 6645, 7124, 9461, 9803, 12862, 13136, 16443, 16739, 18288, 18784, 19922, 20017, 20108, 20414, 23328, 23670]}, "edge": {"target": [], "time": []}}, "mouseout": {"state": {"target": ["28", "0", "0", "23", "24", "25", "29", "26", "8", "9", "5", "5", "3", "10", "2", "7", "2", "11", "8", "3", "4", "6", "16"], "time": [768, 1227, 1692, 4454, 4575, 4883, 6337, 6487, 6724, 9279, 9536, 12787, 12941, 16357, 16518, 18272, 18355, 19902, 20003, 20090, 20244, 23259, 23397]}, "edge": {"target": [], "time": []}}}, "displayed_time": "31.86", "trialTime": 32818, "trial_type": "mouselab-mdp", "trial_index": 46, "time_elapsed": 4027444, "internal_node_id": "0.0-4.0-1.0-37.0"}}, {"uniqueid": "w71836683:a61004108", "current_trial": 47, "dateTime": 1691489411046, "trialdata": {"revealed_states": [], "clicked_states": ["33", "7", "17", "20", "22", "21", "6", "11", "10", "29", "28"], "num_clicks_accrued": [0, 0, 0, 0, 0, 0, 0, 0, 0, 0, 0, 0, 0], "stateRewards": ["", 2, 3, -1, 16, -78, -11, 46, 2, -20, 79, -67, 2, 3, 2, 11, -83, -42, -58, -11, -67, -22, 55, 2, -1, -1, -16, -83, -82, 23, -11, -29, 13, 13], "withholdReward": false, "trial_id": "mdp_trial_39", "block": "test", "trialIndex": 40, "score": 61.35000000000001, "costs": -23.649999999999995, "simulationMode": [null, null, null, null, null], "rewards": [2, 3, -1, 2, 79], "path": ["0", "0", "1", "2", "3", "8", "10"], "rt": [40501, 238, 134, 17, 566], "actions": ["up", "up", "up", "left", "down"], "actionTimes": [43531, 44294, 44960, 45537, 46760], "queries": {"click": {"state": {"target": ["33", "7", "17", "20", "22", "21", "6", "11", "10", "29", "28"], "time": [4876, 9102, 12567, 15908, 19243, 22553, 25932, 29305, 32951, 36329, 40314]}, "edge": {"target": [], "time": []}}, "mouseover": {"state": {"target": ["23", "24", "30", "33", "25", "7", "15", "17", "15", "14", "19", "20", "19", "22", "21", "6", "5", "11", "10", "29", "26", "27", "26", "28"], "time": [4047, 4127, 4291, 4526, 6013, 6541, 9972, 10647, 13325, 13469, 13564, 13892, 16680, 16876, 20881, 23879, 26664, 27386, 30225, 33640, 37338, 37643, 39573, 39922]}, "edge": {"target": [], "time": []}}, "mouseout": {"state": {"target": ["17", "12", "23", "24", "30", "33", "25", "7", "15", "17", "15", "14", "19", "20", "19", "22", "21", "6", "5", "11", "10", "29", "26", "27", "26"], "time": [801, 1153, 4108, 4197, 4367, 5995, 6089, 9898, 10051, 13255, 13397, 13547, 13644, 16599, 16753, 20758, 22760, 26585, 26801, 29875, 33137, 37321, 37465, 39494, 39630]}, "edge": {"target": [], "time": []}}}, "displayed_time": "47.30", "trialTime": 48250, "trial_type": "mouselab-mdp", "trial_index": 47, "time_elapsed": 4078119, "internal_node_id": "0.0-4.0-1.0-38.0"}}, {"uniqueid": "w71836683:a61004108", "current_trial": 48, "dateTime": 1691489480142, "trialdata": {"revealed_states": [], "clicked_states": ["5", "7", "22", "33", "31", "27", "10", "17", "21", "18", "28", "32", "9", "11"], "num_clicks_accrued": [0, 0, 0, 0, 0, 0, 0, 0, 0, 0, 0, 0, 0], "stateRewards": ["", -1, 2, -2, 13, -56, -28, 10, 14, 53, -80, -29, 1, -3, -3, -14, 14, 9, -40, -9, 18, 18, 48, 1, 1, 1, -9, 64, -39, -9, 7, -52, -78, 7], "withholdReward": false, "trial_id": "mdp_trial_40", "block": "test", "trialIndex": 41, "score": 27.900000000000006, "costs": -30.09999999999999, "simulationMode": [null, null, null, null, null], "rewards": [1, 1, 1, -9, 64], "path": ["0", "0", "23", "24", "25", "26", "27"], "rt": [53632, 17, 594, 582, 178], "actions": ["left", "left", "left", "up", "up"], "actionTimes": [57275, 57835, 58996, 60245, 60977], "queries": {"click": {"state": {"target": ["5", "7", "22", "33", "31", "27", "10", "17", "21", "18", "28", "32", "9", "11"], "time": [6721, 10145, 13722, 17138, 20528, 23833, 27318, 30762, 34323, 38952, 42366, 45799, 49938, 53902]}, "edge": {"target": [], "time": []}}, "mouseover": {"state": {"target": ["5", "4", "7", "22", "33", "30", "31", "24", "27", "10", "2", "10", "16", "17", "21", "16", "18", "18", "1", "28", "30", "32", "9", "9", "11", "8", "6", "6"], "time": [4857, 7602, 7916, 11497, 15038, 18194, 18286, 21153, 21472, 24493, 24640, 24920, 28609, 29134, 32020, 35048, 35461, 38585, 40099, 40740, 44169, 44311, 49243, 49524, 53492, 54577, 54747, 55200]}, "edge": {"target": [], "time": []}}, "mouseout": {"state": {"target": ["28", "0", "5", "5", "4", "7", "22", "33", "30", "31", "24", "27", "10", "2", "10", "16", "17", "17", "21", "16", "18", "18", "1", "28", "30", "32", "9", "9", "11", "8", "6", "6", "17", "14", "13"], "time": [1390, 4479, 6851, 7585, 7727, 10308, 14531, 18170, 18270, 21136, 21234, 24421, 24568, 24847, 28236, 28795, 30969, 31681, 34851, 35331, 36422, 39972, 40177, 43877, 44242, 49153, 49299, 53363, 54560, 54665, 54876, 62937, 63244, 63343, 63429]}, "edge": {"target": [], "time": []}}}, "displayed_time": "61.55", "trialTime": 66778, "trial_type": "mouselab-mdp", "trial_index": 48, "time_elapsed": 4147220, "internal_node_id": "0.0-4.0-1.0-39.0"}}, {"uniqueid": "w71836683:a61004108", "current_trial": 49, "dateTime": 1691489566152, "trialdata": {"rt": 85479, "response": {"Q0": "$-2 to $2", "Q1": "$-4 to $4", "Q2": "$-88 to $88", "Q3": "The cost for clicking on nodes varied between nodes.", "Q4": "Very motivated"}, "question_order": [0, 1, 2, 3, 4], "trial_id": "final_quiz_control", "trial_type": "survey-multi-choice", "trial_index": 49, "time_elapsed": 4233227, "internal_node_id": "0.0-4.0-2.0"}}, {"uniqueid": "w71836683:a61004108", "current_trial": 50, "dateTime": 1691489738300, "trialdata": {"rt": 171529, "response": {"Q0": "Clicking on the last nodes to see the values.", "Q1": "I started out clicking on the closest nodes to the starting point but realized the values there were small and decided to click on the furthest and make my way in", "Q2": "It was a bit tricky because I didn't know the costs I would incur on the route that I took."}, "trial_id": "self_report_control", "trial_type": "survey-text", "trial_index": 50, "time_elapsed": 4405375, "internal_node_id": "0.0-4.0-3.0"}}, {"uniqueid": "w71836683:a61004108", "current_trial": 51, "dateTime": 1691489827036, "trialdata": {"rt": 88690, "response": {"Q0": "Strongly disagree", "Q1": "Disagree", "Q2": "Strongly agree", "Q3": "Strongly agree", "Q4": "Strongly disagree", "Q5": "Strongly agree", "Q6": "Strongly disagree"}, "question_order": [0, 1, 2, 3, 4, 5, 6], "trial_id": "self_report_2", "trial_type": "survey-multi-choice", "trial_index": 51, "time_elapsed": 4494115, "internal_node_id": "0.0-4.0-4.0"}}, {"uniqueid": "w71836683:a61004108", "current_trial": 52, "dateTime": 1691489853669, "trialdata": {"rt": 26353, "response": {"gender": "female", "age": "23", "colorblind": "0", "effort": "0"}, "trial_type": "survey-html-form", "trial_index": 52, "time_elapsed": 4520749, "internal_node_id": "0.0-4.0-5.0"}}, {"uniqueid": "w71836683:a61004108", "current_trial": 53, "dateTime": 1691489986741, "trialdata": {"rt": 132988, "response": {"Q0": "I struggle with the concept of the node inspector on the first two times but quickly figured out how it worked. I initially thought I had to follow through with the route of the nodes I checked.", "Q1": "No, I have never participated in this HIT", "Q2": "No"}, "trial_type": "survey-text", "trial_index": 53, "time_elapsed": 4653820, "internal_node_id": "0.0-4.0-6.0"}}, {"uniqueid": "w71836683:a61004108", "current_trial": 54, "dateTime": 1691489989681, "trialdata": {"rt": 2865, "stimulus": "Press 'Finish HIT' in order to reach the completion code. Once the data has been saved, you will receive the code either in this window or in the original browser window where you started the experiment.\n", "response": 0, "trial_type": "html-button-response", "trial_index": 54, "time_elapsed": 4656760, "internal_node_id": "0.0-5.0"}}, {"uniqueid": "w71836683:a61004108", "current_trial": 55, "dateTime": 1691489990783, "trialdata": {"success": true, "trial_type": "fullscreen", "trial_index": 55, "time_elapsed": 4657862, "internal_node_id": "0.0-6.0"}}], "questiondata": {"params": {"CODE": "C6DMOQA6", "MIN_TIME": 14, "inspectCost": 1, "startTime": "Tue Aug 08 2023 11:02:10 GMT+0200 (South Africa Standard Time)", "bonusRate": 0.002, "variance": "1_2_4_8_44", "branching": "31123"}}, "eventdata": [{"eventtype": "initialized", "value": null, "timestamp": 1691485329838, "interval": 0}, {"eventtype": "window_resize", "value": [1366, 670], "timestamp": 1691485329838, "interval": 0}, {"eventtype": "window_resize", "value": [1366, 670], "timestamp": 1691485330346, "interval": 508}, {"eventtype": "window_resize", "value": [1366, 768], "timestamp": 1691485339282, "interval": 8936}], "useragent": "Mozilla/5.0 (Windows NT 10.0; Win64; x64) AppleWebKit/537.36 (KHTML, like Gecko) Chrome/115.0.0.0 Safari/537.36", "mode": "live", "id": "w71836683:a61004108", "status": "user data saved", "Beginhit": "2023-08-08 09:02:05.578047", "Beginexp": "2023-08-08 09:02:20.511927", "Endhit": "2023-08-08 10:19:59.60113", "psiturkStatus": 3, "browser": "<redacted>", "platform": "windows", "language": "en-US", "excludeReason": "exceededTime"}