{"condition": 0, "counterbalance": 0, "assignmentId": "a89523089", "workerId": "w94367310", "hitId": "h53903529", "currenttrial": 55, "bonus": 0, "data": [{"uniqueid": "w94367310:a89523089", "current_trial": 0, "dateTime": 1691142133967, "trialdata": {"success": true, "trial_type": "fullscreen", "trial_index": 0, "time_elapsed": 7827, "internal_node_id": "0.0-0.0"}}, {"uniqueid": "w94367310:a89523089", "current_trial": 1, "dateTime": 1691142165285, "trialdata": {"view_history": [{"page_index": 0, "viewing_time": 31314}], "rt": 31314, "trial_id": "exp_instructions_control", "trial_type": "instructions", "trial_index": 1, "time_elapsed": 39145, "internal_node_id": "0.0-1.0"}}, {"uniqueid": "w94367310:a89523089", "current_trial": 2, "dateTime": 1691142168592, "trialdata": {"success": true, "trial_type": "fullscreen", "trial_index": 2, "time_elapsed": 42452, "internal_node_id": "0.0-2.0-0.0"}}, {"uniqueid": "w94367310:a89523089", "current_trial": 3, "dateTime": 1691142378414, "trialdata": {"view_history": [{"page_index": 0, "viewing_time": 84618}, {"page_index": 1, "viewing_time": 59721}, {"page_index": 2, "viewing_time": 19200}, {"page_index": 3, "viewing_time": 46280}], "rt": 209819, "trial_id": "mouselab_instructions_1_control", "trial_type": "instructions", "trial_index": 3, "time_elapsed": 252274, "internal_node_id": "0.0-2.0-1.0"}}, {"uniqueid": "w94367310:a89523089", "current_trial": 4, "dateTime": 1691142441325, "trialdata": {"revealed_states": [], "clicked_states": ["1", "10", "23", "7", "24", "25", "12", "14", "26", "27", "30", "32", "13", "19", "21", "20", "33", "2", "8", "11", "9", "5"], "num_clicks_accrued": [0, 0, 0, 0, 0, 0, 0, 0, 0, 0, 0, 0, 0], "stateRewards": ["", -10, 10, -10, -10, -10, 10, 10, -10, -10, 10, -10, -10, 10, 10, 10, 10, 10, 10, 10, 10, 10, -10, 10, -10, 10, -10, -10, 10, 10, -10, -10, 10, -10], "withholdReward": false, "trial_id": "practice_1", "block": "test", "trialIndex": 0, "score": 2.5, "costs": -11, "simulationMode": [null, null, null, null, null], "rewards": [10, -10, 10, -10, 10], "path": ["0", "0", "23", "24", "25", "30", "32"], "rt": [50333, 348, 313, 158, 186], "actions": ["left", "left", "left", "down", "down"], "actionTimes": [53609, 54474, 55312, 55984, 56696], "queries": {"click": {"state": {"target": ["1", "10", "23", "7", "24", "25", "12", "14", "26", "27", "30", "32", "13", "19", "21", "20", "33", "2", "8", "11", "9", "5"], "time": [5919, 6992, 8437, 11209, 12846, 14462, 16670, 18182, 21778, 23447, 24736, 26310, 28782, 33565, 34840, 36478, 41870, 43286, 44536, 45944, 47117, 48221]}, "edge": {"target": [], "time": []}}, "mouseover": {"state": {"target": ["1", "1", "10", "2", "7", "12", "0", "23", "0", "12", "2", "7", "24", "25", "23", "0", "12", "13", "14", "15", "18", "1", "28", "26", "27", "27", "25", "30", "32", "31", "12", "13", "12", "12", "22", "18", "13", "19", "21", "22", "20", "14", "13", "12", "0", "23", "24", "25", "33", "2", "3", "8", "11", "9", "5", "4", "7", "1", "23"], "time": [5105, 5589, 6704, 7396, 7551, 7767, 7961, 8087, 8780, 9064, 10555, 10903, 12489, 14104, 14925, 15552, 15670, 17224, 17838, 19754, 20143, 20655, 20988, 21527, 22217, 22886, 23969, 24368, 26027, 26784, 28136, 28235, 29482, 30205, 31938, 32587, 32970, 33271, 34098, 35256, 36337, 37669, 38187, 39369, 40368, 40534, 40651, 41187, 41536, 42907, 43664, 44210, 45769, 46856, 47591, 48416, 48473, 49370, 51086]}, "edge": {"target": [], "time": []}}, "mouseout": {"state": {"target": ["0", "1", "1", "10", "2", "7", "12", "0", "23", "0", "12", "1", "2", "7", "24", "25", "24", "23", "0", "12", "13", "14", "15", "18", "1", "28", "26", "27", "26", "27", "26", "25", "30", "30", "32", "31", "12", "13", "13", "12", "12", "22", "13", "18", "13", "19", "21", "22", "19", "20", "20", "19", "14", "13", "12", "0", "23", "24", "25", "33", "2", "3", "8", "11", "9", "5", "4", "7", "1", "23"], "time": [5022, 5188, 6125, 7313, 7505, 7681, 7941, 8029, 8727, 8930, 9905, 9954, 10855, 11541, 13531, 14689, 14794, 15520, 15622, 17157, 17673, 18565, 20121, 20168, 20675, 21419, 21985, 22571, 22847, 23736, 23852, 24136, 24882, 25392, 26398, 27586, 28202, 29103, 29402, 29971, 31471, 32220, 32337, 32855, 33001, 33851, 35045, 35829, 36137, 36602, 36910, 37208, 38069, 39287, 40220, 40470, 40618, 40785, 41235, 42113, 43460, 44103, 45054, 46208, 47454, 48399, 48456, 48512, 50201, 51635]}, "edge": {"target": [], "time": []}}}, "displayed_time": "57.22", "trialTime": 61653, "trial_type": "mouselab-mdp", "trial_index": 4, "time_elapsed": 315185, "internal_node_id": "0.0-2.0-2.0-0.0"}}, {"uniqueid": "w94367310:a89523089", "current_trial": 5, "dateTime": 1691142473414, "trialdata": {"revealed_states": [], "clicked_states": ["1", "3", "7", "13", "19", "24", "25"], "num_clicks_accrued": [0, 0, 0, 0, 0, 0, 0, 0, 0, 0, 0, 0, 0], "stateRewards": ["", -10, -10, -10, -10, 10, 10, 10, 10, -10, -10, -10, 10, -10, 10, -10, -10, 10, -10, 10, 10, -10, 10, -10, 10, 10, -10, -10, -10, -10, -10, 10, -10, -10], "withholdReward": false, "trial_id": "practice_2", "block": "test", "trialIndex": 1, "score": -10, "costs": -3.5, "simulationMode": [null, null, null, null, null], "rewards": [-10, 10, 10, -10, -10], "path": ["0", "0", "23", "24", "25", "30", "32"], "rt": [13594, 617, 117, 4111, 457], "actions": ["left", "left", "left", "down", "down"], "actionTimes": [16492, 17643, 18285, 22905, 23881], "queries": {"click": {"state": {"target": ["1", "3", "7", "13", "19", "24", "25"], "time": [4443, 6313, 7701, 9569, 10833, 12051, 13841]}, "edge": {"target": [], "time": []}}, "mouseover": {"state": {"target": ["12", "1", "1", "2", "10", "2", "3", "2", "7", "12", "13", "14", "19", "22", "23", "24", "28", "26", "25", "26"], "time": [3612, 4009, 4311, 4709, 5262, 5778, 6010, 6820, 7492, 8554, 9412, 9884, 10626, 11312, 11451, 11898, 12437, 13212, 13596, 14163]}, "edge": {"target": [], "time": []}}, "mouseout": {"state": {"target": ["23", "12", "1", "1", "2", "10", "2", "3", "3", "2", "7", "12", "13", "14", "19", "22", "23", "24", "28", "26", "25", "26", "30", "32"], "time": [1144, 3978, 4094, 4522, 5142, 5561, 5909, 6439, 6603, 7462, 7918, 9309, 9847, 10402, 11239, 11332, 11493, 12368, 12926, 13428, 13949, 20094, 20925, 21663]}, "edge": {"target": [], "time": []}}}, "displayed_time": "24.39", "trialTime": 31819, "trial_type": "mouselab-mdp", "trial_index": 5, "time_elapsed": 347274, "internal_node_id": "0.0-2.0-2.0-1.0"}}, {"uniqueid": "w94367310:a89523089", "current_trial": 6, "dateTime": 1691142520766, "trialdata": {"view_history": [{"page_index": 0, "viewing_time": 36101}, {"page_index": 1, "viewing_time": 11249}], "rt": 47350, "trial_id": "mouselab_instructions_2_control", "trial_type": "instructions", "trial_index": 6, "time_elapsed": 394626, "internal_node_id": "0.0-2.0-3.0"}}, {"uniqueid": "w94367310:a89523089", "current_trial": 7, "dateTime": 1691142577760, "trialdata": {"rt": 56988, "response": {"Q0": "The cost for clicking on nodes may vary between nodes.", "Q1": "The better I perform the higher my bonus will be.", "Q2": "No, the amount of cash at each node of the web may be different each time.", "Q3": "To get the highest total score.", "Q4": "Only before moving the spider.", "Q5": "3 seconds"}, "question_order": [0, 1, 2, 3, 4, 5], "correct": {"Q0": "The cost for clicking on nodes may vary between nodes.", "Q1": "The better I perform the higher my bonus will be.", "Q2": "No, the amount of cash at each node of the web may be different each time.", "Q3": "To get the highest total score.", "Q4": "Only before moving the spider.", "Q5": "3 seconds"}, "trial_id": "mouselab_quiz_control", "trial_type": "survey-multi-choice", "trial_index": 7, "time_elapsed": 451620, "internal_node_id": "0.0-2.0-4.0"}}, {"uniqueid": "w94367310:a89523089", "current_trial": 8, "dateTime": 1691142583953, "trialdata": {"rt": 6190, "stimulus": "\n<h1> Get ready to start the game! </h1>\n\nThank you for reading the instructions. Get ready start with the 40 rounds of this game.\n<br><br>\nIf you need to take a break, feel free to take one after the end of a round, before continuing to the next one.\n<br><br>\nRemember, the more money the spider gets, the bigger your bonus will be!\n<br><br>\n<div style='text-align: center;'>Press <code>space</code> to begin.</div>\n\n<br><br>\n(If, at any point, the <code>space</code> key does not take you to the next page, click once on the text and try again.)", "response": " ", "trial_id": "mdp_ready", "trial_type": "html-keyboard-response", "trial_index": 8, "time_elapsed": 457813, "internal_node_id": "0.0-4.0-0.0"}}, {"uniqueid": "w94367310:a89523089", "current_trial": 9, "dateTime": 1691142611793, "trialdata": {"revealed_states": [], "clicked_states": ["1", "3", "24", "25", "13", "14"], "num_clicks_accrued": [0, 0, 0, 0, 0, 0, 0, 0, 0, 0, 0, 0, 0], "stateRewards": ["", -2, 2, -5, 1, 42, -63, -58, -6, 2, 16, 81, -2, 4, 7, -10, 33, 3, -33, -2, -52, -84, -27, 2, -3, -3, 15, -74, -14, -5, -5, -84, 79, -31], "withholdReward": false, "trial_id": "mdp_trial_1", "block": "test", "trialIndex": 2, "score": -85.4, "costs": -8.4, "simulationMode": [null, null, null, null, null], "rewards": [-2, 4, 7, -2, -84], "path": ["0", "0", "12", "13", "14", "19", "21"], "rt": [15999, 226, 191, 592, 162], "actions": ["right", "right", "right", "down", "down"], "actionTimes": [19083, 19828, 20547, 21657, 22337], "queries": {"click": {"state": {"target": ["1", "3", "24", "25", "13", "14"], "time": [5016, 7177, 9831, 11641, 13410, 15943]}, "edge": {"target": [], "time": []}}, "mouseover": {"state": {"target": ["1", "1", "2", "3", "10", "28", "25", "24", "25", "23", "0", "12", "13", "12", "14", "19", "19"], "time": [4243, 4744, 5379, 6607, 7918, 8390, 8706, 9329, 10398, 12123, 12183, 12330, 12639, 13663, 15140, 16996, 18490]}, "edge": {"target": [], "time": []}}, "mouseout": {"state": {"target": ["3", "3", "2", "0", "0", "1", "1", "2", "3", "10", "28", "25", "24", "25", "24", "23", "0", "12", "13", "12", "13", "14", "19"], "time": [1893, 2026, 2057, 2326, 3877, 4526, 5235, 6509, 7674, 8325, 8476, 9308, 10287, 11924, 12082, 12162, 12249, 12450, 13612, 14309, 14597, 16590, 17949]}, "edge": {"target": [], "time": []}}}, "displayed_time": "22.86", "trialTime": 27588, "trial_type": "mouselab-mdp", "trial_index": 9, "time_elapsed": 485653, "internal_node_id": "0.0-4.0-1.0-0.0"}}, {"uniqueid": "w94367310:a89523089", "current_trial": 10, "dateTime": 1691142630790, "trialdata": {"revealed_states": [], "clicked_states": [], "num_clicks_accrued": [0, 0, 0, 0, 0, 0, 0, 0, 0, 0, 0, 0, 0], "stateRewards": ["", 1, 1, -5, 8, -6, 45, 16, -6, -7, -22, -38, -1, -4, 8, -11, -16, 21, -45, -15, -59, -32, 42, -1, 3, 6, 11, -7, 34, -27, -8, 85, 43, -9], "withholdReward": false, "trial_id": "mdp_trial_2", "block": "test", "trialIndex": 3, "score": 50, "costs": 0, "simulationMode": [null, null, null, null, null], "rewards": [1, 1, -5, 8, 45], "path": ["0", "0", "1", "2", "3", "4", "6"], "rt": [1498, 373, 5334, 524, 705], "actions": ["up", "up", "up", "right", "right"], "actionTimes": [4415, 5306, 11154, 12197, 13416], "queries": {"click": {"state": {"target": [], "time": []}, "edge": {"target": [], "time": []}}, "mouseover": {"state": {"target": [], "time": []}, "edge": {"target": [], "time": []}}, "mouseout": {"state": {"target": ["19", "22", "0", "1", "2"], "time": [1746, 1896, 9963, 10096, 10178]}, "edge": {"target": [], "time": []}}}, "displayed_time": "17.22", "trialTime": 18740, "trial_type": "mouselab-mdp", "trial_index": 10, "time_elapsed": 504650, "internal_node_id": "0.0-4.0-1.0-1.0"}}, {"uniqueid": "w94367310:a89523089", "current_trial": 11, "dateTime": 1691142650517, "trialdata": {"revealed_states": [], "clicked_states": [], "num_clicks_accrued": [0, 0, 0, 0, 0, 0, 0, 0, 0, 0, 0, 0, 0], "stateRewards": ["", -2, 3, -1, -9, 44, 48, -37, -3, 71, -39, 87, -1, 3, -4, 4, -21, 59, -15, -8, -1, 28, -38, 2, 4, 4, 8, -85, -72, -63, 14, 58, 63, -46], "withholdReward": false, "trial_id": "mdp_trial_3", "block": "test", "trialIndex": 4, "score": -67, "costs": 0, "simulationMode": [null, null, null, null, null], "rewards": [2, 4, 4, 8, -85], "path": ["0", "0", "23", "24", "25", "26", "27"], "rt": [10398, 178, 202, 615, 149], "actions": ["left", "left", "left", "up", "up"], "actionTimes": [12798, 13494, 14233, 15368, 16033], "queries": {"click": {"state": {"target": [], "time": []}, "edge": {"target": [], "time": []}}, "mouseover": {"state": {"target": ["23", "24", "23", "2", "24", "23", "23", "0"], "time": [3984, 4348, 4946, 5098, 5613, 7015, 7748, 10132]}, "edge": {"target": [], "time": []}}, "mouseout": {"state": {"target": ["2", "1", "0", "23", "24", "23", "2", "24", "23", "23"], "time": [1698, 1798, 3964, 4081, 4915, 4966, 5298, 6898, 7414, 9998]}, "edge": {"target": [], "time": []}}}, "displayed_time": "16.81", "trialTime": 19469, "trial_type": "mouselab-mdp", "trial_index": 11, "time_elapsed": 524376, "internal_node_id": "0.0-4.0-1.0-2.0"}}, {"uniqueid": "w94367310:a89523089", "current_trial": 12, "dateTime": 1691142669154, "trialdata": {"revealed_states": [], "clicked_states": ["13", "16"], "num_clicks_accrued": [0, 0, 0, 0, 0, 0, 0, 0, 0, 0, 0, 0, 0], "stateRewards": ["", -1, 3, 2, 9, 41, 4, -46, -12, -54, -87, -25, 2, 3, -1, 11, -77, 12, -33, -9, -32, 35, 72, 1, 3, -7, 4, 37, 65, -73, 6, 77, -43, 8], "withholdReward": false, "trial_id": "mdp_trial_4", "block": "test", "trialIndex": 5, "score": 27.2, "costs": -2.8, "simulationMode": [null, null, null, null, null], "rewards": [2, 3, -1, -9, 35], "path": ["0", "0", "12", "13", "14", "19", "21"], "rt": [4582, 184, 210, 1103, 276], "actions": ["right", "right", "right", "down", "down"], "actionTimes": [7042, 7744, 8475, 10094, 10903], "queries": {"click": {"state": {"target": ["13", "16"], "time": [3478, 5316]}, "edge": {"target": [], "time": []}}, "mouseover": {"state": {"target": ["12", "13", "14", "15", "16", "15"], "time": [2893, 3209, 3792, 4345, 5107, 5598]}, "edge": {"target": [], "time": []}}, "mouseout": {"state": {"target": ["0", "12", "13", "14", "15", "16", "15"], "time": [575, 2941, 3680, 4152, 5056, 5562, 5802]}, "edge": {"target": [], "time": []}}}, "displayed_time": "16.82", "trialTime": 18369, "trial_type": "mouselab-mdp", "trial_index": 12, "time_elapsed": 543014, "internal_node_id": "0.0-4.0-1.0-3.0"}}, {"uniqueid": "w94367310:a89523089", "current_trial": 13, "dateTime": 1691142687723, "trialdata": {"revealed_states": [], "clicked_states": ["1", "3", "4"], "num_clicks_accrued": [0, 0, 0, 0, 0, 0, 0, 0, 0, 0, 0, 0, 0], "stateRewards": ["", 2, 3, -3, 12, -43, 81, -82, -15, 58, -7, -75, -1, -1, 3, -5, 50, -25, -8, 4, 66, 65, -66, 2, -4, 2, -1, -10, 10, 37, 11, 88, -37, 8], "withholdReward": false, "trial_id": "mdp_trial_5", "block": "test", "trialIndex": 6, "score": -33.2, "costs": -4.199999999999999, "simulationMode": [null, null, null, null, null], "rewards": [2, 3, -3, 12, -43], "path": ["0", "0", "1", "2", "3", "4", "5"], "rt": [7440, 353, 266, 227, 833], "actions": ["up", "up", "up", "right", "up"], "actionTimes": [9400, 10266, 11044, 11820, 13163], "queries": {"click": {"state": {"target": ["1", "3", "4"], "time": [3156, 4773, 7054]}, "edge": {"target": [], "time": []}}, "mouseover": {"state": {"target": ["1", "2", "3", "4", "6", "4", "6"], "time": [2912, 3594, 4571, 5082, 5983, 6896, 7501]}, "edge": {"target": [], "time": []}}, "mouseout": {"state": {"target": ["15", "0", "1", "2", "3", "4", "6", "4", "6"], "time": [628, 2512, 3358, 4054, 4983, 5688, 6578, 7331, 8013]}, "edge": {"target": [], "time": []}}}, "displayed_time": "16.77", "trialTime": 18275, "trial_type": "mouselab-mdp", "trial_index": 13, "time_elapsed": 561583, "internal_node_id": "0.0-4.0-1.0-4.0"}}, {"uniqueid": "w94367310:a89523089", "current_trial": 14, "dateTime": 1691142723287, "trialdata": {"revealed_states": [], "clicked_states": ["23", "25", "26", "30", "32", "33"], "num_clicks_accrued": [0, 0, 0, 0, 0, 0, 0, 0, 0, 0, 0, 0, 0], "stateRewards": ["", -1, 2, -2, 13, -56, -28, 10, 14, 53, -80, -29, 1, -3, -3, -14, 14, 9, -40, -9, 18, 18, 48, 1, 1, 1, -9, 64, -39, -9, 7, -52, -78, 7], "withholdReward": false, "trial_id": "mdp_trial_6", "block": "test", "trialIndex": 7, "score": -50.4, "costs": -8.4, "simulationMode": [null, null, null, null, null], "rewards": [1, 1, 1, 7, -52], "path": ["0", "0", "23", "24", "25", "30", "31"], "rt": [19224, 231, 322, 372, 849], "actions": ["left", "left", "left", "down", "right"], "actionTimes": [25709, 26453, 27320, 28204, 29564], "queries": {"click": {"state": {"target": ["23", "25", "26", "30", "32", "33"], "time": [7782, 10045, 12518, 16948, 18789, 21199]}, "edge": {"target": [], "time": []}}, "mouseover": {"state": {"target": ["23", "24", "24", "25", "26", "26", "27", "25", "30", "32", "33"], "time": [7251, 8113, 9171, 9485, 11044, 12167, 13463, 15365, 16168, 17985, 19647]}, "edge": {"target": [], "time": []}}, "mouseout": {"state": {"target": ["7", "23", "24", "24", "25", "26", "25", "25", "26", "27", "26", "25", "30", "32", "33"], "time": [5783, 7961, 8961, 9340, 10521, 11582, 11801, 12000, 13210, 14332, 14966, 15666, 17516, 18832, 22391]}, "edge": {"target": [], "time": []}}}, "displayed_time": "30.10", "trialTime": 35295, "trial_type": "mouselab-mdp", "trial_index": 14, "time_elapsed": 597146, "internal_node_id": "0.0-4.0-1.0-5.0"}}, {"uniqueid": "w94367310:a89523089", "current_trial": 15, "dateTime": 1691142747660, "trialdata": {"revealed_states": [], "clicked_states": ["12", "1", "23", "2", "3", "8", "11"], "num_clicks_accrued": [0, 0, 0, 0, 0, 0, 0, 0, 0, 0, 0, 0, 0], "stateRewards": ["", 1, -1, -7, -7, -22, 15, -13, 13, 26, -32, 38, -1, 1, -7, -4, 16, -62, 86, 12, -54, 56, 64, -2, -1, 6, 14, -57, 37, 62, -6, -25, 50, -70], "withholdReward": false, "trial_id": "mdp_trial_7", "block": "test", "trialIndex": 8, "score": 34.2, "costs": -9.8, "simulationMode": [null, null, null, null, null], "rewards": [1, -1, -7, 13, 38], "path": ["0", "0", "1", "2", "3", "8", "11"], "rt": [16375, 321, 201, 771, 376], "actions": ["up", "up", "up", "left", "left"], "actionTimes": [18534, 19372, 20085, 21377, 22260], "queries": {"click": {"state": {"target": ["12", "1", "23", "2", "3", "8", "11"], "time": [4474, 6147, 8162, 9771, 11849, 13498, 15061]}, "edge": {"target": [], "time": []}}, "mouseover": {"state": {"target": ["12", "13", "1", "2", "23", "10", "3", "2", "3", "8", "11"], "time": [4119, 5046, 5896, 6760, 7276, 8791, 9221, 9553, 10391, 12542, 14783]}, "edge": {"target": [], "time": []}}, "mouseout": {"state": {"target": ["30", "0", "12", "13", "1", "2", "23", "10", "3", "2", "2", "3", "8", "11", "11"], "time": [1052, 4004, 4862, 5521, 6490, 6911, 8592, 9137, 9425, 9917, 10133, 12416, 14381, 15165, 17002]}, "edge": {"target": [], "time": []}}}, "displayed_time": "22.77", "trialTime": 24089, "trial_type": "mouselab-mdp", "trial_index": 15, "time_elapsed": 621520, "internal_node_id": "0.0-4.0-1.0-6.0"}}, {"uniqueid": "w94367310:a89523089", "current_trial": 16, "dateTime": 1691142773111, "trialdata": {"revealed_states": [], "clicked_states": [], "num_clicks_accrued": [0, 0, 0, 0, 0, 0, 0, 0, 0, 0, 0, 0, 0], "stateRewards": ["", -1, -3, 4, -10, -5, 79, -87, -2, 53, 29, -20, -2, -1, -5, 10, 27, 86, 46, -16, -29, 40, 3, 2, 4, -1, -6, 37, 79, -29, 7, 86, -62, 29], "withholdReward": false, "trial_id": "mdp_trial_8", "block": "test", "trialIndex": 9, "score": -21, "costs": 0, "simulationMode": [null, null, null, null, null], "rewards": [-2, -1, -5, -16, 3], "path": ["0", "0", "12", "13", "14", "19", "22"], "rt": [10892, 404, 437, 865, 569], "actions": ["right", "right", "right", "down", "left"], "actionTimes": [16404, 17331, 18287, 19662, 20752], "queries": {"click": {"state": {"target": [], "time": []}, "edge": {"target": [], "time": []}}, "mouseover": {"state": {"target": ["0", "0", "23", "0", "12", "12", "0"], "time": [6217, 7217, 7366, 7748, 7849, 9367, 11699]}, "edge": {"target": [], "time": []}}, "mouseout": {"state": {"target": ["28", "0", "0", "23", "0", "12", "12"], "time": [4766, 6851, 7248, 7719, 7798, 9099, 11401]}, "edge": {"target": [], "time": []}}}, "displayed_time": "21.27", "trialTime": 25155, "trial_type": "mouselab-mdp", "trial_index": 16, "time_elapsed": 646970, "internal_node_id": "0.0-4.0-1.0-7.0"}}, {"uniqueid": "w94367310:a89523089", "current_trial": 17, "dateTime": 1691142792694, "trialdata": {"revealed_states": [], "clicked_states": ["23", "26", "27", "25"], "num_clicks_accrued": [0, 0, 0, 0, 0, 0, 0, 0, 0, 0, 0, 0, 0], "stateRewards": ["", 2, -4, 7, 3, 23, -42, 4, 7, -81, -33, 7, -2, -4, 5, -1, 50, -57, -14, -13, -14, 44, 55, -2, -2, 5, -2, 33, 1, 57, -13, -7, 58, 87], "withholdReward": false, "trial_id": "mdp_trial_9", "block": "test", "trialIndex": 10, "score": 26.4, "costs": -5.6, "simulationMode": [null, null, null, null, null], "rewards": [-2, -2, 5, -2, 33], "path": ["0", "0", "23", "24", "25", "26", "27"], "rt": [10750, 229, 176, 702, 303], "actions": ["left", "left", "left", "up", "up"], "actionTimes": [13860, 14619, 15337, 16565, 17389], "queries": {"click": {"state": {"target": ["23", "26", "27", "25"], "time": [4165, 6214, 8199, 9740]}, "edge": {"target": [], "time": []}}, "mouseover": {"state": {"target": ["23", "24", "25", "26", "28", "27", "25"], "time": [3931, 4370, 5329, 6065, 6484, 7781, 9017]}, "edge": {"target": [], "time": []}}, "mouseout": {"state": {"target": ["0", "23", "24", "25", "26", "28", "26", "27", "26", "25"], "time": [3448, 4325, 4986, 5882, 6439, 7034, 7524, 8501, 8824, 10744]}, "edge": {"target": [], "time": []}}}, "displayed_time": "17.90", "trialTime": 19269, "trial_type": "mouselab-mdp", "trial_index": 17, "time_elapsed": 666554, "internal_node_id": "0.0-4.0-1.0-8.0"}}, {"uniqueid": "w94367310:a89523089", "current_trial": 18, "dateTime": 1691142813905, "trialdata": {"revealed_states": [], "clicked_states": ["1", "3", "2", "6"], "num_clicks_accrued": [0, 0, 0, 0, 0, 0, 0, 0, 0, 0, 0, 0, 0], "stateRewards": ["", -1, 2, 7, 8, 75, 67, -11, 6, 52, -17, 38, -1, 4, -8, 14, 74, -37, -17, -12, 52, 55, 71, -2, -1, -5, 2, 21, 6, -88, -14, 64, -61, -47], "withholdReward": false, "trial_id": "mdp_trial_10", "block": "test", "trialIndex": 11, "score": 77.4, "costs": -5.6, "simulationMode": [null, null, null, null, null], "rewards": [-1, 2, 7, 8, 67], "path": ["0", "0", "1", "2", "3", "4", "6"], "rt": [13036, 338, 249, 331, 400], "actions": ["up", "up", "up", "right", "right"], "actionTimes": [15649, 16497, 17253, 18105, 19022], "queries": {"click": {"state": {"target": ["1", "3", "2", "6"], "time": [3896, 5545, 7785, 9936]}, "edge": {"target": [], "time": []}}, "mouseover": {"state": {"target": ["1", "2", "3", "4", "2", "7", "4", "4", "6", "4", "5", "4"], "time": [3722, 4407, 5348, 6372, 7154, 8078, 9056, 9422, 9788, 10688, 10990, 11873]}, "edge": {"target": [], "time": []}}, "mouseout": {"state": {"target": ["25", "24", "23", "0", "1", "2", "3", "4", "2", "7", "4", "4", "6", "6", "4", "5", "4"], "time": [788, 989, 1088, 3437, 4190, 5007, 6054, 7050, 8010, 8971, 9258, 9573, 10070, 10493, 10880, 11789, 12188]}, "edge": {"target": [], "time": []}}}, "displayed_time": "19.54", "trialTime": 20891, "trial_type": "mouselab-mdp", "trial_index": 18, "time_elapsed": 687765, "internal_node_id": "0.0-4.0-1.0-9.0"}}, {"uniqueid": "w94367310:a89523089", "current_trial": 19, "dateTime": 1691142836642, "trialdata": {"revealed_states": [], "clicked_states": ["1", "8"], "num_clicks_accrued": [0, 0, 0, 0, 0, 0, 0, 0, 0, 0, 0, 0, 0], "stateRewards": ["", 1, 1, 4, 11, 83, -66, 18, -16, -23, 5, 25, 1, -3, 1, -12, 18, 24, -86, -11, -64, 36, 40, 2, 1, -6, 13, 55, 29, 72, -2, 81, -72, -41], "withholdReward": false, "trial_id": "mdp_trial_11", "block": "test", "trialIndex": 12, "score": 73.2, "costs": -2.8, "simulationMode": [null, null, null, null, null], "rewards": [2, 1, -6, -2, 81], "path": ["0", "0", "23", "24", "25", "30", "31"], "rt": [12615, 321, 493, 315, 575], "actions": ["left", "left", "left", "down", "right"], "actionTimes": [16898, 17734, 18734, 19557, 20652], "queries": {"click": {"state": {"target": ["1", "8"], "time": [5758, 8108]}, "edge": {"target": [], "time": []}}, "mouseover": {"state": {"target": ["1", "2", "2", "3", "8", "11", "9", "3", "4"], "time": [5228, 6079, 6745, 6942, 7678, 8883, 10478, 13030, 13161]}, "edge": {"target": [], "time": []}}, "mouseout": {"state": {"target": ["4", "7", "12", "1", "2", "2", "3", "8", "11", "9", "3"], "time": [1185, 1411, 2510, 5951, 6594, 6811, 7513, 8583, 10244, 12913, 13094]}, "edge": {"target": [], "time": []}}}, "displayed_time": "21.17", "trialTime": 22401, "trial_type": "mouselab-mdp", "trial_index": 19, "time_elapsed": 710501, "internal_node_id": "0.0-4.0-1.0-10.0"}}, {"uniqueid": "w94367310:a89523089", "current_trial": 20, "dateTime": 1691142855971, "trialdata": {"revealed_states": [], "clicked_states": ["12", "14", "21", "19"], "num_clicks_accrued": [0, 0, 0, 0, 0, 0, 0, 0, 0, 0, 0, 0, 0], "stateRewards": ["", 2, -1, 4, -9, -43, 7, 54, -13, 38, -40, -83, -1, 2, -8, -10, 34, -33, 11, -14, -79, 65, 26, 1, 2, 4, 10, 21, 1, 86, 4, -53, 28, -29], "withholdReward": false, "trial_id": "mdp_trial_12", "block": "test", "trialIndex": 13, "score": 38.4, "costs": -5.6, "simulationMode": [null, null, null, null, null], "rewards": [-1, 2, -8, -14, 65], "path": ["0", "0", "12", "13", "14", "19", "21"], "rt": [10868, 306, 228, 427, 326], "actions": ["right", "right", "right", "down", "down"], "actionTimes": [13621, 14441, 15220, 16152, 16992], "queries": {"click": {"state": {"target": ["12", "14", "21", "19"], "time": [4109, 5708, 7951, 10106]}, "edge": {"target": [], "time": []}}, "mouseover": {"state": {"target": ["0", "12", "13", "14", "19", "21", "19", "22"], "time": [2771, 3811, 4584, 5403, 6313, 7743, 9141, 11202]}, "edge": {"target": [], "time": []}}, "mouseout": {"state": {"target": ["4", "7", "0", "12", "13", "14", "19", "21", "21", "19", "22"], "time": [1756, 2059, 3325, 4439, 5085, 6082, 7207, 8095, 8829, 10880, 11498]}, "edge": {"target": [], "time": []}}}, "displayed_time": "17.51", "trialTime": 18981, "trial_type": "mouselab-mdp", "trial_index": 20, "time_elapsed": 729831, "internal_node_id": "0.0-4.0-1.0-11.0"}}, {"uniqueid": "w94367310:a89523089", "current_trial": 21, "dateTime": 1691142893047, "trialdata": {"revealed_states": [], "clicked_states": ["27", "16", "32", "5", "2", "10", "7", "11"], "num_clicks_accrued": [0, 0, 0, 0, 0, 0, 0, 0, 0, 0, 0, 0, 0], "stateRewards": ["", -1, 1, -5, -6, -78, 47, -13, 12, 48, -88, 20, 2, -3, -2, 13, -20, 37, -57, 14, -38, 30, 31, -2, -2, 8, 2, -23, 78, 28, 12, -74, -88, 8], "withholdReward": false, "trial_id": "mdp_trial_13", "block": "test", "trialIndex": 14, "score": 15.799999999999997, "costs": -11.200000000000001, "simulationMode": [null, null, null, null, null], "rewards": [-1, 1, -5, 12, 20], "path": ["0", "0", "1", "2", "3", "8", "11"], "rt": [25946, 479, 285, 690, 284], "actions": ["up", "up", "up", "left", "left"], "actionTimes": [30316, 31309, 32107, 33323, 34122], "queries": {"click": {"state": {"target": ["27", "16", "32", "5", "2", "10", "7", "11"], "time": [5473, 8241, 10513, 12425, 15448, 18657, 21648, 23487]}, "edge": {"target": [], "time": []}}, "mouseover": {"state": {"target": ["27", "29", "26", "17", "16", "19", "21", "32", "30", "33", "25", "28", "10", "5", "4", "6", "4", "3", "8", "11", "8", "3", "4", "4", "2", "10", "7", "7", "3", "8", "11", "8", "3", "4", "6", "18"], "time": [5173, 6333, 6806, 7488, 8039, 8968, 9143, 10206, 11046, 11371, 11438, 11503, 11545, 11960, 12662, 12717, 13124, 13190, 13298, 13385, 14408, 14451, 14587, 14905, 15241, 15721, 21086, 21309, 22610, 22738, 22909, 24188, 24229, 24308, 24620, 25337]}, "edge": {"target": [], "time": []}}, "mouseout": {"state": {"target": ["0", "27", "29", "26", "17", "16", "19", "21", "32", "30", "33", "25", "28", "10", "5", "4", "6", "4", "3", "8", "11", "8", "3", "4", "4", "2", "10", "2", "7", "7", "3", "8", "11", "8", "3", "4", "6", "18"], "time": [4673, 5800, 6787, 6829, 7823, 8648, 9034, 9633, 10981, 11221, 11390, 11458, 11522, 11568, 12610, 12679, 13123, 13170, 13235, 13361, 14406, 14426, 14538, 14671, 14937, 15677, 19415, 21054, 21136, 21853, 22630, 22844, 24148, 24206, 24290, 24388, 25053, 25369]}, "edge": {"target": [], "time": []}}}, "displayed_time": "34.65", "trialTime": 36754, "trial_type": "mouselab-mdp", "trial_index": 21, "time_elapsed": 766907, "internal_node_id": "0.0-4.0-1.0-12.0"}}, {"uniqueid": "w94367310:a89523089", "current_trial": 22, "dateTime": 1691142930069, "trialdata": {"revealed_states": [], "clicked_states": ["12", "19", "14", "23", "25", "33", "31", "1", "3", "5"], "num_clicks_accrued": [0, 0, 0, 0, 0, 0, 0, 0, 0, 0, 0, 0, 0], "stateRewards": ["", 1, 4, -4, 14, 35, 51, 19, -13, 54, 78, -74, -2, -1, -3, 13, -11, -42, -73, -15, -24, -3, -69, 2, -1, 5, 16, -27, 73, 58, 9, -60, 5, -60], "withholdReward": false, "trial_id": "mdp_trial_14", "block": "test", "trialIndex": 15, "score": 36, "costs": -14.000000000000002, "simulationMode": [null, null, null, null, null], "rewards": [1, 4, -4, 14, 35], "path": ["0", "0", "1", "2", "3", "4", "5"], "rt": [27455, 288, 185, 343, 528], "actions": ["up", "up", "up", "right", "up"], "actionTimes": [30645, 31463, 32179, 33042, 34085], "queries": {"click": {"state": {"target": ["12", "19", "14", "23", "25", "33", "31", "1", "3", "5"], "time": [4482, 6362, 8947, 12194, 14665, 16386, 19114, 20796, 22987, 25435]}, "edge": {"target": [], "time": []}}, "mouseover": {"state": {"target": ["12", "13", "14", "19", "22", "14", "13", "22", "13", "12", "0", "23", "23", "24", "24", "25", "30", "33", "30", "31", "23", "1", "2", "3", "4", "5", "4", "4"], "time": [4134, 4956, 5479, 5966, 6723, 8517, 9269, 10308, 10615, 11481, 11535, 11581, 11983, 12714, 13884, 14204, 15156, 15920, 17341, 18867, 19979, 20255, 21504, 22517, 23827, 25067, 26017, 26737]}, "edge": {"target": [], "time": []}}, "mouseout": {"state": {"target": ["7", "4", "0", "12", "13", "14", "19", "22", "14", "13", "22", "13", "12", "0", "23", "23", "24", "24", "25", "30", "33", "30", "31", "23", "1", "2", "3", "3", "4", "5", "4", "4"], "time": [1218, 1266, 4050, 4700, 5415, 5921, 6620, 8366, 9185, 9982, 10548, 11433, 11515, 11557, 11716, 12481, 13631, 14183, 15052, 15811, 17148, 18483, 19683, 20001, 21234, 22217, 23464, 23787, 24798, 25953, 26312, 27283]}, "edge": {"target": [], "time": []}}}, "displayed_time": "34.61", "trialTime": 36705, "trial_type": "mouselab-mdp", "trial_index": 22, "time_elapsed": 803929, "internal_node_id": "0.0-4.0-1.0-13.0"}}, {"uniqueid": "w94367310:a89523089", "current_trial": 23, "dateTime": 1691142973880, "trialdata": {"revealed_states": [], "clicked_states": ["23", "27", "26", "29", "28", "13", "15", "17", "18", "16", "19"], "num_clicks_accrued": [0, 0, 0, 0, 0, 0, 0, 0, 0, 0, 0, 0, 0], "stateRewards": ["", -1, 2, -6, 6, -82, -19, -39, -16, -83, 11, -33, -2, -2, 4, -6, -82, -1, -19, -6, -10, -67, -41, -2, 1, -7, 16, -23, -78, -52, 14, 31, -71, 74], "withholdReward": false, "trial_id": "mdp_trial_15", "block": "test", "trialIndex": 16, "score": -69.4, "costs": -15.400000000000002, "simulationMode": [null, null, null, null, null], "rewards": [-1, 2, -6, -16, -33], "path": ["0", "0", "1", "2", "3", "8", "11"], "rt": [33062, 279, 358, 1323, 417], "actions": ["up", "up", "up", "left", "left"], "actionTimes": [35799, 36601, 37492, 39353, 40280], "queries": {"click": {"state": {"target": ["23", "27", "26", "29", "28", "13", "15", "17", "18", "16", "19"], "time": [5198, 7726, 9512, 12792, 14665, 17557, 20167, 22104, 24127, 25750, 27871]}, "edge": {"target": [], "time": []}}, "mouseover": {"state": {"target": ["0", "23", "24", "25", "26", "27", "29", "26", "1", "12", "12", "24", "29", "28", "24", "23", "0", "12", "13", "13", "14", "15", "17", "17", "18", "16", "15", "14", "19", "21", "12", "3", "2"], "time": [3476, 4864, 5563, 6298, 7162, 7563, 8750, 9222, 10203, 10819, 11847, 12081, 12379, 13496, 16159, 16595, 16693, 16746, 16827, 17343, 18183, 19812, 20922, 21827, 22786, 24741, 26534, 26853, 27186, 28560, 31862, 32578, 33262]}, "edge": {"target": [], "time": []}}, "mouseout": {"state": {"target": ["7", "1", "0", "23", "24", "25", "26", "27", "29", "26", "26", "1", "12", "12", "24", "26", "29", "26", "28", "24", "23", "0", "12", "13", "13", "14", "15", "17", "17", "15", "18", "16", "15", "14", "19", "21", "12", "3", "2"], "time": [1848, 2030, 3613, 5499, 6256, 7113, 7413, 8327, 9201, 9611, 9905, 10547, 11010, 11867, 12128, 12311, 13081, 13212, 15172, 16529, 16662, 16728, 16795, 17163, 17926, 19646, 20459, 21435, 22431, 22669, 24639, 26260, 26685, 27004, 28299, 31611, 31928, 33162, 33463]}, "edge": {"target": [], "time": []}}}, "displayed_time": "40.79", "trialTime": 43481, "trial_type": "mouselab-mdp", "trial_index": 23, "time_elapsed": 847740, "internal_node_id": "0.0-4.0-1.0-14.0"}}, {"uniqueid": "w94367310:a89523089", "current_trial": 24, "dateTime": 1691142996052, "trialdata": {"revealed_states": [], "clicked_states": ["24", "30", "33", "26"], "num_clicks_accrued": [0, 0, 0, 0, 0, 0, 0, 0, 0, 0, 0, 0, 0], "stateRewards": ["", -2, -4, 2, 10, -17, 18, 73, 11, -32, 23, -13, -2, -4, 7, 12, -25, 66, -23, 15, 40, -76, -9, 1, 2, -7, -5, -20, 24, 3, -5, 16, -73, 70], "withholdReward": false, "trial_id": "mdp_trial_16", "block": "test", "trialIndex": 17, "score": 55.4, "costs": -5.6, "simulationMode": [null, null, null, null, null], "rewards": [1, 2, -7, -5, 70], "path": ["0", "0", "23", "24", "25", "30", "33"], "rt": [12519, 136, 191, 365, 376], "actions": ["left", "left", "left", "down", "left"], "actionTimes": [16892, 17552, 18265, 19149, 20054], "queries": {"click": {"state": {"target": ["24", "30", "33", "26"], "time": [5981, 7585, 9821, 11598]}, "edge": {"target": [], "time": []}}, "mouseover": {"state": {"target": ["1", "23", "24", "25", "25", "30", "32", "33", "25", "26"], "time": [5133, 5517, 5633, 6168, 6576, 7179, 8178, 9400, 11065, 11347]}, "edge": {"target": [], "time": []}}, "mouseout": {"state": {"target": ["0", "1", "23", "24", "24", "25", "25", "30", "32", "33", "30", "25"], "time": [4800, 5449, 5565, 6086, 6148, 6352, 7139, 7977, 9215, 10603, 10957, 11174]}, "edge": {"target": [], "time": []}}}, "displayed_time": "20.57", "trialTime": 21843, "trial_type": "mouselab-mdp", "trial_index": 24, "time_elapsed": 869912, "internal_node_id": "0.0-4.0-1.0-15.0"}}, {"uniqueid": "w94367310:a89523089", "current_trial": 25, "dateTime": 1691143019309, "trialdata": {"revealed_states": [], "clicked_states": ["13", "19", "21"], "num_clicks_accrued": [0, 0, 0, 0, 0, 0, 0, 0, 0, 0, 0, 0, 0], "stateRewards": ["", -2, 1, 6, -2, -10, -78, -69, 14, -15, 7, -1, 1, -1, -2, 13, 77, 32, 87, 5, -74, 30, -26, 1, 3, 4, 12, 39, 54, -43, 2, 10, 23, 13], "withholdReward": false, "trial_id": "mdp_trial_17", "block": "test", "trialIndex": 18, "score": 28.8, "costs": -4.199999999999999, "simulationMode": [null, null, null, null, null], "rewards": [1, -1, -2, 5, 30], "path": ["0", "0", "12", "13", "14", "19", "21"], "rt": [13975, 435, 188, 403, 220], "actions": ["right", "right", "right", "down", "down"], "actionTimes": [17939, 18882, 19587, 20496, 21236], "queries": {"click": {"state": {"target": ["13", "19", "21"], "time": [5170, 8330, 10322]}, "edge": {"target": [], "time": []}}, "mouseover": {"state": {"target": ["12", "13", "14", "19", "14", "15", "15", "14", "21", "22"], "time": [4479, 4878, 5553, 6213, 8957, 9022, 9420, 9701, 10061, 11022]}, "edge": {"target": [], "time": []}}, "mouseout": {"state": {"target": ["26", "28", "12", "13", "14", "19", "14", "15", "15", "14", "19", "21"], "time": [2412, 2778, 4510, 5424, 6069, 8912, 9001, 9208, 9680, 9723, 9893, 10451]}, "edge": {"target": [], "time": []}}}, "displayed_time": "21.74", "trialTime": 22929, "trial_type": "mouselab-mdp", "trial_index": 25, "time_elapsed": 893169, "internal_node_id": "0.0-4.0-1.0-16.0"}}, {"uniqueid": "w94367310:a89523089", "current_trial": 26, "dateTime": 1691143039065, "trialdata": {"revealed_states": [], "clicked_states": ["1", "3", "6"], "num_clicks_accrued": [0, 0, 0, 0, 0, 0, 0, 0, 0, 0, 0, 0, 0], "stateRewards": ["", 1, -4, 6, -3, 40, 76, -51, 5, -24, -63, 44, -2, -2, 8, 1, 76, -85, -58, 10, 59, 20, 11, -2, 3, -3, 3, -82, -10, 54, -7, -57, -6, -32], "withholdReward": false, "trial_id": "mdp_trial_18", "block": "test", "trialIndex": 19, "score": 71.8, "costs": -4.199999999999999, "simulationMode": [null, null, null, null, null], "rewards": [1, -4, 6, -3, 76], "path": ["0", "0", "1", "2", "3", "4", "6"], "rt": [9521, 269, 118, 203, 182], "actions": ["up", "up", "up", "right", "right"], "actionTimes": [13656, 14461, 15127, 15860, 16562], "queries": {"click": {"state": {"target": ["1", "3", "6"], "time": [5523, 7331, 9714]}, "edge": {"target": [], "time": []}}, "mouseover": {"state": {"target": ["1", "2", "2", "3", "4", "6"], "time": [5293, 5774, 6523, 7135, 7816, 9390]}, "edge": {"target": [], "time": []}}, "mouseout": {"state": {"target": ["22", "0", "1", "2", "2", "3", "4", "6"], "time": [1041, 5173, 5691, 6278, 6906, 7775, 9292, 10304]}, "edge": {"target": [], "time": []}}}, "displayed_time": "18.41", "trialTime": 19399, "trial_type": "mouselab-mdp", "trial_index": 26, "time_elapsed": 912924, "internal_node_id": "0.0-4.0-1.0-17.0"}}, {"uniqueid": "w94367310:a89523089", "current_trial": 27, "dateTime": 1691143059999, "trialdata": {"revealed_states": [], "clicked_states": ["23", "26", "27", "29"], "num_clicks_accrued": [0, 0, 0, 0, 0, 0, 0, 0, 0, 0, 0, 0, 0], "stateRewards": ["", -2, 4, -3, -13, 63, -36, 62, 11, 78, 34, -51, 2, -2, 8, -6, -40, -18, 31, 9, 64, 39, 79, 1, 4, -4, 15, -12, 76, 73, -10, -77, 86, -4], "withholdReward": false, "trial_id": "mdp_trial_19", "block": "test", "trialIndex": 20, "score": 83.4, "costs": -5.6, "simulationMode": [null, null, null, null, null], "rewards": [1, 4, -4, 15, 73], "path": ["0", "0", "23", "24", "25", "26", "29"], "rt": [11472, 157, 147, 775, 211], "actions": ["left", "left", "left", "up", "left"], "actionTimes": [15169, 15841, 16510, 17798, 18518], "queries": {"click": {"state": {"target": ["23", "26", "27", "29"], "time": [5015, 7224, 8865, 11271]}, "edge": {"target": [], "time": []}}, "mouseover": {"state": {"target": ["23", "24", "25", "26", "27", "29", "28"], "time": [4760, 5279, 5765, 6844, 8071, 10440, 12062]}, "edge": {"target": [], "time": []}}, "mouseout": {"state": {"target": ["7", "0", "23", "24", "25", "26", "27", "29", "26"], "time": [2925, 4160, 5232, 5719, 6709, 7716, 9506, 11627, 11840]}, "edge": {"target": [], "time": []}}}, "displayed_time": "19.02", "trialTime": 20568, "trial_type": "mouselab-mdp", "trial_index": 27, "time_elapsed": 933858, "internal_node_id": "0.0-4.0-1.0-18.0"}}, {"uniqueid": "w94367310:a89523089", "current_trial": 28, "dateTime": 1691143079182, "trialdata": {"revealed_states": [], "clicked_states": ["1", "4", "5"], "num_clicks_accrued": [0, 0, 0, 0, 0, 0, 0, 0, 0, 0, 0, 0, 0], "stateRewards": ["", 1, -3, -2, 14, 49, -40, -39, 2, 26, -61, 73, 1, -4, -8, 12, 79, 29, -65, -13, 55, -26, 27, -1, 3, 3, 9, -17, -60, -18, -8, 35, -88, 69], "withholdReward": false, "trial_id": "mdp_trial_20", "block": "test", "trialIndex": 21, "score": 54.8, "costs": -4.199999999999999, "simulationMode": [null, null, null, null, null], "rewards": [1, -3, -2, 14, 49], "path": ["0", "0", "1", "2", "3", "4", "5"], "rt": [9289, 109, 214, 267, 393], "actions": ["up", "up", "up", "right", "up"], "actionTimes": [12254, 12905, 13655, 14448, 15349], "queries": {"click": {"state": {"target": ["1", "4", "5"], "time": [4684, 6756, 8907]}, "edge": {"target": [], "time": []}}, "mouseover": {"state": {"target": ["12", "12", "1", "2", "3", "4", "5", "6"], "time": [3510, 3974, 4478, 4975, 5725, 6392, 7178, 9713]}, "edge": {"target": [], "time": []}}, "mouseout": {"state": {"target": ["28", "23", "12", "12", "1", "2", "3", "4", "5"], "time": [1287, 2109, 3575, 4360, 4731, 5581, 6342, 7075, 9397]}, "edge": {"target": [], "time": []}}}, "displayed_time": "17.56", "trialTime": 18803, "trial_type": "mouselab-mdp", "trial_index": 28, "time_elapsed": 953042, "internal_node_id": "0.0-4.0-1.0-19.0"}}, {"uniqueid": "w94367310:a89523089", "current_trial": 29, "dateTime": 1691143102963, "trialdata": {"revealed_states": [], "clicked_states": ["1", "8", "11", "9"], "num_clicks_accrued": [0, 0, 0, 0, 0, 0, 0, 0, 0, 0, 0, 0, 0], "stateRewards": ["", -1, -3, -6, -2, -7, 80, -45, -3, -38, -72, 76, 2, 1, 7, 4, -62, 14, -74, 14, -87, -21, -88, -2, 1, -7, -10, 66, 56, -76, 10, -29, -72, -70], "withholdReward": false, "trial_id": "mdp_trial_21", "block": "test", "trialIndex": 22, "score": 57.4, "costs": -5.6, "simulationMode": [null, null, null, null, null], "rewards": [-1, -3, -6, -3, 76], "path": ["0", "0", "1", "2", "3", "8", "11"], "rt": [9262, 229, 241, 927, 217], "actions": ["up", "up", "up", "left", "left"], "actionTimes": [12116, 12864, 13613, 15046, 15770], "queries": {"click": {"state": {"target": ["1", "8", "11", "9"], "time": [4388, 6358, 7930, 9549]}, "edge": {"target": [], "time": []}}, "mouseover": {"state": {"target": ["1", "2", "3", "8", "11", "9"], "time": [3820, 4677, 5310, 5864, 7485, 8795]}, "edge": {"target": [], "time": []}}, "mouseout": {"state": {"target": ["6", "7", "1", "2", "3", "8", "11", "9"], "time": [953, 1386, 4593, 5231, 5821, 7099, 8564, 10253]}, "edge": {"target": [], "time": []}}}, "displayed_time": "17.32", "trialTime": 23329, "trial_type": "mouselab-mdp", "trial_index": 29, "time_elapsed": 976823, "internal_node_id": "0.0-4.0-1.0-20.0"}}, {"uniqueid": "w94367310:a89523089", "current_trial": 30, "dateTime": 1691143129104, "trialdata": {"revealed_states": [], "clicked_states": ["12", "13", "14", "19", "22"], "num_clicks_accrued": [0, 0, 0, 0, 0, 0, 0, 0, 0, 0, 0, 0, 0], "stateRewards": ["", 2, 3, 6, -12, -29, 12, 87, 4, 35, -30, 67, 2, 3, -5, -9, 44, 69, -8, 1, 45, -8, 28, -2, -1, -8, 11, -12, -5, 81, 9, 87, 82, 88], "withholdReward": false, "trial_id": "mdp_trial_22", "block": "test", "trialIndex": 23, "score": -14, "costs": -7, "simulationMode": [null, null, null, null, null], "rewards": [2, 3, -5, 1, -8], "path": ["0", "0", "12", "13", "14", "19", "21"], "rt": [15176, 18, 147, 145, 542], "actions": ["right", "right", "right", "down", "down"], "actionTimes": [18075, 18611, 19270, 19954, 21010], "queries": {"click": {"state": {"target": ["12", "13", "14", "19", "22"], "time": [3926, 5503, 9140, 12378, 14415]}, "edge": {"target": [], "time": []}}, "mouseover": {"state": {"target": ["12", "13", "14", "14", "14", "19", "22"], "time": [3518, 4393, 5864, 7735, 8799, 11300, 14015]}, "edge": {"target": [], "time": []}}, "mouseout": {"state": {"target": ["8", "2", "1", "12", "13", "14", "14", "14", "14", "19", "19", "22"], "time": [838, 1535, 2151, 4062, 5784, 7586, 8650, 9667, 10783, 13192, 13983, 16449]}, "edge": {"target": [], "time": []}}}, "displayed_time": "21.52", "trialTime": 25737, "trial_type": "mouselab-mdp", "trial_index": 30, "time_elapsed": 1002964, "internal_node_id": "0.0-4.0-1.0-21.0"}}, {"uniqueid": "w94367310:a89523089", "current_trial": 31, "dateTime": 1691143151319, "trialdata": {"revealed_states": [], "clicked_states": ["13", "19", "20", "14", "21"], "num_clicks_accrued": [0, 0, 0, 0, 0, 0, 0, 0, 0, 0, 0, 0, 0], "stateRewards": ["", 1, 1, -3, 7, 49, 78, 26, -5, 26, 48, -43, -1, -3, 2, -5, 4, -1, -60, 10, -35, 51, 81, -2, 1, -7, -5, -39, -86, -54, 4, -3, 74, 77], "withholdReward": false, "trial_id": "mdp_trial_23", "block": "test", "trialIndex": 24, "score": 52, "costs": -7, "simulationMode": [null, null, null, null, null], "rewards": [-1, -3, 2, 10, 51], "path": ["0", "0", "12", "13", "14", "19", "21"], "rt": [13698, 143, 253, 679, 292], "actions": ["right", "right", "right", "down", "down"], "actionTimes": [16695, 17359, 18155, 19362, 20174], "queries": {"click": {"state": {"target": ["13", "19", "20", "14", "21"], "time": [4636, 6444, 8033, 11386, 12983]}, "edge": {"target": [], "time": []}}, "mouseover": {"state": {"target": ["12", "13", "14", "19", "20", "14", "15", "14", "21"], "time": [3576, 4309, 5071, 5721, 6937, 10426, 10611, 10876, 12567]}, "edge": {"target": [], "time": []}}, "mouseout": {"state": {"target": ["13", "0", "12", "13", "14", "19", "20", "14", "15", "14", "21"], "time": [1544, 3544, 4261, 4900, 5658, 6829, 10177, 10508, 10828, 11711, 13142]}, "edge": {"target": [], "time": []}}}, "displayed_time": "20.70", "trialTime": 21796, "trial_type": "mouselab-mdp", "trial_index": 31, "time_elapsed": 1025179, "internal_node_id": "0.0-4.0-1.0-22.0"}}, {"uniqueid": "w94367310:a89523089", "current_trial": 32, "dateTime": 1691143175022, "trialdata": {"revealed_states": [], "clicked_states": ["1", "2", "3", "8", "11"], "num_clicks_accrued": [0, 0, 0, 0, 0, 0, 0, 0, 0, 0, 0, 0, 0], "stateRewards": ["", 1, 2, 2, -15, -84, 28, -26, 13, 31, 86, 30, -2, 1, -1, -8, 66, -40, -1, -10, -32, 57, -17, 1, 2, -2, 9, -23, 77, 85, 12, -32, -62, -35], "withholdReward": false, "trial_id": "mdp_trial_24", "block": "test", "trialIndex": 25, "score": 41, "costs": -7, "simulationMode": [null, null, null, null, null], "rewards": [1, 2, 2, 13, 30], "path": ["0", "0", "1", "2", "3", "8", "11"], "rt": [14033, 119, 175, 551, 214], "actions": ["up", "up", "up", "left", "left"], "actionTimes": [17829, 18483, 19174, 20255, 20988], "queries": {"click": {"state": {"target": ["1", "2", "3", "8", "11"], "time": [5102, 6902, 9819, 12483, 14434]}, "edge": {"target": [], "time": []}}, "mouseover": {"state": {"target": ["23", "1", "2", "3", "8", "11"], "time": [4400, 4934, 5853, 7382, 10346, 13460]}, "edge": {"target": [], "time": []}}, "mouseout": {"state": {"target": ["21", "0", "23", "1", "2", "3", "8"], "time": [1868, 4251, 4701, 5550, 7167, 10280, 12848]}, "edge": {"target": [], "time": []}}}, "displayed_time": "21.50", "trialTime": 23291, "trial_type": "mouselab-mdp", "trial_index": 32, "time_elapsed": 1048882, "internal_node_id": "0.0-4.0-1.0-23.0"}}, {"uniqueid": "w94367310:a89523089", "current_trial": 33, "dateTime": 1691143195766, "trialdata": {"revealed_states": [], "clicked_states": ["23", "24"], "num_clicks_accrued": [0, 0, 0, 0, 0, 0, 0, 0, 0, 0, 0, 0, 0], "stateRewards": ["", -2, -3, -6, -7, 9, 16, 65, 5, -41, 20, -25, -1, -4, 1, -11, -49, -4, 71, 1, 39, -62, 52, -2, -3, 7, -9, -28, -70, 84, 8, 24, -58, 82], "withholdReward": false, "trial_id": "mdp_trial_25", "block": "test", "trialIndex": 26, "score": 53.2, "costs": -2.8, "simulationMode": [null, null, null, null, null], "rewards": [-1, -4, 1, -11, 71], "path": ["0", "0", "12", "13", "14", "15", "18"], "rt": [9712, 221, 120, 1297, 833], "actions": ["right", "right", "right", "up", "left"], "actionTimes": [13849, 14602, 15243, 17077, 18447], "queries": {"click": {"state": {"target": ["23", "24"], "time": [5161, 6703]}, "edge": {"target": [], "time": []}}, "mouseover": {"state": {"target": ["23", "24", "25", "25", "30"], "time": [4828, 5566, 7103, 9228, 11244]}, "edge": {"target": [], "time": []}}, "mouseout": {"state": {"target": ["11", "10", "1", "23", "24", "25", "25", "30"], "time": [1131, 1979, 2495, 5501, 7036, 8796, 11213, 12895]}, "edge": {"target": [], "time": []}}}, "displayed_time": "18.96", "trialTime": 20314, "trial_type": "mouselab-mdp", "trial_index": 33, "time_elapsed": 1069625, "internal_node_id": "0.0-4.0-1.0-24.0"}}, {"uniqueid": "w94367310:a89523089", "current_trial": 34, "dateTime": 1691143217632, "trialdata": {"revealed_states": [], "clicked_states": [], "num_clicks_accrued": [0, 0, 0, 0, 0, 0, 0, 0, 0, 0, 0, 0, 0], "stateRewards": ["", -1, 1, -1, 2, 19, 85, -18, 2, -3, -26, 36, 2, 4, 7, -9, -18, 70, 72, -5, 35, -20, -28, 1, -2, -4, -3, -59, -11, -63, -2, -72, 59, -69], "withholdReward": false, "trial_id": "mdp_trial_26", "block": "test", "trialIndex": 27, "score": 20, "costs": 0, "simulationMode": [null, null, null, null, null], "rewards": [-1, 1, -1, 2, 19], "path": ["0", "0", "1", "2", "3", "4", "5"], "rt": [1721, 192, 737, 126, 552], "actions": ["up", "up", "up", "right", "up"], "actionTimes": [6672, 7387, 8638, 9280, 10354], "queries": {"click": {"state": {"target": [], "time": []}, "edge": {"target": [], "time": []}}, "mouseover": {"state": {"target": [], "time": []}, "edge": {"target": [], "time": []}}, "mouseout": {"state": {"target": ["12"], "time": [4180]}, "edge": {"target": [], "time": []}}}, "displayed_time": "19.28", "trialTime": 21418, "trial_type": "mouselab-mdp", "trial_index": 34, "time_elapsed": 1091492, "internal_node_id": "0.0-4.0-1.0-25.0"}}, {"uniqueid": "w94367310:a89523089", "current_trial": 35, "dateTime": 1691143243308, "trialdata": {"revealed_states": [], "clicked_states": [], "num_clicks_accrued": [0, 0, 0, 0, 0, 0, 0, 0, 0, 0, 0, 0, 0], "stateRewards": ["", 1, 1, -3, 2, 22, -25, -11, -5, 50, 49, 3, 1, -1, 8, 14, -85, -30, 57, -6, -39, -16, 59, -2, -1, 5, 5, 59, -16, 8, 4, 67, 56, -9], "withholdReward": false, "trial_id": "mdp_trial_27", "block": "test", "trialIndex": 28, "score": -37, "costs": 0, "simulationMode": [null, null, null, null, null], "rewards": [1, -1, 8, -6, -39], "path": ["0", "0", "12", "13", "14", "19", "20"], "rt": [2771, 346, 396, 186, 636], "actions": ["right", "right", "right", "down", "right"], "actionTimes": [10183, 11060, 11963, 12677, 13826], "queries": {"click": {"state": {"target": [], "time": []}, "edge": {"target": [], "time": []}}, "mouseover": {"state": {"target": [], "time": []}, "edge": {"target": [], "time": []}}, "mouseout": {"state": {"target": ["0", "23", "23", "0"], "time": [6315, 6365, 6866, 25033]}, "edge": {"target": [], "time": []}}}, "displayed_time": "21.72", "trialTime": 25230, "trial_type": "mouselab-mdp", "trial_index": 35, "time_elapsed": 1117168, "internal_node_id": "0.0-4.0-1.0-26.0"}}, {"uniqueid": "w94367310:a89523089", "current_trial": 36, "dateTime": 1691143279903, "trialdata": {"revealed_states": [], "clicked_states": ["23", "24", "25", "26", "30", "12", "13", "14", "19", "20", "15", "16"], "num_clicks_accrued": [0, 0, 0, 0, 0, 0, 0, 0, 0, 0, 0, 0, 0], "stateRewards": ["", -1, -4, 8, 8, -68, 47, 24, -7, -61, 49, -69, -1, -1, 8, -7, 42, 1, -45, -11, 10, -63, -6, 1, 4, 6, -16, 79, -37, -58, -12, 81, 18, -53], "withholdReward": false, "trial_id": "mdp_trial_28", "block": "test", "trialIndex": 29, "score": 24.2, "costs": -16.8, "simulationMode": [null, null, null, null, null], "rewards": [-1, -1, 8, -7, 42], "path": ["0", "0", "12", "13", "14", "15", "16"], "rt": [30096, 181, 249, 735, 175], "actions": ["right", "right", "right", "up", "up"], "actionTimes": [31118, 31815, 32581, 33837, 34523], "queries": {"click": {"state": {"target": ["23", "24", "25", "26", "30", "12", "13", "14", "19", "20", "15", "16"], "time": [2215, 4210, 6093, 7998, 10997, 14301, 16405, 18542, 20406, 23029, 25012, 27101]}, "edge": {"target": [], "time": []}}, "mouseover": {"state": {"target": ["23", "24", "25", "26", "28", "30", "31", "12", "13", "14", "19", "20", "14", "15", "16"], "time": [1995, 2619, 4616, 7058, 9880, 10678, 13047, 14114, 14916, 17104, 19284, 20947, 23568, 24032, 26486]}, "edge": {"target": [], "time": []}}, "mouseout": {"state": {"target": ["0", "23", "24", "25", "26", "28", "30", "31", "12", "13", "14", "19", "20", "14", "15", "16", "15"], "time": [1897, 2448, 4525, 6433, 9797, 10446, 12763, 13847, 14771, 16816, 19120, 20714, 23437, 23650, 26122, 27844, 28979]}, "edge": {"target": [], "time": []}}}, "displayed_time": "35.03", "trialTime": 36223, "trial_type": "mouselab-mdp", "trial_index": 36, "time_elapsed": 1153763, "internal_node_id": "0.0-4.0-1.0-27.0"}}, {"uniqueid": "w94367310:a89523089", "current_trial": 37, "dateTime": 1691143317209, "trialdata": {"revealed_states": [], "clicked_states": ["1", "2", "3", "8", "11", "9", "10", "4", "6", "7", "5"], "num_clicks_accrued": [0, 0, 0, 0, 0, 0, 0, 0, 0, 0, 0, 0, 0], "stateRewards": ["", 2, 3, 8, 14, 69, -27, 17, 2, -71, -65, -10, 2, -3, 7, 8, 65, -10, 65, -12, 73, -12, 13, -2, -2, 6, 10, -79, -69, -18, 10, -85, 67, 74], "withholdReward": false, "trial_id": "mdp_trial_29", "block": "test", "trialIndex": 30, "score": 80.6, "costs": -15.400000000000002, "simulationMode": [null, null, null, null, null], "rewards": [2, 3, 8, 14, 69], "path": ["0", "0", "1", "2", "3", "4", "5"], "rt": [27879, 103, 237, 713, 196], "actions": ["up", "up", "up", "right", "up"], "actionTimes": [31398, 32013, 32795, 34022, 34742], "queries": {"click": {"state": {"target": ["1", "2", "3", "8", "11", "9", "10", "4", "6", "7", "5"], "time": [5005, 6741, 9388, 11780, 13780, 15868, 17772, 19829, 21909, 24042, 27657]}, "edge": {"target": [], "time": []}}, "mouseover": {"state": {"target": ["1", "2", "3", "3", "8", "11", "9", "8", "10", "4", "6", "7", "4", "5"], "time": [4442, 5476, 7770, 8944, 9719, 12579, 14952, 16397, 16503, 19126, 21143, 23844, 27192, 27274]}, "edge": {"target": [], "time": []}}, "mouseout": {"state": {"target": ["15", "13", "0", "1", "2", "3", "3", "8", "11", "9", "8", "10", "4", "6", "7", "4"], "time": [1291, 2308, 4057, 5261, 7479, 8693, 9675, 12191, 14340, 16309, 16433, 18895, 20233, 23126, 24173, 27223]}, "edge": {"target": [], "time": []}}}, "displayed_time": "35.27", "trialTime": 36944, "trial_type": "mouselab-mdp", "trial_index": 37, "time_elapsed": 1191069, "internal_node_id": "0.0-4.0-1.0-28.0"}}, {"uniqueid": "w94367310:a89523089", "current_trial": 38, "dateTime": 1691143366668, "trialdata": {"revealed_states": [], "clicked_states": ["23", "25", "24", "12", "30", "32", "33", "31", "13", "14", "19", "22", "20", "21", "15", "16", "18", "17"], "num_clicks_accrued": [0, 0, 0, 0, 0, 0, 0, 0, 0, 0, 0, 0, 0], "stateRewards": ["", 2, 2, 3, -15, 23, -14, 73, -7, -32, -20, -6, 1, 1, -5, -12, 73, 6, -84, 11, -81, -57, 13, -2, -1, -4, -8, -52, -58, 49, 13, 5, -41, -41], "withholdReward": false, "trial_id": "mdp_trial_30", "block": "test", "trialIndex": 31, "score": 32.80000000000001, "costs": -25.199999999999992, "simulationMode": [null, null, null, null, null], "rewards": [1, 1, -5, -12, 73], "path": ["0", "0", "12", "13", "14", "15", "16"], "rt": [42063, 26, 183, 635, 141], "actions": ["right", "right", "right", "up", "up"], "actionTimes": [44680, 45244, 45953, 47103, 47757], "queries": {"click": {"state": {"target": ["23", "25", "24", "12", "30", "32", "33", "31", "13", "14", "19", "22", "20", "21", "15", "16", "18", "17"], "time": [3977, 6191, 8616, 11392, 12996, 14946, 17328, 19317, 21801, 23857, 25817, 28026, 30640, 32580, 35265, 37132, 39873, 41944]}, "edge": {"target": [], "time": []}}, "mouseover": {"state": {"target": ["23", "24", "25", "30", "24", "30", "31", "12", "31", "30", "32", "33", "30", "31", "13", "14", "19", "22", "20", "21", "19", "14", "15", "16", "18", "15", "17"], "time": [3501, 4246, 5734, 7946, 8233, 8956, 10605, 10816, 11988, 12609, 13833, 17067, 17822, 18030, 21368, 22778, 24774, 26371, 30450, 31462, 34681, 34731, 35050, 36629, 37912, 41107, 41654]}, "edge": {"target": [], "time": []}}, "mouseout": {"state": {"target": ["5", "4", "7", "23", "24", "25", "30", "24", "30", "31", "12", "31", "30", "32", "33", "30", "31", "13", "14", "19", "22", "19", "20", "21", "19", "14", "15", "16", "18", "15"], "time": [417, 1285, 1700, 4225, 5469, 7588, 8166, 8909, 10584, 10626, 11820, 12117, 13482, 15678, 17715, 17885, 21051, 22252, 24579, 26252, 29932, 30083, 31104, 34631, 34702, 34781, 35867, 37413, 40892, 41323]}, "edge": {"target": [], "time": []}}}, "displayed_time": "48.27", "trialTime": 49062, "trial_type": "mouselab-mdp", "trial_index": 38, "time_elapsed": 1240527, "internal_node_id": "0.0-4.0-1.0-29.0"}}, {"uniqueid": "w94367310:a89523089", "current_trial": 39, "dateTime": 1691143410665, "trialdata": {"revealed_states": [], "clicked_states": ["1", "2", "3", "4", "7", "6", "5", "8", "11", "10", "9", "24", "25", "30", "32"], "num_clicks_accrued": [0, 0, 0, 0, 0, 0, 0, 0, 0, 0, 0, 0, 0], "stateRewards": ["", -2, 1, -8, 12, -65, -79, 16, 7, -80, -17, -45, -2, 2, -5, -2, -85, 23, -4, -7, 48, 27, -76, 2, 3, 5, 2, 43, 71, -13, 7, -49, 59, -31], "withholdReward": false, "trial_id": "mdp_trial_31", "block": "test", "trialIndex": 32, "score": 55, "costs": -20.999999999999996, "simulationMode": [null, null, null, null, null], "rewards": [2, 3, 5, 7, 59], "path": ["0", "0", "23", "24", "25", "30", "32"], "rt": [36055, 679, 226, 693, 181], "actions": ["left", "left", "left", "down", "down"], "actionTimes": [38158, 39374, 40115, 41344, 42038], "queries": {"click": {"state": {"target": ["1", "2", "3", "4", "7", "6", "5", "8", "11", "10", "9", "24", "25", "30", "32"], "time": [3304, 5225, 7240, 9935, 11541, 13795, 15920, 18719, 21128, 23144, 25159, 28176, 30768, 32679, 34624]}, "edge": {"target": [], "time": []}}, "mouseover": {"state": {"target": ["1", "2", "3", "3", "4", "7", "4", "7", "6", "5", "3", "8", "11", "10", "8", "9", "8", "24", "25", "30", "32", "31"], "time": [3100, 3984, 5799, 6916, 7655, 9433, 9633, 10300, 12854, 14907, 17949, 18515, 20915, 22263, 23556, 23958, 27350, 27864, 28616, 31369, 33864, 36091]}, "edge": {"target": [], "time": []}}, "mouseout": {"state": {"target": ["17", "15", "12", "0", "1", "2", "3", "3", "4", "7", "4", "7", "6", "5", "3", "8", "11", "10", "8", "9", "8", "10", "24", "25", "30", "32"], "time": [681, 765, 1549, 3000, 3705, 5521, 6718, 7572, 9215, 9540, 10216, 12660, 14203, 17850, 18197, 20581, 22026, 23427, 23665, 26178, 27370, 27430, 28529, 31214, 33234, 35596]}, "edge": {"target": [], "time": []}}}, "displayed_time": "42.55", "trialTime": 43594, "trial_type": "mouselab-mdp", "trial_index": 39, "time_elapsed": 1284524, "internal_node_id": "0.0-4.0-1.0-30.0"}}, {"uniqueid": "w94367310:a89523089", "current_trial": 40, "dateTime": 1691143463528, "trialdata": {"revealed_states": [], "clicked_states": ["23", "24", "25", "30", "31", "33", "32", "26", "27", "29", "13", "14", "19", "20", "21", "22", "15", "16", "18", "17"], "num_clicks_accrued": [0, 0, 0, 0, 0, 0, 0, 0, 0, 0, 0, 0, 0], "stateRewards": ["", -2, 1, -7, -8, -37, -76, -87, 11, 30, -63, 80, -1, 4, 2, -1, 42, 17, 52, -3, -75, -80, -68, 2, -3, -5, -15, -48, 82, 24, -7, 5, -22, -71], "withholdReward": false, "trial_id": "mdp_trial_32", "block": "test", "trialIndex": 33, "score": 28.00000000000001, "costs": -27.99999999999999, "simulationMode": [null, null, null, null, null], "rewards": [-1, 4, 2, -1, 52], "path": ["0", "0", "12", "13", "14", "15", "18"], "rt": [43776, 187, 134, 597, 659], "actions": ["right", "right", "right", "up", "left"], "actionTimes": [46970, 47669, 48336, 49445, 50624], "queries": {"click": {"state": {"target": ["23", "24", "25", "30", "31", "33", "32", "26", "27", "29", "13", "14", "19", "20", "21", "22", "15", "16", "18", "17"], "time": [5004, 7451, 9236, 11197, 13101, 15430, 17353, 19256, 21173, 23061, 26101, 28070, 29912, 32420, 34436, 36478, 38372, 40245, 42421, 44142]}, "edge": {"target": [], "time": []}}, "mouseover": {"state": {"target": ["0", "0", "23", "24", "25", "30", "31", "33", "32", "30", "25", "26", "26", "27", "29", "28", "0", "12", "13", "14", "19", "20", "21", "22", "14", "15", "16", "18", "17"], "time": [3626, 4554, 4711, 5434, 7800, 9830, 11582, 15126, 16516, 17886, 18072, 18184, 18760, 19868, 21635, 23367, 23731, 24081, 24809, 27402, 28699, 30792, 33191, 35031, 37376, 37566, 39428, 40749, 42994]}, "edge": {"target": [], "time": []}}, "mouseout": {"state": {"target": ["31", "0", "0", "0", "23", "24", "25", "30", "31", "30", "33", "32", "30", "25", "26", "26", "27", "29", "26", "28", "0", "12", "13", "14", "19", "20", "21", "22", "14", "15", "16", "18", "15", "17"], "time": [2159, 3213, 3861, 4575, 5329, 7764, 9659, 11509, 13736, 14528, 16093, 17695, 17994, 18125, 18399, 19498, 21472, 23247, 23351, 23387, 23790, 24658, 27207, 28463, 30454, 32958, 34795, 37183, 37439, 38928, 40549, 42730, 42833, 44717]}, "edge": {"target": [], "time": []}}}, "displayed_time": "51.15", "trialTime": 52454, "trial_type": "mouselab-mdp", "trial_index": 40, "time_elapsed": 1337388, "internal_node_id": "0.0-4.0-1.0-31.0"}}, {"uniqueid": "w94367310:a89523089", "current_trial": 41, "dateTime": 1691143489838, "trialdata": {"revealed_states": [], "clicked_states": ["1", "2", "3", "4", "8", "6", "7"], "num_clicks_accrued": [0, 0, 0, 0, 0, 0, 0, 0, 0, 0, 0, 0, 0], "stateRewards": ["", 1, -1, 4, -2, -75, -75, 84, -9, -60, -79, 59, 2, -4, 8, 9, -17, -82, 80, 14, -4, 49, 49, -1, 3, 6, -11, -33, 34, 55, 9, -57, 5, 59], "withholdReward": false, "trial_id": "mdp_trial_33", "block": "test", "trialIndex": 34, "score": 76.2, "costs": -9.8, "simulationMode": [null, null, null, null, null], "rewards": [1, -1, 4, -2, 84], "path": ["0", "0", "1", "2", "3", "4", "7"], "rt": [17923, 278, 199, 822, 140], "actions": ["up", "up", "up", "right", "down"], "actionTimes": [20674, 21462, 22172, 23508, 24178], "queries": {"click": {"state": {"target": ["1", "2", "3", "4", "8", "6", "7"], "time": [3677, 5923, 8461, 10357, 12246, 14225, 16291]}, "edge": {"target": [], "time": []}}, "mouseover": {"state": {"target": ["1", "2", "3", "4", "8", "6", "7", "4", "5"], "time": [3369, 4443, 6488, 9041, 10709, 13678, 15729, 16984, 17163]}, "edge": {"target": [], "time": []}}, "mouseout": {"state": {"target": ["14", "13", "0", "1", "2", "3", "4", "3", "8", "3", "4", "6", "7", "4"], "time": [1135, 1634, 3236, 4191, 6318, 8874, 10636, 10691, 12673, 12914, 13433, 15288, 16870, 17055]}, "edge": {"target": [], "time": []}}}, "displayed_time": "24.69", "trialTime": 25893, "trial_type": "mouselab-mdp", "trial_index": 41, "time_elapsed": 1363698, "internal_node_id": "0.0-4.0-1.0-32.0"}}, {"uniqueid": "w94367310:a89523089", "current_trial": 42, "dateTime": 1691143513813, "trialdata": {"revealed_states": [], "clicked_states": ["23", "25", "26", "30", "33"], "num_clicks_accrued": [0, 0, 0, 0, 0, 0, 0, 0, 0, 0, 0, 0, 0], "stateRewards": ["", -2, -3, 4, 1, 33, -53, 15, 9, -12, 61, -6, -2, 4, 6, -11, 47, -43, -7, -11, 46, 23, -28, -1, -1, 3, -10, 11, 76, -76, 10, 18, -38, 87], "withholdReward": false, "trial_id": "mdp_trial_34", "block": "test", "trialIndex": 35, "score": 91, "costs": -7, "simulationMode": [null, null, null, null, null], "rewards": [-1, -1, 3, 10, 87], "path": ["0", "0", "23", "24", "25", "30", "33"], "rt": [15648, 238, 189, 770, 415], "actions": ["left", "left", "left", "down", "left"], "actionTimes": [18202, 18956, 19678, 20964, 21884], "queries": {"click": {"state": {"target": ["23", "25", "26", "30", "33"], "time": [4065, 7895, 9780, 12120, 14399]}, "edge": {"target": [], "time": []}}, "mouseover": {"state": {"target": ["23", "24", "25", "26", "30", "33", "31"], "time": [3469, 5145, 6503, 8759, 11521, 14020, 14969]}, "edge": {"target": [], "time": []}}, "mouseout": {"state": {"target": ["5", "4", "7", "0", "23", "24", "25", "26", "25", "30", "33", "30"], "time": [870, 1004, 1106, 3044, 4817, 6336, 8515, 10501, 11193, 13701, 14745, 14919]}, "edge": {"target": [], "time": []}}}, "displayed_time": "22.40", "trialTime": 23487, "trial_type": "mouselab-mdp", "trial_index": 42, "time_elapsed": 1387673, "internal_node_id": "0.0-4.0-1.0-33.0"}}, {"uniqueid": "w94367310:a89523089", "current_trial": 43, "dateTime": 1691143535784, "trialdata": {"revealed_states": [], "clicked_states": ["12", "14", "15", "19", "18", "16"], "num_clicks_accrued": [0, 0, 0, 0, 0, 0, 0, 0, 0, 0, 0, 0, 0], "stateRewards": ["", -1, 1, -2, 5, 73, 15, 61, 8, 7, 38, 76, 2, 2, -4, -6, -6, -26, 43, -5, -45, -85, -35, -2, 1, -4, 15, -10, 69, 72, -11, 84, -49, -38], "withholdReward": false, "trial_id": "mdp_trial_35", "block": "test", "trialIndex": 36, "score": 28.6, "costs": -8.4, "simulationMode": [null, null, null, null, null], "rewards": [2, 2, -4, -6, 43], "path": ["0", "0", "12", "13", "14", "15", "18"], "rt": [14873, 206, 214, 654, 227], "actions": ["right", "right", "right", "up", "left"], "actionTimes": [16640, 17368, 18101, 19290, 20028], "queries": {"click": {"state": {"target": ["12", "14", "15", "19", "18", "16"], "time": [3147, 5171, 6964, 9615, 11487, 13379]}, "edge": {"target": [], "time": []}}, "mouseover": {"state": {"target": ["12", "12", "13", "14", "15", "18", "19", "19", "18", "16"], "time": [2268, 2602, 3391, 4066, 5794, 8117, 9035, 9353, 10666, 12440]}, "edge": {"target": [], "time": []}}, "mouseout": {"state": {"target": ["31", "0", "12", "12", "13", "14", "15", "18", "19", "19", "18"], "time": [934, 1352, 2300, 3350, 3979, 5629, 7753, 8919, 9067, 9884, 11946]}, "edge": {"target": [], "time": []}}}, "displayed_time": "20.53", "trialTime": 21541, "trial_type": "mouselab-mdp", "trial_index": 43, "time_elapsed": 1409644, "internal_node_id": "0.0-4.0-1.0-34.0"}}, {"uniqueid": "w94367310:a89523089", "current_trial": 44, "dateTime": 1691143567163, "trialdata": {"revealed_states": [], "clicked_states": ["1", "2", "3", "8", "4", "11", "10", "9", "5"], "num_clicks_accrued": [0, 0, 0, 0, 0, 0, 0, 0, 0, 0, 0, 0, 0], "stateRewards": ["", 1, -1, 8, 4, 76, -33, -17, -3, -1, -54, -74, -2, 2, -5, 13, -51, 63, 83, 1, 84, 29, -36, 2, -1, 7, -12, -10, -44, -43, -14, 8, -69, 19], "withholdReward": false, "trial_id": "mdp_trial_36", "block": "test", "trialIndex": 37, "score": 75.4, "costs": -12.600000000000001, "simulationMode": [null, null, null, null, null], "rewards": [1, -1, 8, 4, 76], "path": ["0", "0", "1", "2", "3", "4", "5"], "rt": [22622, 43, 137, 312, 980], "actions": ["up", "up", "up", "right", "up"], "actionTimes": [25877, 26434, 27108, 27940, 29432], "queries": {"click": {"state": {"target": ["1", "2", "3", "8", "4", "11", "10", "9", "5"], "time": [4181, 7021, 9069, 10632, 13176, 15374, 17718, 19620, 21587]}, "edge": {"target": [], "time": []}}, "mouseover": {"state": {"target": ["1", "2", "2", "3", "8", "4", "11", "10", "10", "8", "9", "5"], "time": [3853, 4834, 6451, 7400, 9418, 12783, 13711, 16190, 17185, 18368, 18497, 20321]}, "edge": {"target": [], "time": []}}, "mouseout": {"state": {"target": ["16", "18", "1", "2", "2", "3", "8", "3", "4", "3", "8", "11", "10", "10", "8", "9", "5"], "time": [589, 2401, 4514, 6252, 7152, 9376, 12601, 12736, 13454, 13522, 13667, 15999, 16950, 18279, 18388, 20054, 22301]}, "edge": {"target": [], "time": []}}}, "displayed_time": "29.96", "trialTime": 30922, "trial_type": "mouselab-mdp", "trial_index": 44, "time_elapsed": 1441023, "internal_node_id": "0.0-4.0-1.0-35.0"}}, {"uniqueid": "w94367310:a89523089", "current_trial": 45, "dateTime": 1691143595861, "trialdata": {"revealed_states": [], "clicked_states": ["23", "25", "26", "30", "27", "29", "28"], "num_clicks_accrued": [0, 0, 0, 0, 0, 0, 0, 0, 0, 0, 0, 0, 0], "stateRewards": ["", 1, 1, -5, 10, -31, 73, 14, -8, -23, 63, -70, -1, 2, 8, 7, 25, -59, 27, -10, -40, -71, -15, -2, 3, -8, -5, -19, 77, -34, 7, 67, 63, 19], "withholdReward": false, "trial_id": "mdp_trial_37", "block": "test", "trialIndex": 38, "score": 55.2, "costs": -9.8, "simulationMode": [null, null, null, null, null], "rewards": [-2, 3, -8, -5, 77], "path": ["0", "0", "23", "24", "25", "26", "28"], "rt": [19490, 193, 236, 745, 227], "actions": ["left", "left", "left", "up", "right"], "actionTimes": [23344, 24054, 24797, 26055, 26805], "queries": {"click": {"state": {"target": ["23", "25", "26", "30", "27", "29", "28"], "time": [5300, 7797, 11622, 13639, 15572, 17610, 19543]}, "edge": {"target": [], "time": []}}, "mouseover": {"state": {"target": ["0", "23", "24", "25", "26", "27", "26", "30", "30", "25", "27", "25", "25", "26", "29", "28", "24", "30", "32"], "time": [4327, 5026, 5584, 6279, 8297, 10276, 11144, 12337, 12917, 14032, 14603, 16385, 16706, 16819, 17209, 17992, 19968, 20189, 20478]}, "edge": {"target": [], "time": []}}, "mouseout": {"state": {"target": ["7", "0", "23", "24", "25", "26", "27", "26", "25", "30", "30", "25", "26", "27", "26", "25", "25", "26", "29", "28", "24", "30"], "time": [3041, 4909, 5545, 6192, 8193, 9808, 11043, 12026, 12253, 12563, 13890, 14109, 14208, 16128, 16300, 16432, 16750, 16841, 17803, 19913, 20025, 20208]}, "edge": {"target": [], "time": []}}}, "displayed_time": "27.33", "trialTime": 28228, "trial_type": "mouselab-mdp", "trial_index": 45, "time_elapsed": 1469720, "internal_node_id": "0.0-4.0-1.0-36.0"}}, {"uniqueid": "w94367310:a89523089", "current_trial": 46, "dateTime": 1691143635750, "trialdata": {"revealed_states": [], "clicked_states": ["12", "13", "14", "19", "15", "20", "22", "21", "16", "18", "17", "6", "5", "9"], "num_clicks_accrued": [0, 0, 0, 0, 0, 0, 0, 0, 0, 0, 0, 0, 0], "stateRewards": ["", -1, 1, -6, -1, 80, 23, 2, -11, 73, -81, 59, 1, 3, 5, -1, -26, 28, -3, 16, -59, -13, -50, -2, -2, 2, 15, -50, 86, 17, -4, 37, 35, 44], "withholdReward": false, "trial_id": "mdp_trial_38", "block": "test", "trialIndex": 39, "score": 53.400000000000006, "costs": -19.599999999999998, "simulationMode": [null, null, null, null, null], "rewards": [-1, 1, -6, -1, 80], "path": ["0", "0", "1", "2", "3", "4", "5"], "rt": [31837, 177, 119, 1042, 177], "actions": ["up", "up", "up", "right", "up"], "actionTimes": [34039, 34740, 35375, 36926, 37618], "queries": {"click": {"state": {"target": ["12", "13", "14", "19", "15", "20", "22", "21", "16", "18", "17", "6", "5", "9"], "time": [3847, 6421, 8667, 10675, 12676, 14700, 16561, 18477, 20451, 22348, 24172, 26682, 28642, 30571]}, "edge": {"target": [], "time": []}}, "mouseover": {"state": {"target": ["12", "13", "12", "13", "14", "19", "15", "14", "20", "22", "21", "19", "14", "15", "16", "18", "15", "17", "6", "5", "9"], "time": [2840, 2900, 3592, 4105, 6786, 9301, 11385, 13500, 14026, 15357, 17128, 18841, 18929, 18986, 19197, 21050, 22683, 22759, 26416, 27752, 29625]}, "edge": {"target": [], "time": []}}, "mouseout": {"state": {"target": ["32", "0", "12", "13", "12", "13", "14", "19", "14", "15", "14", "20", "20", "19", "22", "21", "19", "14", "15", "16", "18", "15", "17", "6", "5"], "time": [606, 2818, 2866, 3350, 4038, 6728, 9148, 10939, 11139, 13215, 13690, 14829, 15130, 15262, 16982, 18771, 18893, 18969, 19028, 20854, 22645, 22720, 24560, 27172, 29140]}, "edge": {"target": [], "time": []}}}, "displayed_time": "38.14", "trialTime": 39410, "trial_type": "mouselab-mdp", "trial_index": 46, "time_elapsed": 1509610, "internal_node_id": "0.0-4.0-1.0-37.0"}}, {"uniqueid": "w94367310:a89523089", "current_trial": 47, "dateTime": 1691143653892, "trialdata": {"revealed_states": [], "clicked_states": [], "num_clicks_accrued": [0, 0, 0, 0, 0, 0, 0, 0, 0, 0, 0, 0, 0], "stateRewards": ["", -2, 3, -1, 2, -72, 63, 20, -1, 62, -66, 39, -2, 3, -6, 14, 22, 47, 1, 8, -49, -1, -41, 2, 2, -6, -16, -64, -60, -34, 16, 54, 22, -7], "withholdReward": false, "trial_id": "mdp_trial_39", "block": "test", "trialIndex": 40, "score": -82, "costs": 0, "simulationMode": [null, null, null, null, null], "rewards": [2, 2, -6, -16, -64], "path": ["0", "0", "23", "24", "25", "26", "27"], "rt": [7174, 64, 161, 725, 111], "actions": ["left", "left", "left", "up", "up"], "actionTimes": [9121, 9706, 10401, 11643, 12279], "queries": {"click": {"state": {"target": [], "time": []}, "edge": {"target": [], "time": []}}, "mouseover": {"state": {"target": ["1", "23", "24", "25", "29", "27", "29", "26", "0"], "time": [3581, 3914, 4012, 4147, 4414, 4780, 5080, 6186, 6614]}, "edge": {"target": [], "time": []}}, "mouseout": {"state": {"target": ["9", "8", "10", "1", "23", "24", "25", "29", "27", "29", "26"], "time": [862, 913, 1030, 3715, 3979, 4080, 4230, 4432, 4931, 6163, 6208]}, "edge": {"target": [], "time": []}}}, "displayed_time": "16.28", "trialTime": 17635, "trial_type": "mouselab-mdp", "trial_index": 47, "time_elapsed": 1527752, "internal_node_id": "0.0-4.0-1.0-38.0"}}, {"uniqueid": "w94367310:a89523089", "current_trial": 48, "dateTime": 1691143673086, "trialdata": {"revealed_states": [], "clicked_states": ["14", "19", "20", "21"], "num_clicks_accrued": [0, 0, 0, 0, 0, 0, 0, 0, 0, 0, 0, 0, 0], "stateRewards": ["", -1, -4, -1, -5, -28, -23, -15, -15, -38, 59, -87, 2, 2, -5, 9, -55, -39, -71, -6, 85, -85, -11, -1, -2, 5, -10, 1, 25, 41, -4, 69, -35, 86], "withholdReward": false, "trial_id": "mdp_trial_40", "block": "test", "trialIndex": 41, "score": 72.4, "costs": -5.6, "simulationMode": [null, null, null, null, null], "rewards": [2, 2, -5, -6, 85], "path": ["0", "0", "12", "13", "14", "19", "20"], "rt": [9857, 132, 213, 512, 304], "actions": ["right", "right", "right", "down", "right"], "actionTimes": [12640, 13308, 14063, 15090, 15909], "queries": {"click": {"state": {"target": ["14", "19", "20", "21"], "time": [4473, 6176, 8072, 9918]}, "edge": {"target": [], "time": []}}, "mouseover": {"state": {"target": ["12", "13", "14", "15", "14", "19", "20", "21"], "time": [3390, 3722, 3872, 4122, 4205, 5313, 7431, 8688]}, "edge": {"target": [], "time": []}}, "mouseout": {"state": {"target": ["0", "12", "13", "14", "15", "14", "19", "19", "20"], "time": [3262, 3674, 3839, 3956, 4155, 4929, 6623, 6931, 8480]}, "edge": {"target": [], "time": []}}}, "displayed_time": "17.50", "trialTime": 18687, "trial_type": "mouselab-mdp", "trial_index": 48, "time_elapsed": 1546946, "internal_node_id": "0.0-4.0-1.0-39.0"}}, {"uniqueid": "w94367310:a89523089", "current_trial": 49, "dateTime": 1691143740024, "trialdata": {"rt": 66934, "response": {"Q0": "$-2 to $2", "Q1": "$-32 to $32", "Q2": "$-88 to $88", "Q3": "The cost for clicking on nodes varied between nodes.", "Q4": "Very motivated"}, "question_order": [0, 1, 2, 3, 4], "trial_id": "final_quiz_control", "trial_type": "survey-multi-choice", "trial_index": 49, "time_elapsed": 1613884, "internal_node_id": "0.0-4.0-2.0"}}, {"uniqueid": "w94367310:a89523089", "current_trial": 50, "dateTime": 1691143845672, "trialdata": {"rt": 105640, "response": {"Q0": "i wanted to reveal nodes as fast as i could", "Q1": "yes, i realised guessing work was not working and i started revealing fast", "Q2": "not very difficult. Time and the ability to remember was important"}, "trial_id": "self_report_control", "trial_type": "survey-text", "trial_index": 50, "time_elapsed": 1719532, "internal_node_id": "0.0-4.0-3.0"}}, {"uniqueid": "w94367310:a89523089", "current_trial": 51, "dateTime": 1691143864112, "trialdata": {"rt": 18436, "response": {"gender": "female", "age": "35", "colorblind": "0", "effort": "0"}, "trial_type": "survey-html-form", "trial_index": 51, "time_elapsed": 1737972, "internal_node_id": "0.0-4.0-4.0"}}, {"uniqueid": "w94367310:a89523089", "current_trial": 52, "dateTime": 1691143879640, "trialdata": {"rt": 15521, "response": {"Q0": "no", "Q1": "no", "Q2": ""}, "trial_type": "survey-text", "trial_index": 52, "time_elapsed": 1753500, "internal_node_id": "0.0-4.0-5.0"}}, {"uniqueid": "w94367310:a89523089", "current_trial": 53, "dateTime": 1691143883959, "trialdata": {"rt": 4316, "stimulus": "Press 'Finish HIT' in order to reach the completion code. Once the data has been saved, you will receive the code either in this window or in the original browser window where you started the experiment.\n", "response": 0, "trial_type": "html-button-response", "trial_index": 53, "time_elapsed": 1757819, "internal_node_id": "0.0-5.0"}}, {"uniqueid": "w94367310:a89523089", "current_trial": 54, "dateTime": 1691143884970, "trialdata": {"success": true, "trial_type": "fullscreen", "trial_index": 54, "time_elapsed": 1758830, "internal_node_id": "0.0-6.0"}}], "questiondata": {"params": {"CODE": "C6DMOQA6", "MIN_TIME": 14, "inspectCost": 1, "startTime": "Fri Aug 04 2023 11:42:03 GMT+0200 (South Africa Standard Time)", "bonusRate": 0.002, "variance": "1_2_4_8_44", "branching": "31123"}, "final_score": 1109.8}, "eventdata": [{"eventtype": "initialized", "value": null, "timestamp": 1691142122953, "interval": 0}, {"eventtype": "window_resize", "value": [1023, 738], "timestamp": 1691142122953, "interval": 0}, {"eventtype": "focus", "value": "on", "timestamp": 1691142123222, "interval": 269}, {"eventtype": "window_resize", "value": [1023, 738], "timestamp": 1691142123421, "interval": 199}, {"eventtype": "window_resize", "value": [1536, 864], "timestamp": 1691142133384, "interval": 9963}, {"eventtype": "window_resize", "value": [1023, 738], "timestamp": 1691142156437, "interval": 23053}, {"eventtype": "focus", "value": "off", "timestamp": 1691142159967, "interval": 3530}, {"eventtype": "focus", "value": "on", "timestamp": 1691142165169, "interval": 5202}, {"eventtype": "window_resize", "value": [1536, 864], "timestamp": 1691142168005, "interval": 2836}, {"eventtype": "window_resize", "value": [1023, 738], "timestamp": 1691143884389, "interval": 1716384}], "useragent": "Mozilla/5.0 (Windows NT 10.0; Win64; x64; rv:109.0) Gecko/20100101 Firefox/116.0", "mode": "live", "id": "w94367310:a89523089", "status": "user data saved", "Beginhit": "2023-08-04 09:42:01.492257", "Beginexp": "2023-08-04 09:42:15.67428", "Endhit": "2023-08-04 10:11:28.453303", "psiturkStatus": 3, "browser": "<redacted>", "platform": "windows", "language": "en-US"}