{"condition": 0, "counterbalance": 0, "assignmentId": "a51537445", "workerId": "w12167464", "hitId": "h50407051", "currenttrial": 55, "bonus": 0, "data": [{"uniqueid": "w12167464:a51537445", "current_trial": 0, "dateTime": 1691143101107, "trialdata": {"success": true, "trial_type": "fullscreen", "trial_index": 0, "time_elapsed": 3919, "internal_node_id": "0.0-0.0"}}, {"uniqueid": "w12167464:a51537445", "current_trial": 1, "dateTime": 1691143107556, "trialdata": {"view_history": [{"page_index": 0, "viewing_time": 6447}], "rt": 6447, "trial_id": "exp_instructions_control", "trial_type": "instructions", "trial_index": 1, "time_elapsed": 10369, "internal_node_id": "0.0-1.0"}}, {"uniqueid": "w12167464:a51537445", "current_trial": 2, "dateTime": 1691143112759, "trialdata": {"success": true, "trial_type": "fullscreen", "trial_index": 2, "time_elapsed": 15571, "internal_node_id": "0.0-2.0-0.0"}}, {"uniqueid": "w12167464:a51537445", "current_trial": 3, "dateTime": 1691143245495, "trialdata": {"view_history": [{"page_index": 0, "viewing_time": 59956}, {"page_index": 1, "viewing_time": 36006}, {"page_index": 2, "viewing_time": 18333}, {"page_index": 3, "viewing_time": 18440}], "rt": 132735, "trial_id": "mouselab_instructions_1_control", "trial_type": "instructions", "trial_index": 3, "time_elapsed": 148308, "internal_node_id": "0.0-2.0-1.0"}}, {"uniqueid": "w12167464:a51537445", "current_trial": 4, "dateTime": 1691143266356, "trialdata": {"revealed_states": [], "clicked_states": ["23", "24"], "num_clicks_accrued": [0, 0, 0, 0, 0, 0, 0, 0, 0, 0, 0, 0, 0], "stateRewards": ["", -10, -10, -10, -10, -10, 10, 10, 10, -10, -10, 10, -10, -10, -10, 10, 10, 10, 10, -10, 10, 10, -10, 10, 10, -10, -10, -10, -10, -10, -10, 10, 10, -10], "withholdReward": false, "trial_id": "practice_1", "block": "test", "trialIndex": 0, "score": -7.5, "costs": -1, "simulationMode": [null, null, null, null, null], "rewards": [10, 10, -10, -10, -10], "path": ["0", "0", "23", "24", "25", "26", "27"], "rt": [7234, 151, 3167, 643, 353], "actions": ["left", "left", "left", "up", "up"], "actionTimes": [10284, 10940, 14607, 15748, 16607], "queries": {"click": {"state": {"target": ["23", "24"], "time": [6210, 8378]}, "edge": {"target": [], "time": []}}, "mouseover": {"state": {"target": ["23", "28", "23", "24"], "time": [4238, 5255, 5740, 6837]}, "edge": {"target": [], "time": []}}, "mouseout": {"state": {"target": ["0", "23", "28", "23", "24"], "time": [4169, 4660, 5638, 6687, 11720]}, "edge": {"target": [], "time": []}}}, "displayed_time": "17.10", "trialTime": 20504, "trial_type": "mouselab-mdp", "trial_index": 4, "time_elapsed": 169168, "internal_node_id": "0.0-2.0-2.0-0.0"}}, {"uniqueid": "w12167464:a51537445", "current_trial": 5, "dateTime": 1691143298252, "trialdata": {"revealed_states": [], "clicked_states": ["23", "24", "25", "30", "32", "31", "33", "26", "28", "29", "27"], "num_clicks_accrued": [0, 0, 0, 0, 0, 0, 0, 0, 0, 0, 0, 0, 0], "stateRewards": ["", 10, -10, 10, 10, 10, 10, 10, -10, -10, -10, -10, -10, 10, -10, -10, -10, -10, -10, -10, -10, 10, 10, -10, 10, 10, 10, -10, -10, 10, 10, -10, -10, -10], "withholdReward": false, "trial_id": "practice_2", "block": "test", "trialIndex": 1, "score": 28, "costs": -5.5, "simulationMode": [null, null, null, null, null], "rewards": [-10, 10, 10, 10, 10], "path": ["0", "0", "23", "24", "25", "26", "29"], "rt": [22971, 74, 301, 248, 88], "actions": ["left", "left", "left", "up", "left"], "actionTimes": [24944, 25535, 26346, 27109, 27716], "queries": {"click": {"state": {"target": ["23", "24", "25", "30", "32", "31", "33", "26", "28", "29", "27"], "time": [3515, 4856, 6147, 7460, 8781, 10540, 13092, 17945, 19590, 20973, 22763]}, "edge": {"target": [], "time": []}}, "mouseover": {"state": {"target": ["23", "24", "25", "30", "32", "31", "33", "26", "28", "29", "27"], "time": [2750, 4048, 5681, 7014, 8263, 10196, 12663, 17295, 18428, 20278, 21909]}, "edge": {"target": [], "time": []}}, "mouseout": {"state": {"target": ["25", "1", "12", "0", "23", "24", "25", "30", "30", "32", "31", "33", "26", "28", "26", "29", "27", "8", "3", "4", "22"], "time": [661, 732, 1232, 2549, 3965, 5447, 6697, 7592, 8031, 8909, 10946, 13225, 18362, 20077, 20162, 21727, 29193, 29225, 29242, 29258, 29676]}, "edge": {"target": [], "time": []}}}, "displayed_time": "28.24", "trialTime": 31698, "trial_type": "mouselab-mdp", "trial_index": 5, "time_elapsed": 201065, "internal_node_id": "0.0-2.0-2.0-1.0"}}, {"uniqueid": "w12167464:a51537445", "current_trial": 6, "dateTime": 1691143317568, "trialdata": {"view_history": [{"page_index": 0, "viewing_time": 13335}, {"page_index": 1, "viewing_time": 5977}], "rt": 19313, "trial_id": "mouselab_instructions_2_control", "trial_type": "instructions", "trial_index": 6, "time_elapsed": 220381, "internal_node_id": "0.0-2.0-3.0"}}, {"uniqueid": "w12167464:a51537445", "current_trial": 7, "dateTime": 1691143356079, "trialdata": {"rt": 38507, "response": {"Q0": "The cost for clicking on nodes may vary between nodes.", "Q1": "The better I perform the higher my bonus will be.", "Q2": "No, the amount of cash at each node of the web may be different each time.", "Q3": "To get the highest total score.", "Q4": "Only before moving the spider.", "Q5": "3 seconds"}, "question_order": [0, 1, 2, 3, 4, 5], "correct": {"Q0": "The cost for clicking on nodes may vary between nodes.", "Q1": "The better I perform the higher my bonus will be.", "Q2": "No, the amount of cash at each node of the web may be different each time.", "Q3": "To get the highest total score.", "Q4": "Only before moving the spider.", "Q5": "3 seconds"}, "trial_id": "mouselab_quiz_control", "trial_type": "survey-multi-choice", "trial_index": 7, "time_elapsed": 258892, "internal_node_id": "0.0-2.0-4.0"}}, {"uniqueid": "w12167464:a51537445", "current_trial": 8, "dateTime": 1691143361994, "trialdata": {"rt": 5908, "stimulus": "\n<h1> Get ready to start the game! </h1>\n\nThank you for reading the instructions. Get ready start with the 40 rounds of this game.\n<br><br>\nIf you need to take a break, feel free to take one after the end of a round, before continuing to the next one.\n<br><br>\nRemember, the more money the spider gets, the bigger your bonus will be!\n<br><br>\n<div style='text-align: center;'>Press <code>space</code> to begin.</div>\n\n<br><br>\n(If, at any point, the <code>space</code> key does not take you to the next page, click once on the text and try again.)", "response": " ", "trial_id": "mdp_ready", "trial_type": "html-keyboard-response", "trial_index": 8, "time_elapsed": 264806, "internal_node_id": "0.0-4.0-0.0"}}, {"uniqueid": "w12167464:a51537445", "current_trial": 9, "dateTime": 1691143386157, "trialdata": {"revealed_states": [], "clicked_states": ["23", "24", "25", "30", "32", "31"], "num_clicks_accrued": [0, 0, 0, 0, 0, 0, 0, 0, 0, 0, 0, 0, 0], "stateRewards": ["", -2, 1, -5, 2, -68, 80, 33, 10, 67, -59, 20, -1, -3, 3, 14, 74, -2, 24, -16, 63, 80, 46, -1, 4, 6, 12, 83, -38, -43, -4, 43, 14, -79], "withholdReward": false, "trial_id": "mdp_trial_1", "block": "test", "trialIndex": 2, "score": 39.6, "costs": -8.4, "simulationMode": [null, null, null, null, null], "rewards": [-1, 4, 6, -4, 43], "path": ["0", "0", "23", "24", "25", "30", "31"], "rt": [15064, 84, 245, 104, 87], "actions": ["left", "left", "left", "down", "right"], "actionTimes": [16906, 17525, 18269, 18894, 19492], "queries": {"click": {"state": {"target": ["23", "24", "25", "30", "32", "31"], "time": [3687, 5760, 7572, 9472, 11576, 13520]}, "edge": {"target": [], "time": []}}, "mouseover": {"state": {"target": ["23", "24", "25", "30", "32", "31", "31", "30", "33", "33", "13", "19"], "time": [2252, 4241, 6358, 8308, 10640, 12100, 12572, 14039, 14072, 14689, 16111, 16155]}, "edge": {"target": [], "time": []}}, "mouseout": {"state": {"target": ["7", "1", "23", "24", "25", "30", "32", "31", "31", "30", "33", "33", "13"], "time": [326, 342, 4141, 6292, 8233, 10207, 11702, 12139, 13651, 14056, 14105, 16041, 16125]}, "edge": {"target": [], "time": []}}}, "displayed_time": "20.01", "trialTime": 23953, "trial_type": "mouselab-mdp", "trial_index": 9, "time_elapsed": 288969, "internal_node_id": "0.0-4.0-1.0-0.0"}}, {"uniqueid": "w12167464:a51537445", "current_trial": 10, "dateTime": 1691143403697, "trialdata": {"revealed_states": [], "clicked_states": [], "num_clicks_accrued": [0, 0, 0, 0, 0, 0, 0, 0, 0, 0, 0, 0, 0], "stateRewards": ["", 1, 1, -3, 2, 22, -25, -11, -5, 50, 49, 3, 1, -1, 8, 14, -85, -30, 57, -6, -39, -16, 59, -2, -1, 5, 5, 59, -16, 8, 4, 67, 56, -9], "withholdReward": false, "trial_id": "mdp_trial_2", "block": "test", "trialIndex": 3, "score": 73, "costs": 0, "simulationMode": [null, null, null, null, null], "rewards": [-2, -1, 5, 4, 67], "path": ["0", "0", "23", "24", "25", "30", "31"], "rt": [5221, 232, 151, 31, 106], "actions": ["left", "left", "left", "down", "right"], "actionTimes": [7112, 7839, 8491, 9038, 9679], "queries": {"click": {"state": {"target": [], "time": []}, "edge": {"target": [], "time": []}}, "mouseover": {"state": {"target": ["0", "23", "24", "23"], "time": [2208, 2356, 3719, 4640]}, "edge": {"target": [], "time": []}}, "mouseout": {"state": {"target": ["19", "17", "15", "18", "0", "23", "24", "23", "16", "1", "24", "23", "0", "18", "1", "23", "0"], "time": [536, 739, 1040, 1090, 2227, 3358, 4589, 12738, 12805, 12971, 13755, 13771, 14054, 14255, 14854, 15255, 15304]}, "edge": {"target": [], "time": []}}}, "displayed_time": "15.89", "trialTime": 17348, "trial_type": "mouselab-mdp", "trial_index": 10, "time_elapsed": 306510, "internal_node_id": "0.0-4.0-1.0-1.0"}}, {"uniqueid": "w12167464:a51537445", "current_trial": 11, "dateTime": 1691143423616, "trialdata": {"revealed_states": [], "clicked_states": [], "num_clicks_accrued": [0, 0, 0, 0, 0, 0, 0, 0, 0, 0, 0, 0, 0], "stateRewards": ["", 2, -1, 1, 10, -52, 86, -22, -2, -14, -63, 38, 1, 3, 7, -8, 11, -32, -27, 9, -71, 40, -87, -2, -1, 5, -7, 12, 31, -57, 13, 86, -58, 29], "withholdReward": false, "trial_id": "mdp_trial_3", "block": "test", "trialIndex": 4, "score": 101, "costs": 0, "simulationMode": [null, null, null, null, null], "rewards": [-2, -1, 5, 13, 86], "path": ["0", "0", "23", "24", "25", "30", "31"], "rt": [1513, 51, 98, 49, 105], "actions": ["left", "left", "left", "down", "right"], "actionTimes": [4719, 5290, 5920, 6503, 7127], "queries": {"click": {"state": {"target": [], "time": []}, "edge": {"target": [], "time": []}}, "mouseover": {"state": {"target": ["23"], "time": [4138]}, "edge": {"target": [], "time": []}}, "mouseout": {"state": {"target": ["0", "0"], "time": [1106, 4038]}, "edge": {"target": [], "time": []}}}, "displayed_time": "17.21", "trialTime": 19719, "trial_type": "mouselab-mdp", "trial_index": 11, "time_elapsed": 326429, "internal_node_id": "0.0-4.0-1.0-2.0"}}, {"uniqueid": "w12167464:a51537445", "current_trial": 12, "dateTime": 1691143441702, "trialdata": {"revealed_states": [], "clicked_states": [], "num_clicks_accrued": [0, 0, 0, 0, 0, 0, 0, 0, 0, 0, 0, 0, 0], "stateRewards": ["", -2, -4, -6, 12, -58, -70, -80, 2, 16, -88, -62, 1, 2, -5, 11, 77, -35, -44, -5, 18, -83, 87, 1, -3, -5, 13, -44, -21, -86, 10, -52, 8, 29], "withholdReward": false, "trial_id": "mdp_trial_4", "block": "test", "trialIndex": 5, "score": -49, "costs": 0, "simulationMode": [null, null, null, null, null], "rewards": [1, -3, -5, 10, -52], "path": ["0", "0", "23", "24", "25", "30", "31"], "rt": [1023, 158, 238, 71, 153], "actions": ["left", "left", "left", "down", "right"], "actionTimes": [2891, 3586, 4331, 4914, 5580], "queries": {"click": {"state": {"target": [], "time": []}, "edge": {"target": [], "time": []}}, "mouseover": {"state": {"target": [], "time": []}, "edge": {"target": [], "time": []}}, "mouseout": {"state": {"target": ["23"], "time": [1026]}, "edge": {"target": [], "time": []}}}, "displayed_time": "15.87", "trialTime": 17880, "trial_type": "mouselab-mdp", "trial_index": 12, "time_elapsed": 344514, "internal_node_id": "0.0-4.0-1.0-3.0"}}, {"uniqueid": "w12167464:a51537445", "current_trial": 13, "dateTime": 1691143459123, "trialdata": {"revealed_states": [], "clicked_states": [], "num_clicks_accrued": [0, 0, 0, 0, 0, 0, 0, 0, 0, 0, 0, 0, 0], "stateRewards": ["", -2, -4, 4, -11, -63, -60, -7, 2, -14, 81, -43, -1, -1, -5, 7, 10, 69, 40, 8, -83, 52, 60, 1, 2, 5, -5, 16, 64, 14, -3, 29, 7, -51], "withholdReward": false, "trial_id": "mdp_trial_5", "block": "test", "trialIndex": 6, "score": 34, "costs": 0, "simulationMode": [null, null, null, null, null], "rewards": [1, 2, 5, -3, 29], "path": ["0", "0", "23", "24", "25", "30", "31"], "rt": [1275, 130, 97, 61, 278], "actions": ["left", "left", "left", "down", "right"], "actionTimes": [2547, 3174, 3788, 4369, 5152], "queries": {"click": {"state": {"target": [], "time": []}, "edge": {"target": [], "time": []}}, "mouseover": {"state": {"target": [], "time": []}, "edge": {"target": [], "time": []}}, "mouseout": {"state": {"target": [], "time": []}, "edge": {"target": [], "time": []}}}, "displayed_time": "15.27", "trialTime": 17203, "trial_type": "mouselab-mdp", "trial_index": 13, "time_elapsed": 361935, "internal_node_id": "0.0-4.0-1.0-4.0"}}, {"uniqueid": "w12167464:a51537445", "current_trial": 14, "dateTime": 1691143492357, "trialdata": {"revealed_states": [], "clicked_states": [], "num_clicks_accrued": [0, 0, 0, 0, 0, 0, 0, 0, 0, 0, 0, 0, 0], "stateRewards": ["", -2, -1, -2, -15, 87, 57, 29, -10, 77, -80, -7, 1, -3, 6, 14, -11, 87, -59, 4, -71, 16, -11, 2, 2, -7, 2, -47, 61, 50, 14, -20, 17, 81], "withholdReward": false, "trial_id": "mdp_trial_6", "block": "test", "trialIndex": 7, "score": -3, "costs": 0, "simulationMode": [null, null, null, null, null], "rewards": [1, -3, 6, 4, -11], "path": ["0", "0", "12", "13", "14", "19", "22"], "rt": [1373, 123, 129, 81, 141], "actions": ["right", "right", "right", "down", "left"], "actionTimes": [5476, 6107, 6748, 7349, 8008], "queries": {"click": {"state": {"target": [], "time": []}, "edge": {"target": [], "time": []}}, "mouseover": {"state": {"target": [], "time": []}, "edge": {"target": [], "time": []}}, "mouseout": {"state": {"target": [], "time": []}, "edge": {"target": [], "time": []}}}, "displayed_time": "18.11", "trialTime": 33018, "trial_type": "mouselab-mdp", "trial_index": 14, "time_elapsed": 395169, "internal_node_id": "0.0-4.0-1.0-5.0"}}, {"uniqueid": "w12167464:a51537445", "current_trial": 15, "dateTime": 1691143513857, "trialdata": {"revealed_states": [], "clicked_states": [], "num_clicks_accrued": [0, 0, 0, 0, 0, 0, 0, 0, 0, 0, 0, 0, 0], "stateRewards": ["", 1, -1, -7, -7, -22, 15, -13, 13, 26, -32, 38, -1, 1, -7, -4, 16, -62, 86, 12, -54, 56, 64, -2, -1, 6, 14, -57, 37, 62, -6, -25, 50, -70], "withholdReward": false, "trial_id": "mdp_trial_7", "block": "test", "trialIndex": 8, "score": -28, "costs": 0, "simulationMode": [null, null, null, null, null], "rewards": [-2, -1, 6, -6, -25], "path": ["0", "0", "23", "24", "25", "30", "31"], "rt": [792, 75, 119, 55, 139], "actions": ["left", "left", "left", "down", "right"], "actionTimes": [6077, 6668, 7296, 7865, 8533], "queries": {"click": {"state": {"target": [], "time": []}, "edge": {"target": [], "time": []}}, "mouseover": {"state": {"target": [], "time": []}, "edge": {"target": [], "time": []}}, "mouseout": {"state": {"target": [], "time": []}, "edge": {"target": [], "time": []}}}, "displayed_time": "19.29", "trialTime": 21286, "trial_type": "mouselab-mdp", "trial_index": 15, "time_elapsed": 416669, "internal_node_id": "0.0-4.0-1.0-6.0"}}, {"uniqueid": "w12167464:a51537445", "current_trial": 16, "dateTime": 1691143537356, "trialdata": {"revealed_states": [], "clicked_states": [], "num_clicks_accrued": [0, 0, 0, 0, 0, 0, 0, 0, 0, 0, 0, 0, 0], "stateRewards": ["", 2, 3, -2, -8, -8, -41, 74, 15, -23, -80, 1, 1, 3, 3, -15, -63, -78, 67, 13, 75, -41, 86, 2, -2, 6, -3, -8, -49, 50, -6, 83, 74, 80], "withholdReward": false, "trial_id": "mdp_trial_8", "block": "test", "trialIndex": 9, "score": 83, "costs": 0, "simulationMode": [null, null, null, null, null], "rewards": [2, -2, 6, -6, 83], "path": ["0", "0", "23", "24", "25", "30", "31"], "rt": [519, 311, 138, 88, 160], "actions": ["left", "left", "left", "down", "right"], "actionTimes": [5812, 6614, 7258, 7860, 8531], "queries": {"click": {"state": {"target": [], "time": []}, "edge": {"target": [], "time": []}}, "mouseover": {"state": {"target": [], "time": []}, "edge": {"target": [], "time": []}}, "mouseout": {"state": {"target": ["0"], "time": [2555]}, "edge": {"target": [], "time": []}}}, "displayed_time": "19.31", "trialTime": 23285, "trial_type": "mouselab-mdp", "trial_index": 16, "time_elapsed": 440169, "internal_node_id": "0.0-4.0-1.0-7.0"}}, {"uniqueid": "w12167464:a51537445", "current_trial": 17, "dateTime": 1691143556617, "trialdata": {"revealed_states": [], "clicked_states": [], "num_clicks_accrued": [0, 0, 0, 0, 0, 0, 0, 0, 0, 0, 0, 0, 0], "stateRewards": ["", -2, 2, -2, -7, -50, -62, -45, 7, 36, -24, -72, -1, -1, 8, -1, -67, 20, -52, 2, 35, -50, 80, -1, 1, 6, -6, -70, 6, 88, 8, -47, 74, -19], "withholdReward": false, "trial_id": "mdp_trial_9", "block": "test", "trialIndex": 10, "score": -33, "costs": 0, "simulationMode": [null, null, null, null, null], "rewards": [-1, 1, 6, 8, -47], "path": ["0", "0", "23", "24", "25", "30", "31"], "rt": [621, 144, 138, 43, 130], "actions": ["left", "left", "left", "down", "right"], "actionTimes": [2617, 3278, 3938, 4493, 5131], "queries": {"click": {"state": {"target": [], "time": []}, "edge": {"target": [], "time": []}}, "mouseover": {"state": {"target": [], "time": []}, "edge": {"target": [], "time": []}}, "mouseout": {"state": {"target": ["0"], "time": [1216]}, "edge": {"target": [], "time": []}}}, "displayed_time": "16.00", "trialTime": 19047, "trial_type": "mouselab-mdp", "trial_index": 17, "time_elapsed": 459430, "internal_node_id": "0.0-4.0-1.0-8.0"}}, {"uniqueid": "w12167464:a51537445", "current_trial": 18, "dateTime": 1691143575477, "trialdata": {"revealed_states": [], "clicked_states": [], "num_clicks_accrued": [0, 0, 0, 0, 0, 0, 0, 0, 0, 0, 0, 0, 0], "stateRewards": ["", 2, 4, -5, 7, 81, 35, 6, 11, 14, -72, 42, -1, 2, 3, -7, -77, -44, -40, -15, -85, 51, -32, -2, -1, -5, 7, -74, 47, 52, 16, -49, 48, -46], "withholdReward": false, "trial_id": "mdp_trial_10", "block": "test", "trialIndex": 11, "score": -41, "costs": 0, "simulationMode": [null, null, null, null, null], "rewards": [-2, -1, -5, 16, -49], "path": ["0", "0", "23", "24", "25", "30", "31"], "rt": [887, 140, 174, 84, 123], "actions": ["left", "left", "left", "down", "right"], "actionTimes": [2403, 3059, 3743, 4337, 4977], "queries": {"click": {"state": {"target": [], "time": []}, "edge": {"target": [], "time": []}}, "mouseover": {"state": {"target": [], "time": []}, "edge": {"target": [], "time": []}}, "mouseout": {"state": {"target": [], "time": []}, "edge": {"target": [], "time": []}}}, "displayed_time": "15.52", "trialTime": 18647, "trial_type": "mouselab-mdp", "trial_index": 18, "time_elapsed": 478290, "internal_node_id": "0.0-4.0-1.0-9.0"}}, {"uniqueid": "w12167464:a51537445", "current_trial": 19, "dateTime": 1691143600819, "trialdata": {"revealed_states": [], "clicked_states": [], "num_clicks_accrued": [0, 0, 0, 0, 0, 0, 0, 0, 0, 0, 0, 0, 0], "stateRewards": ["", 2, -2, -3, 10, -4, -1, -11, -8, -9, -36, -78, 2, 1, 7, -7, 44, -1, -31, -1, 26, 47, 83, 2, -4, -4, -6, -52, -76, -81, -1, -59, 45, 67], "withholdReward": false, "trial_id": "mdp_trial_11", "block": "test", "trialIndex": 12, "score": 92, "costs": 0, "simulationMode": [null, null, null, null, null], "rewards": [2, 1, 7, -1, 83], "path": ["0", "0", "12", "13", "14", "19", "22"], "rt": [987, 50, 72, 39, 119], "actions": ["right", "right", "right", "down", "left"], "actionTimes": [2835, 3380, 3987, 4536, 5166], "queries": {"click": {"state": {"target": [], "time": []}, "edge": {"target": [], "time": []}}, "mouseover": {"state": {"target": [], "time": []}, "edge": {"target": [], "time": []}}, "mouseout": {"state": {"target": [], "time": []}, "edge": {"target": [], "time": []}}}, "displayed_time": "15.85", "trialTime": 25121, "trial_type": "mouselab-mdp", "trial_index": 19, "time_elapsed": 503631, "internal_node_id": "0.0-4.0-1.0-10.0"}}, {"uniqueid": "w12167464:a51537445", "current_trial": 20, "dateTime": 1691143630781, "trialdata": {"revealed_states": [], "clicked_states": [], "num_clicks_accrued": [0, 0, 0, 0, 0, 0, 0, 0, 0, 0, 0, 0, 0], "stateRewards": ["", 2, 3, 6, -12, -29, 12, 87, 4, 35, -30, 67, 2, 3, -5, -9, 44, 69, -8, 1, 45, -8, 28, -2, -1, -8, 11, -12, -5, 81, 9, 87, 82, 88], "withholdReward": false, "trial_id": "mdp_trial_12", "block": "test", "trialIndex": 13, "score": 29, "costs": 0, "simulationMode": [null, null, null, null, null], "rewards": [2, 3, -5, 1, 28], "path": ["0", "0", "12", "13", "14", "19", "22"], "rt": [1210, 89, 116, 81, 121], "actions": ["right", "right", "right", "down", "left"], "actionTimes": [2855, 3443, 4071, 4687, 5324], "queries": {"click": {"state": {"target": [], "time": []}, "edge": {"target": [], "time": []}}, "mouseover": {"state": {"target": [], "time": []}, "edge": {"target": [], "time": []}}, "mouseout": {"state": {"target": [], "time": []}, "edge": {"target": [], "time": []}}}, "displayed_time": "15.65", "trialTime": 29746, "trial_type": "mouselab-mdp", "trial_index": 20, "time_elapsed": 533593, "internal_node_id": "0.0-4.0-1.0-11.0"}}, {"uniqueid": "w12167464:a51537445", "current_trial": 21, "dateTime": 1691143654522, "trialdata": {"revealed_states": [], "clicked_states": [], "num_clicks_accrued": [0, 0, 0, 0, 0, 0, 0, 0, 0, 0, 0, 0, 0], "stateRewards": ["", -2, -2, -7, -13, -10, 49, -68, -1, 84, 70, 88, 1, 4, 4, 12, -57, 25, 30, 8, -1, -77, 57, 2, 3, 2, 3, -18, -80, 23, -15, -41, 70, 11], "withholdReward": false, "trial_id": "mdp_trial_13", "block": "test", "trialIndex": 14, "score": -49, "costs": 0, "simulationMode": [null, null, null, null, null], "rewards": [2, 3, 2, -15, -41], "path": ["0", "0", "23", "24", "25", "30", "31"], "rt": [916, 120, 96, 45, 177], "actions": ["left", "left", "left", "down", "right"], "actionTimes": [2075, 2711, 3319, 3884, 4566], "queries": {"click": {"state": {"target": [], "time": []}, "edge": {"target": [], "time": []}}, "mouseover": {"state": {"target": [], "time": []}, "edge": {"target": [], "time": []}}, "mouseout": {"state": {"target": [], "time": []}, "edge": {"target": [], "time": []}}}, "displayed_time": "15.16", "trialTime": 23531, "trial_type": "mouselab-mdp", "trial_index": 21, "time_elapsed": 557335, "internal_node_id": "0.0-4.0-1.0-12.0"}}, {"uniqueid": "w12167464:a51537445", "current_trial": 22, "dateTime": 1691143672357, "trialdata": {"revealed_states": [], "clicked_states": [], "num_clicks_accrued": [0, 0, 0, 0, 0, 0, 0, 0, 0, 0, 0, 0, 0], "stateRewards": ["", 1, -2, -8, -3, 31, -84, -55, -14, 15, -58, 17, -2, -3, 7, 7, -12, 48, 67, 4, -44, -68, 46, 2, 3, -5, -7, 76, 27, 5, 11, 57, 52, 59], "withholdReward": false, "trial_id": "mdp_trial_14", "block": "test", "trialIndex": 15, "score": 52, "costs": 0, "simulationMode": [null, null, null, null, null], "rewards": [-2, -3, 7, 4, 46], "path": ["0", "0", "12", "13", "14", "19", "22"], "rt": [1636, 113, 146, 12, 109], "actions": ["right", "right", "right", "down", "left"], "actionTimes": [3992, 4596, 5262, 5795, 6424], "queries": {"click": {"state": {"target": [], "time": []}, "edge": {"target": [], "time": []}}, "mouseover": {"state": {"target": [], "time": []}, "edge": {"target": [], "time": []}}, "mouseout": {"state": {"target": [], "time": []}, "edge": {"target": [], "time": []}}}, "displayed_time": "16.36", "trialTime": 17614, "trial_type": "mouselab-mdp", "trial_index": 22, "time_elapsed": 575170, "internal_node_id": "0.0-4.0-1.0-13.0"}}, {"uniqueid": "w12167464:a51537445", "current_trial": 23, "dateTime": 1691143689505, "trialdata": {"revealed_states": [], "clicked_states": [], "num_clicks_accrued": [0, 0, 0, 0, 0, 0, 0, 0, 0, 0, 0, 0, 0], "stateRewards": ["", -2, -3, 7, -13, 60, 9, 37, -6, 37, 20, 1, 2, -2, -8, 6, -80, -31, -10, -7, 70, -65, -44, -1, 1, 7, 6, -11, 73, -85, 16, -21, 47, 34], "withholdReward": false, "trial_id": "mdp_trial_15", "block": "test", "trialIndex": 16, "score": -59, "costs": 0, "simulationMode": [null, null, null, null, null], "rewards": [2, -2, -8, -7, -44], "path": ["0", "0", "12", "13", "14", "19", "22"], "rt": [1254, 98, 37, 631, 126], "actions": ["right", "right", "right", "down", "left"], "actionTimes": [2466, 3077, 3632, 4777, 5422], "queries": {"click": {"state": {"target": [], "time": []}, "edge": {"target": [], "time": []}}, "mouseover": {"state": {"target": [], "time": []}, "edge": {"target": [], "time": []}}, "mouseout": {"state": {"target": [], "time": []}, "edge": {"target": [], "time": []}}}, "displayed_time": "15.21", "trialTime": 16928, "trial_type": "mouselab-mdp", "trial_index": 23, "time_elapsed": 592317, "internal_node_id": "0.0-4.0-1.0-14.0"}}, {"uniqueid": "w12167464:a51537445", "current_trial": 24, "dateTime": 1691143768029, "trialdata": {"revealed_states": [], "clicked_states": [], "num_clicks_accrued": [0, 0, 0, 0, 0, 0, 0, 0, 0, 0, 0, 0, 0], "stateRewards": ["", -1, 4, -3, 3, 57, -61, 5, -11, 23, -1, 34, -2, -4, -1, -13, 27, 38, -36, 4, -45, 21, 88, 1, -2, -1, 1, -69, -5, -78, -12, -9, 38, -54], "withholdReward": false, "trial_id": "mdp_trial_16", "block": "test", "trialIndex": 17, "score": -23, "costs": 0, "simulationMode": [null, null, null, null, null], "rewards": [1, -2, -1, -12, -9], "path": ["0", "0", "23", "24", "25", "30", "31"], "rt": [1009, 123, 72, 26, 104], "actions": ["left", "left", "left", "down", "right"], "actionTimes": [3612, 4236, 4818, 5340, 5968], "queries": {"click": {"state": {"target": [], "time": []}, "edge": {"target": [], "time": []}}, "mouseover": {"state": {"target": [], "time": []}, "edge": {"target": [], "time": []}}, "mouseout": {"state": {"target": [], "time": []}, "edge": {"target": [], "time": []}}}, "displayed_time": "16.60", "trialTime": 78307, "trial_type": "mouselab-mdp", "trial_index": 24, "time_elapsed": 670841, "internal_node_id": "0.0-4.0-1.0-15.0"}}, {"uniqueid": "w12167464:a51537445", "current_trial": 25, "dateTime": 1691143804760, "trialdata": {"revealed_states": [], "clicked_states": [], "num_clicks_accrued": [0, 0, 0, 0, 0, 0, 0, 0, 0, 0, 0, 0, 0], "stateRewards": ["", -2, 2, 8, -6, -25, 3, 87, 2, -62, -2, 74, -2, -1, 2, -1, 79, 49, -37, -14, 5, 67, -9, -1, 2, -2, 5, 15, 38, 32, -14, -38, -38, 30], "withholdReward": false, "trial_id": "mdp_trial_17", "block": "test", "trialIndex": 18, "score": -53, "costs": 0, "simulationMode": [null, null, null, null, null], "rewards": [-1, 2, -2, -14, -38], "path": ["0", "0", "23", "24", "25", "30", "31"], "rt": [732, 195, 48, 12, 126], "actions": ["left", "left", "left", "down", "right"], "actionTimes": [1765, 2450, 3022, 3566, 4214], "queries": {"click": {"state": {"target": [], "time": []}, "edge": {"target": [], "time": []}}, "mouseover": {"state": {"target": [], "time": []}, "edge": {"target": [], "time": []}}, "mouseout": {"state": {"target": [], "time": []}, "edge": {"target": [], "time": []}}}, "displayed_time": "15.03", "trialTime": 36499, "trial_type": "mouselab-mdp", "trial_index": 25, "time_elapsed": 707572, "internal_node_id": "0.0-4.0-1.0-16.0"}}, {"uniqueid": "w12167464:a51537445", "current_trial": 26, "dateTime": 1691143821802, "trialdata": {"revealed_states": [], "clicked_states": [], "num_clicks_accrued": [0, 0, 0, 0, 0, 0, 0, 0, 0, 0, 0, 0, 0], "stateRewards": ["", 2, 4, -6, -13, -75, -81, 30, 7, 5, 59, -65, -1, -1, 7, 14, -38, 36, -41, 1, -54, -5, 64, 2, -1, 5, 6, -19, 79, 11, 16, -33, -50, 58], "withholdReward": false, "trial_id": "mdp_trial_18", "block": "test", "trialIndex": 19, "score": 70, "costs": 0, "simulationMode": [null, null, null, null, null], "rewards": [-1, -1, 7, 1, 64], "path": ["0", "0", "12", "13", "14", "19", "22"], "rt": [803, 10, 31, 10, 175], "actions": ["right", "right", "right", "down", "left"], "actionTimes": [1972, 2495, 3035, 3562, 4261], "queries": {"click": {"state": {"target": [], "time": []}, "edge": {"target": [], "time": []}}, "mouseover": {"state": {"target": [], "time": []}, "edge": {"target": [], "time": []}}, "mouseout": {"state": {"target": [], "time": []}, "edge": {"target": [], "time": []}}}, "displayed_time": "15.17", "trialTime": 16814, "trial_type": "mouselab-mdp", "trial_index": 26, "time_elapsed": 724614, "internal_node_id": "0.0-4.0-1.0-17.0"}}, {"uniqueid": "w12167464:a51537445", "current_trial": 27, "dateTime": 1691143839667, "trialdata": {"revealed_states": [], "clicked_states": [], "num_clicks_accrued": [0, 0, 0, 0, 0, 0, 0, 0, 0, 0, 0, 0, 0], "stateRewards": ["", 2, 3, 8, 11, 25, -80, 6, -4, -56, 84, -23, -2, -4, -3, 4, -51, -9, -61, -15, -64, 67, -35, 1, -1, -7, -6, 83, 59, -15, 12, -79, 56, 41], "withholdReward": false, "trial_id": "mdp_trial_19", "block": "test", "trialIndex": 20, "score": -66, "costs": 0, "simulationMode": [null, null, null, null, null], "rewards": [-2, -4, -3, 4, -61], "path": ["0", "0", "12", "13", "14", "15", "18"], "rt": [1236, 62, 102, 58, 55], "actions": ["right", "right", "right", "up", "left"], "actionTimes": [2989, 3565, 4190, 4760, 5341], "queries": {"click": {"state": {"target": [], "time": []}, "edge": {"target": [], "time": []}}, "mouseover": {"state": {"target": [], "time": []}, "edge": {"target": [], "time": []}}, "mouseout": {"state": {"target": [], "time": []}, "edge": {"target": [], "time": []}}}, "displayed_time": "15.76", "trialTime": 17634, "trial_type": "mouselab-mdp", "trial_index": 27, "time_elapsed": 742479, "internal_node_id": "0.0-4.0-1.0-18.0"}}, {"uniqueid": "w12167464:a51537445", "current_trial": 28, "dateTime": 1691143864512, "trialdata": {"revealed_states": [], "clicked_states": [], "num_clicks_accrued": [0, 0, 0, 0, 0, 0, 0, 0, 0, 0, 0, 0, 0], "stateRewards": ["", 2, -3, 5, -14, -63, -9, -24, -11, -54, -43, 68, 2, -2, -4, 7, -64, 30, 47, 12, -74, 11, 86, 1, -3, 3, 10, -71, -42, -52, -1, -29, -16, 69], "withholdReward": false, "trial_id": "mdp_trial_20", "block": "test", "trialIndex": 21, "score": -29, "costs": 0, "simulationMode": [null, null, null, null, null], "rewards": [1, -3, 3, -1, -29], "path": ["0", "0", "23", "24", "25", "30", "31"], "rt": [865, 490, 160, 48, 123], "actions": ["left", "left", "left", "down", "right"], "actionTimes": [5844, 6853, 7524, 8099, 8755], "queries": {"click": {"state": {"target": [], "time": []}, "edge": {"target": [], "time": []}}, "mouseover": {"state": {"target": [], "time": []}, "edge": {"target": [], "time": []}}, "mouseout": {"state": {"target": [], "time": []}, "edge": {"target": [], "time": []}}}, "displayed_time": "18.99", "trialTime": 24612, "trial_type": "mouselab-mdp", "trial_index": 28, "time_elapsed": 767325, "internal_node_id": "0.0-4.0-1.0-19.0"}}, {"uniqueid": "w12167464:a51537445", "current_trial": 29, "dateTime": 1691143897894, "trialdata": {"revealed_states": [], "clicked_states": [], "num_clicks_accrued": [0, 0, 0, 0, 0, 0, 0, 0, 0, 0, 0, 0, 0], "stateRewards": ["", 1, 2, -3, -6, 50, -7, 7, -7, -80, 21, -1, 2, 2, 4, -1, 33, 84, 1, 14, -53, 81, 6, -2, -2, -3, -9, -87, -38, -59, -5, -74, -3, -71], "withholdReward": false, "trial_id": "mdp_trial_21", "block": "test", "trialIndex": 22, "score": 28, "costs": 0, "simulationMode": [null, null, null, null, null], "rewards": [2, 2, 4, 14, 6], "path": ["0", "0", "12", "13", "14", "19", "22"], "rt": [829, 97, 142, 50, 165], "actions": ["right", "right", "right", "down", "left"], "actionTimes": [1784, 2400, 3060, 3620, 4299], "queries": {"click": {"state": {"target": [], "time": []}, "edge": {"target": [], "time": []}}, "mouseover": {"state": {"target": [], "time": []}, "edge": {"target": [], "time": []}}, "mouseout": {"state": {"target": [], "time": []}, "edge": {"target": [], "time": []}}}, "displayed_time": "14.96", "trialTime": 33154, "trial_type": "mouselab-mdp", "trial_index": 29, "time_elapsed": 800706, "internal_node_id": "0.0-4.0-1.0-20.0"}}, {"uniqueid": "w12167464:a51537445", "current_trial": 30, "dateTime": 1691143913859, "trialdata": {"revealed_states": [], "clicked_states": [], "num_clicks_accrued": [0, 0, 0, 0, 0, 0, 0, 0, 0, 0, 0, 0, 0], "stateRewards": ["", 1, 4, -4, 14, 35, 51, 19, -13, 54, 78, -74, -2, -1, -3, 13, -11, -42, -73, -15, -24, -3, -69, 2, -1, 5, 16, -27, 73, 58, 9, -60, 5, -60], "withholdReward": false, "trial_id": "mdp_trial_22", "block": "test", "trialIndex": 23, "score": -45, "costs": 0, "simulationMode": [null, null, null, null, null], "rewards": [2, -1, 5, 9, -60], "path": ["0", "0", "23", "24", "25", "30", "31"], "rt": [1014, 70, 141, 37, 110], "actions": ["left", "left", "left", "down", "right"], "actionTimes": [2217, 2806, 3460, 4007, 4629], "queries": {"click": {"state": {"target": [], "time": []}, "edge": {"target": [], "time": []}}, "mouseover": {"state": {"target": [], "time": []}, "edge": {"target": [], "time": []}}, "mouseout": {"state": {"target": [], "time": []}, "edge": {"target": [], "time": []}}}, "displayed_time": "15.20", "trialTime": 15712, "trial_type": "mouselab-mdp", "trial_index": 30, "time_elapsed": 816672, "internal_node_id": "0.0-4.0-1.0-21.0"}}, {"uniqueid": "w12167464:a51537445", "current_trial": 31, "dateTime": 1691143930899, "trialdata": {"revealed_states": [], "clicked_states": [], "num_clicks_accrued": [0, 0, 0, 0, 0, 0, 0, 0, 0, 0, 0, 0, 0], "stateRewards": ["", 1, -1, 1, 13, 31, -56, 72, 2, 41, 5, 63, -2, -3, -2, 3, -71, -26, 52, 13, -31, 24, -67, 2, -2, 5, 4, 66, 43, 72, 9, 86, -26, 44], "withholdReward": false, "trial_id": "mdp_trial_23", "block": "test", "trialIndex": 24, "score": -25, "costs": 0, "simulationMode": [null, null, null, null, null], "rewards": [-2, -3, -2, 13, -31], "path": ["0", "0", "12", "13", "14", "19", "20"], "rt": [897, 86, 47, 30, 94], "actions": ["right", "right", "right", "down", "right"], "actionTimes": [2207, 2807, 3368, 3934, 4548], "queries": {"click": {"state": {"target": [], "time": []}, "edge": {"target": [], "time": []}}, "mouseover": {"state": {"target": [], "time": []}, "edge": {"target": [], "time": []}}, "mouseout": {"state": {"target": ["0", "23"], "time": [16216, 16249]}, "edge": {"target": [], "time": []}}}, "displayed_time": "15.31", "trialTime": 16825, "trial_type": "mouselab-mdp", "trial_index": 31, "time_elapsed": 833712, "internal_node_id": "0.0-4.0-1.0-22.0"}}, {"uniqueid": "w12167464:a51537445", "current_trial": 32, "dateTime": 1691143953950, "trialdata": {"revealed_states": [], "clicked_states": [], "num_clicks_accrued": [0, 0, 0, 0, 0, 0, 0, 0, 0, 0, 0, 0, 0], "stateRewards": ["", -2, -1, 3, -3, 71, -58, -21, 7, -10, -75, -37, 2, 4, -1, -12, -79, -29, -48, 3, -41, -10, -30, -1, -2, 1, -15, 13, 66, 22, -1, -42, -86, -55], "withholdReward": false, "trial_id": "mdp_trial_24", "block": "test", "trialIndex": 25, "score": -22, "costs": 0, "simulationMode": [null, null, null, null, null], "rewards": [2, 4, -1, 3, -30], "path": ["0", "0", "12", "13", "14", "19", "22"], "rt": [564, 101, 54, 636, 229], "actions": ["right", "right", "right", "down", "left"], "actionTimes": [2506, 3123, 3693, 4857, 5583], "queries": {"click": {"state": {"target": [], "time": []}, "edge": {"target": [], "time": []}}, "mouseover": {"state": {"target": [], "time": []}, "edge": {"target": [], "time": []}}, "mouseout": {"state": {"target": [], "time": []}, "edge": {"target": [], "time": []}}}, "displayed_time": "15.94", "trialTime": 22797, "trial_type": "mouselab-mdp", "trial_index": 32, "time_elapsed": 856763, "internal_node_id": "0.0-4.0-1.0-23.0"}}, {"uniqueid": "w12167464:a51537445", "current_trial": 33, "dateTime": 1691143982070, "trialdata": {"revealed_states": [], "clicked_states": [], "num_clicks_accrued": [0, 0, 0, 0, 0, 0, 0, 0, 0, 0, 0, 0, 0], "stateRewards": ["", -2, 2, -4, -4, -59, 88, 62, -3, 69, -15, -34, 1, -2, -5, 7, -54, -20, 78, -16, -74, -53, -21, 2, -4, 2, 13, -8, -44, 26, 9, 72, 4, 17], "withholdReward": false, "trial_id": "mdp_trial_25", "block": "test", "trialIndex": 26, "score": 81, "costs": 0, "simulationMode": [null, null, null, null, null], "rewards": [2, -4, 2, 9, 72], "path": ["0", "0", "23", "24", "25", "30", "31"], "rt": [946, 56, 36, 603, 100], "actions": ["left", "left", "left", "down", "right"], "actionTimes": [3273, 3845, 4409, 5526, 6139], "queries": {"click": {"state": {"target": [], "time": []}, "edge": {"target": [], "time": []}}, "mouseover": {"state": {"target": [], "time": []}, "edge": {"target": [], "time": []}}, "mouseout": {"state": {"target": ["0"], "time": [2789]}, "edge": {"target": [], "time": []}}}, "displayed_time": "16.33", "trialTime": 27906, "trial_type": "mouselab-mdp", "trial_index": 33, "time_elapsed": 884882, "internal_node_id": "0.0-4.0-1.0-24.0"}}, {"uniqueid": "w12167464:a51537445", "current_trial": 34, "dateTime": 1691144009840, "trialdata": {"revealed_states": [], "clicked_states": [], "num_clicks_accrued": [0, 0, 0, 0, 0, 0, 0, 0, 0, 0, 0, 0, 0], "stateRewards": ["", -2, -4, 2, 10, -17, 18, 73, 11, -32, 23, -13, -2, -4, 7, 12, -25, 66, -23, 15, 40, -76, -9, 1, 2, -7, -5, -20, 24, 3, -5, 16, -73, 70], "withholdReward": false, "trial_id": "mdp_trial_26", "block": "test", "trialIndex": 27, "score": 7, "costs": 0, "simulationMode": [null, null, null, null, null], "rewards": [1, 2, -7, -5, 16], "path": ["0", "0", "23", "24", "25", "30", "31"], "rt": [409, 134, 99, 33, 157], "actions": ["left", "left", "left", "down", "right"], "actionTimes": [2263, 2885, 3500, 4052, 4709], "queries": {"click": {"state": {"target": [], "time": []}, "edge": {"target": [], "time": []}}, "mouseover": {"state": {"target": [], "time": []}, "edge": {"target": [], "time": []}}, "mouseout": {"state": {"target": [], "time": []}, "edge": {"target": [], "time": []}}}, "displayed_time": "15.86", "trialTime": 27545, "trial_type": "mouselab-mdp", "trial_index": 34, "time_elapsed": 912652, "internal_node_id": "0.0-4.0-1.0-25.0"}}, {"uniqueid": "w12167464:a51537445", "current_trial": 35, "dateTime": 1691144034478, "trialdata": {"revealed_states": [], "clicked_states": [], "num_clicks_accrued": [0, 0, 0, 0, 0, 0, 0, 0, 0, 0, 0, 0, 0], "stateRewards": ["", -1, -1, 4, -16, -75, 81, -51, -7, -84, 73, -30, -2, 1, -3, -16, -77, 33, 14, 1, 45, 87, -66, 2, 2, -5, -7, -19, -17, 79, -3, 8, 49, 47], "withholdReward": false, "trial_id": "mdp_trial_27", "block": "test", "trialIndex": 28, "score": 4, "costs": 0, "simulationMode": [null, null, null, null, null], "rewards": [2, 2, -5, -3, 8], "path": ["0", "0", "23", "24", "25", "30", "31"], "rt": [483, 59, 700, 110, 289], "actions": ["left", "left", "left", "down", "right"], "actionTimes": [1667, 2232, 3457, 4067, 4862], "queries": {"click": {"state": {"target": [], "time": []}, "edge": {"target": [], "time": []}}, "mouseover": {"state": {"target": [], "time": []}, "edge": {"target": [], "time": []}}, "mouseout": {"state": {"target": ["0"], "time": [1030]}, "edge": {"target": [], "time": []}}}, "displayed_time": "15.19", "trialTime": 24413, "trial_type": "mouselab-mdp", "trial_index": 35, "time_elapsed": 937291, "internal_node_id": "0.0-4.0-1.0-26.0"}}, {"uniqueid": "w12167464:a51537445", "current_trial": 36, "dateTime": 1691144057109, "trialdata": {"revealed_states": [], "clicked_states": [], "num_clicks_accrued": [0, 0, 0, 0, 0, 0, 0, 0, 0, 0, 0, 0, 0], "stateRewards": ["", -1, -1, 7, -15, -43, -21, -84, -9, -45, -66, 2, 1, -2, 2, 8, -27, 44, -52, -5, -84, 11, 53, 1, 4, -4, 16, 83, -82, -15, -16, 68, -43, 81], "withholdReward": false, "trial_id": "mdp_trial_28", "block": "test", "trialIndex": 29, "score": 53, "costs": 0, "simulationMode": [null, null, null, null, null], "rewards": [1, 4, -4, -16, 68], "path": ["0", "0", "23", "24", "25", "30", "31"], "rt": [768, 10, 65, 77, 148], "actions": ["left", "left", "left", "down", "right"], "actionTimes": [3405, 3934, 4511, 5107, 5760], "queries": {"click": {"state": {"target": [], "time": []}, "edge": {"target": [], "time": []}}, "mouseover": {"state": {"target": [], "time": []}, "edge": {"target": [], "time": []}}, "mouseout": {"state": {"target": ["0"], "time": [2491]}, "edge": {"target": [], "time": []}}}, "displayed_time": "16.64", "trialTime": 22406, "trial_type": "mouselab-mdp", "trial_index": 36, "time_elapsed": 959921, "internal_node_id": "0.0-4.0-1.0-27.0"}}, {"uniqueid": "w12167464:a51537445", "current_trial": 37, "dateTime": 1691144075437, "trialdata": {"revealed_states": [], "clicked_states": [], "num_clicks_accrued": [0, 0, 0, 0, 0, 0, 0, 0, 0, 0, 0, 0, 0], "stateRewards": ["", 1, 1, -5, 8, -6, 45, 16, -6, -7, -22, -38, -1, -4, 8, -11, -16, 21, -45, -15, -59, -32, 42, -1, 3, 6, 11, -7, 34, -27, -8, 85, 43, -9], "withholdReward": false, "trial_id": "mdp_trial_29", "block": "test", "trialIndex": 30, "score": 85, "costs": 0, "simulationMode": [null, null, null, null, null], "rewards": [-1, 3, 6, -8, 85], "path": ["0", "0", "23", "24", "25", "30", "31"], "rt": [798, 36, 24, 445, 184], "actions": ["left", "left", "left", "down", "right"], "actionTimes": [1978, 2534, 3073, 4044, 4748], "queries": {"click": {"state": {"target": [], "time": []}, "edge": {"target": [], "time": []}}, "mouseover": {"state": {"target": [], "time": []}, "edge": {"target": [], "time": []}}, "mouseout": {"state": {"target": ["0"], "time": [1010]}, "edge": {"target": [], "time": []}}}, "displayed_time": "15.18", "trialTime": 18108, "trial_type": "mouselab-mdp", "trial_index": 37, "time_elapsed": 978250, "internal_node_id": "0.0-4.0-1.0-28.0"}}, {"uniqueid": "w12167464:a51537445", "current_trial": 38, "dateTime": 1691144094658, "trialdata": {"revealed_states": [], "clicked_states": [], "num_clicks_accrued": [0, 0, 0, 0, 0, 0, 0, 0, 0, 0, 0, 0, 0], "stateRewards": ["", -1, 3, -4, -14, 78, 67, 2, 13, -32, 28, 39, -2, 1, -4, -4, -4, -42, -86, 11, 64, -29, -32, -1, -4, 2, -7, 5, 68, -61, 2, -21, 85, 50], "withholdReward": false, "trial_id": "mdp_trial_30", "block": "test", "trialIndex": 31, "score": -22, "costs": 0, "simulationMode": [null, null, null, null, null], "rewards": [-1, -4, 2, 2, -21], "path": ["0", "0", "23", "24", "25", "30", "31"], "rt": [699, 37, 112, 45, 104], "actions": ["left", "left", "left", "down", "right"], "actionTimes": [1589, 2141, 2765, 3333, 3974], "queries": {"click": {"state": {"target": [], "time": []}, "edge": {"target": [], "time": []}}, "mouseover": {"state": {"target": [], "time": []}, "edge": {"target": [], "time": []}}, "mouseout": {"state": {"target": ["0"], "time": [711]}, "edge": {"target": [], "time": []}}}, "displayed_time": "14.89", "trialTime": 18988, "trial_type": "mouselab-mdp", "trial_index": 38, "time_elapsed": 997470, "internal_node_id": "0.0-4.0-1.0-29.0"}}, {"uniqueid": "w12167464:a51537445", "current_trial": 39, "dateTime": 1691144113789, "trialdata": {"revealed_states": [], "clicked_states": [], "num_clicks_accrued": [0, 0, 0, 0, 0, 0, 0, 0, 0, 0, 0, 0, 0], "stateRewards": ["", -2, -3, 1, -14, 48, -49, 67, -1, -35, -48, 3, -2, 1, -4, -5, 86, -84, 39, 1, 48, 41, -42, -1, -4, 2, -7, 18, -86, 17, 7, -9, 57, -69], "withholdReward": false, "trial_id": "mdp_trial_31", "block": "test", "trialIndex": 32, "score": -5, "costs": 0, "simulationMode": [null, null, null, null, null], "rewards": [-1, -4, 2, 7, -9], "path": ["0", "0", "23", "24", "25", "30", "31"], "rt": [819, 50, 83, 10, 62], "actions": ["left", "left", "left", "down", "right"], "actionTimes": [1640, 2201, 2817, 3344, 3930], "queries": {"click": {"state": {"target": [], "time": []}, "edge": {"target": [], "time": []}}, "mouseover": {"state": {"target": [], "time": []}, "edge": {"target": [], "time": []}}, "mouseout": {"state": {"target": ["0"], "time": [658]}, "edge": {"target": [], "time": []}}}, "displayed_time": "14.82", "trialTime": 18905, "trial_type": "mouselab-mdp", "trial_index": 39, "time_elapsed": 1016602, "internal_node_id": "0.0-4.0-1.0-30.0"}}, {"uniqueid": "w12167464:a51537445", "current_trial": 40, "dateTime": 1691144136598, "trialdata": {"revealed_states": [], "clicked_states": [], "num_clicks_accrued": [0, 0, 0, 0, 0, 0, 0, 0, 0, 0, 0, 0, 0], "stateRewards": ["", 1, 1, -5, 10, -31, 73, 14, -8, -23, 63, -70, -1, 2, 8, 7, 25, -59, 27, -10, -40, -71, -15, -2, 3, -8, -5, -19, 77, -34, 7, 67, 63, 19], "withholdReward": false, "trial_id": "mdp_trial_32", "block": "test", "trialIndex": 33, "score": 67, "costs": 0, "simulationMode": [null, null, null, null, null], "rewards": [-2, 3, -8, 7, 67], "path": ["0", "0", "23", "24", "25", "30", "31"], "rt": [410, 37, 81, 489, 118], "actions": ["left", "left", "left", "down", "right"], "actionTimes": [2622, 3170, 3759, 4752, 5381], "queries": {"click": {"state": {"target": [], "time": []}, "edge": {"target": [], "time": []}}, "mouseover": {"state": {"target": [], "time": []}, "edge": {"target": [], "time": []}}, "mouseout": {"state": {"target": ["0"], "time": [2031]}, "edge": {"target": [], "time": []}}}, "displayed_time": "16.21", "trialTime": 22581, "trial_type": "mouselab-mdp", "trial_index": 40, "time_elapsed": 1039411, "internal_node_id": "0.0-4.0-1.0-31.0"}}, {"uniqueid": "w12167464:a51537445", "current_trial": 41, "dateTime": 1691144161677, "trialdata": {"revealed_states": [], "clicked_states": [], "num_clicks_accrued": [0, 0, 0, 0, 0, 0, 0, 0, 0, 0, 0, 0, 0], "stateRewards": ["", -1, -3, 1, -4, -48, -63, -49, -2, -84, -19, 65, 2, -2, -2, -12, -4, 59, 9, 6, 75, 69, -13, -1, -3, -3, -2, -37, -68, -36, 13, 32, 18, -14], "withholdReward": false, "trial_id": "mdp_trial_33", "block": "test", "trialIndex": 34, "score": 38, "costs": 0, "simulationMode": [null, null, null, null, null], "rewards": [-1, -3, -3, 13, 32], "path": ["0", "0", "23", "24", "25", "30", "31"], "rt": [432, 92, 32, 62, 94], "actions": ["left", "left", "left", "down", "right"], "actionTimes": [1250, 1841, 2382, 2960, 3576], "queries": {"click": {"state": {"target": [], "time": []}, "edge": {"target": [], "time": []}}, "mouseover": {"state": {"target": [], "time": []}, "edge": {"target": [], "time": []}}, "mouseout": {"state": {"target": ["0"], "time": [662]}, "edge": {"target": [], "time": []}}}, "displayed_time": "14.82", "trialTime": 24851, "trial_type": "mouselab-mdp", "trial_index": 41, "time_elapsed": 1064489, "internal_node_id": "0.0-4.0-1.0-32.0"}}, {"uniqueid": "w12167464:a51537445", "current_trial": 42, "dateTime": 1691144180303, "trialdata": {"revealed_states": [], "clicked_states": [], "num_clicks_accrued": [0, 0, 0, 0, 0, 0, 0, 0, 0, 0, 0, 0, 0], "stateRewards": ["", -2, 1, -7, -8, -37, -76, -87, 11, 30, -63, 80, -1, 4, 2, -1, 42, 17, 52, -3, -75, -80, -68, 2, -3, -5, -15, -48, 82, 24, -7, 5, -22, -71], "withholdReward": false, "trial_id": "mdp_trial_34", "block": "test", "trialIndex": 35, "score": -8, "costs": 0, "simulationMode": [null, null, null, null, null], "rewards": [2, -3, -5, -7, 5], "path": ["0", "0", "23", "24", "25", "30", "31"], "rt": [1012, 101, 14, 47, 88], "actions": ["left", "left", "left", "down", "right"], "actionTimes": [3321, 3950, 4481, 5063, 5671], "queries": {"click": {"state": {"target": [], "time": []}, "edge": {"target": [], "time": []}}, "mouseover": {"state": {"target": [], "time": []}, "edge": {"target": [], "time": []}}, "mouseout": {"state": {"target": ["0"], "time": [2139]}, "edge": {"target": [], "time": []}}}, "displayed_time": "16.31", "trialTime": 18400, "trial_type": "mouselab-mdp", "trial_index": 42, "time_elapsed": 1083115, "internal_node_id": "0.0-4.0-1.0-33.0"}}, {"uniqueid": "w12167464:a51537445", "current_trial": 43, "dateTime": 1691144198541, "trialdata": {"revealed_states": [], "clicked_states": [], "num_clicks_accrued": [0, 0, 0, 0, 0, 0, 0, 0, 0, 0, 0, 0, 0], "stateRewards": ["", -2, 2, -1, -6, 22, 6, 6, -5, 70, -42, 65, 1, 3, 5, -6, -67, -9, 3, 14, 7, -62, -13, -2, 4, 1, 16, 42, -21, -52, -8, 32, 53, 81], "withholdReward": false, "trial_id": "mdp_trial_35", "block": "test", "trialIndex": 36, "score": 27, "costs": 0, "simulationMode": [null, null, null, null, null], "rewards": [-2, 4, 1, -8, 32], "path": ["0", "0", "23", "24", "25", "30", "31"], "rt": [672, 83, 80, 52, 146], "actions": ["left", "left", "left", "down", "right"], "actionTimes": [2220, 2810, 3395, 3962, 4639], "queries": {"click": {"state": {"target": [], "time": []}, "edge": {"target": [], "time": []}}, "mouseover": {"state": {"target": [], "time": []}, "edge": {"target": [], "time": []}}, "mouseout": {"state": {"target": ["0", "12"], "time": [393, 492]}, "edge": {"target": [], "time": []}}}, "displayed_time": "15.55", "trialTime": 18005, "trial_type": "mouselab-mdp", "trial_index": 43, "time_elapsed": 1101354, "internal_node_id": "0.0-4.0-1.0-34.0"}}, {"uniqueid": "w12167464:a51537445", "current_trial": 44, "dateTime": 1691144233408, "trialdata": {"revealed_states": [], "clicked_states": [], "num_clicks_accrued": [0, 0, 0, 0, 0, 0, 0, 0, 0, 0, 0, 0, 0], "stateRewards": ["", -1, 3, 1, -11, -22, -36, 19, -5, -70, -52, 50, -2, -4, 4, -2, -41, -83, 29, -2, 22, 10, -6, -2, 3, -2, 14, 54, 44, 77, -9, -65, -37, -40], "withholdReward": false, "trial_id": "mdp_trial_36", "block": "test", "trialIndex": 37, "score": -75, "costs": 0, "simulationMode": [null, null, null, null, null], "rewards": [-2, 3, -2, -9, -65], "path": ["0", "0", "23", "24", "25", "30", "31"], "rt": [705, 74, 34, 16, 76], "actions": ["left", "left", "left", "down", "right"], "actionTimes": [3890, 4457, 4999, 5531, 6141], "queries": {"click": {"state": {"target": [], "time": []}, "edge": {"target": [], "time": []}}, "mouseover": {"state": {"target": [], "time": []}, "edge": {"target": [], "time": []}}, "mouseout": {"state": {"target": ["0"], "time": [2634]}, "edge": {"target": [], "time": []}}}, "displayed_time": "17.19", "trialTime": 34630, "trial_type": "mouselab-mdp", "trial_index": 44, "time_elapsed": 1136221, "internal_node_id": "0.0-4.0-1.0-35.0"}}, {"uniqueid": "w12167464:a51537445", "current_trial": 45, "dateTime": 1691144261193, "trialdata": {"revealed_states": [], "clicked_states": [], "num_clicks_accrued": [0, 0, 0, 0, 0, 0, 0, 0, 0, 0, 0, 0, 0], "stateRewards": ["", -1, 2, 6, 11, 21, -21, -21, -6, 48, -71, 88, -1, -3, 3, 7, 64, 2, 9, -4, 37, -67, 72, 2, 2, -8, -8, -10, 71, -40, -3, 73, 80, 47], "withholdReward": false, "trial_id": "mdp_trial_37", "block": "test", "trialIndex": 38, "score": 66, "costs": 0, "simulationMode": [null, null, null, null, null], "rewards": [2, 2, -8, -3, 73], "path": ["0", "0", "23", "24", "25", "30", "31"], "rt": [683, 18, 662, 134, 188], "actions": ["left", "left", "left", "down", "right"], "actionTimes": [2557, 3095, 4289, 4943, 5648], "queries": {"click": {"state": {"target": [], "time": []}, "edge": {"target": [], "time": []}}, "mouseover": {"state": {"target": [], "time": []}, "edge": {"target": [], "time": []}}, "mouseout": {"state": {"target": ["0"], "time": [1716]}, "edge": {"target": [], "time": []}}}, "displayed_time": "15.88", "trialTime": 27553, "trial_type": "mouselab-mdp", "trial_index": 45, "time_elapsed": 1164006, "internal_node_id": "0.0-4.0-1.0-36.0"}}, {"uniqueid": "w12167464:a51537445", "current_trial": 46, "dateTime": 1691144280806, "trialdata": {"revealed_states": [], "clicked_states": [], "num_clicks_accrued": [0, 0, 0, 0, 0, 0, 0, 0, 0, 0, 0, 0, 0], "stateRewards": ["", -2, 1, -8, 12, -65, -79, 16, 7, -80, -17, -45, -2, 2, -5, -2, -85, 23, -4, -7, 48, 27, -76, 2, 3, 5, 2, 43, 71, -13, 7, -49, 59, -31], "withholdReward": false, "trial_id": "mdp_trial_38", "block": "test", "trialIndex": 39, "score": -32, "costs": 0, "simulationMode": [null, null, null, null, null], "rewards": [2, 3, 5, 7, -49], "path": ["0", "0", "23", "24", "25", "30", "31"], "rt": [724, 73, 53, 24, 87], "actions": ["left", "left", "left", "down", "right"], "actionTimes": [1645, 2223, 2788, 3341, 3953], "queries": {"click": {"state": {"target": [], "time": []}, "edge": {"target": [], "time": []}}, "mouseover": {"state": {"target": [], "time": []}, "edge": {"target": [], "time": []}}, "mouseout": {"state": {"target": ["0"], "time": [744]}, "edge": {"target": [], "time": []}}}, "displayed_time": "14.92", "trialTime": 19362, "trial_type": "mouselab-mdp", "trial_index": 46, "time_elapsed": 1183618, "internal_node_id": "0.0-4.0-1.0-37.0"}}, {"uniqueid": "w12167464:a51537445", "current_trial": 47, "dateTime": 1691144297718, "trialdata": {"revealed_states": [], "clicked_states": [], "num_clicks_accrued": [0, 0, 0, 0, 0, 0, 0, 0, 0, 0, 0, 0, 0], "stateRewards": ["", -2, 3, 8, -9, 59, 41, -50, -1, 82, 66, 33, 2, -2, 7, 8, 1, -38, 12, -16, 24, -37, 67, 1, 4, -2, 5, 35, -83, 28, 8, -27, 69, -64], "withholdReward": false, "trial_id": "mdp_trial_39", "block": "test", "trialIndex": 40, "score": 58, "costs": 0, "simulationMode": [null, null, null, null, null], "rewards": [2, -2, 7, -16, 67], "path": ["0", "0", "12", "13", "14", "19", "22"], "rt": [1028, 17, 558, 31, 382], "actions": ["right", "right", "right", "down", "left"], "actionTimes": [2932, 3469, 4560, 5099, 6000], "queries": {"click": {"state": {"target": [], "time": []}, "edge": {"target": [], "time": []}}, "mouseover": {"state": {"target": [], "time": []}, "edge": {"target": [], "time": []}}, "mouseout": {"state": {"target": ["0"], "time": [1733]}, "edge": {"target": [], "time": []}}}, "displayed_time": "15.90", "trialTime": 16681, "trial_type": "mouselab-mdp", "trial_index": 47, "time_elapsed": 1200531, "internal_node_id": "0.0-4.0-1.0-38.0"}}, {"uniqueid": "w12167464:a51537445", "current_trial": 48, "dateTime": 1691144315095, "trialdata": {"revealed_states": [], "clicked_states": [], "num_clicks_accrued": [0, 0, 0, 0, 0, 0, 0, 0, 0, 0, 0, 0, 0], "stateRewards": ["", -1, -3, -7, -7, -76, 30, -49, 11, -70, 56, 2, 1, 4, -3, -14, -59, -83, -25, -9, -21, -67, -73, -2, 4, 4, -9, -11, -32, 60, 9, -87, 22, -64], "withholdReward": false, "trial_id": "mdp_trial_40", "block": "test", "trialIndex": 41, "score": -80, "costs": 0, "simulationMode": [null, null, null, null, null], "rewards": [1, 4, -3, -9, -73], "path": ["0", "0", "12", "13", "14", "19", "22"], "rt": [964, 309, 107, 54, 113], "actions": ["right", "right", "right", "down", "left"], "actionTimes": [2492, 3322, 3937, 4503, 5142], "queries": {"click": {"state": {"target": [], "time": []}, "edge": {"target": [], "time": []}}, "mouseover": {"state": {"target": [], "time": []}, "edge": {"target": [], "time": []}}, "mouseout": {"state": {"target": ["0"], "time": [1356]}, "edge": {"target": [], "time": []}}}, "displayed_time": "15.53", "trialTime": 17141, "trial_type": "mouselab-mdp", "trial_index": 48, "time_elapsed": 1217908, "internal_node_id": "0.0-4.0-1.0-39.0"}}, {"uniqueid": "w12167464:a51537445", "current_trial": 49, "dateTime": 1691144365603, "trialdata": {"rt": 50504, "response": {"Q0": "$-16 to 16", "Q1": "$-32 to $32", "Q2": "$-32 to $32", "Q3": "The cost for clicking on nodes varied between nodes.", "Q4": "Slightly motivated"}, "question_order": [0, 1, 2, 3, 4], "trial_id": "final_quiz_control", "trial_type": "survey-multi-choice", "trial_index": 49, "time_elapsed": 1268416, "internal_node_id": "0.0-4.0-2.0"}}, {"uniqueid": "w12167464:a51537445", "current_trial": 50, "dateTime": 1691144428760, "trialdata": {"rt": 63139, "response": {"Q0": "use less node inspector", "Q1": "No my strategy remained the same", "Q2": "Not very difficult "}, "trial_id": "self_report_control", "trial_type": "survey-text", "trial_index": 50, "time_elapsed": 1331572, "internal_node_id": "0.0-4.0-3.0"}}, {"uniqueid": "w12167464:a51537445", "current_trial": 51, "dateTime": 1691144453556, "trialdata": {"rt": 24792, "response": {"gender": "male", "age": "30", "colorblind": "0", "effort": "0"}, "trial_type": "survey-html-form", "trial_index": 51, "time_elapsed": 1356369, "internal_node_id": "0.0-4.0-4.0"}}, {"uniqueid": "w12167464:a51537445", "current_trial": 52, "dateTime": 1691144464368, "trialdata": {"rt": 10805, "response": {"Q0": "no", "Q1": "no", "Q2": ""}, "trial_type": "survey-text", "trial_index": 52, "time_elapsed": 1367181, "internal_node_id": "0.0-4.0-5.0"}}, {"uniqueid": "w12167464:a51537445", "current_trial": 53, "dateTime": 1691144467253, "trialdata": {"rt": 2880, "stimulus": "Press 'Finish HIT' in order to reach the completion code. Once the data has been saved, you will receive the code either in this window or in the original browser window where you started the experiment.\n", "response": 0, "trial_type": "html-button-response", "trial_index": 53, "time_elapsed": 1370066, "internal_node_id": "0.0-5.0"}}, {"uniqueid": "w12167464:a51537445", "current_trial": 54, "dateTime": 1691144468259, "trialdata": {"success": true, "trial_type": "fullscreen", "trial_index": 54, "time_elapsed": 1371072, "internal_node_id": "0.0-6.0"}}], "questiondata": {"params": {"CODE": "C6DMOQA6", "MIN_TIME": 14, "inspectCost": 1, "startTime": "Fri Aug 04 2023 10:58:16 GMT+0100 (British Summer Time)", "bonusRate": 0.002, "variance": "1_2_4_8_44", "branching": "31123"}, "final_score": 340.6}, "eventdata": [{"eventtype": "initialized", "value": null, "timestamp": 1691143096206, "interval": 0}, {"eventtype": "window_resize", "value": [1536, 758], "timestamp": 1691143096206, "interval": 0}, {"eventtype": "window_resize", "value": [1536, 758], "timestamp": 1691143096513, "interval": 307}, {"eventtype": "window_resize", "value": [1536, 864], "timestamp": 1691143100337, "interval": 3824}, {"eventtype": "window_resize", "value": [1536, 758], "timestamp": 1691144467485, "interval": 1367148}], "useragent": "Mozilla/5.0 (Windows NT 10.0; Win64; x64) AppleWebKit/537.36 (KHTML, like Gecko) Chrome/115.0.0.0 Safari/537.36", "mode": "live", "id": "w12167464:a51537445", "status": "user data saved", "Beginhit": "2023-08-04 09:58:14.938248", "Beginexp": "2023-08-04 09:58:20.929671", "Endhit": "2023-08-04 10:21:08.405664", "psiturkStatus": 3, "browser": "<redacted>", "platform": "windows", "language": "en-US"}