{"condition": 0, "counterbalance": 0, "assignmentId": "a48228563", "workerId": "w12038840", "hitId": "h97881807", "currenttrial": 55, "bonus": 0, "data": [{"uniqueid": "w12038840:a48228563", "current_trial": 0, "dateTime": 1691070709285, "trialdata": {"success": true, "trial_type": "fullscreen", "trial_index": 0, "time_elapsed": 5942, "internal_node_id": "0.0-0.0"}}, {"uniqueid": "w12038840:a48228563", "current_trial": 1, "dateTime": 1691070724456, "trialdata": {"view_history": [{"page_index": 0, "viewing_time": 15163}], "rt": 15164, "trial_id": "exp_instructions_control", "trial_type": "instructions", "trial_index": 1, "time_elapsed": 21113, "internal_node_id": "0.0-1.0"}}, {"uniqueid": "w12038840:a48228563", "current_trial": 2, "dateTime": 1691070728530, "trialdata": {"success": true, "trial_type": "fullscreen", "trial_index": 2, "time_elapsed": 25187, "internal_node_id": "0.0-2.0-0.0"}}, {"uniqueid": "w12038840:a48228563", "current_trial": 3, "dateTime": 1691070928687, "trialdata": {"view_history": [{"page_index": 0, "viewing_time": 61242}, {"page_index": 1, "viewing_time": 70215}, {"page_index": 2, "viewing_time": 12817}, {"page_index": 3, "viewing_time": 55879}], "rt": 200154, "trial_id": "mouselab_instructions_1_control", "trial_type": "instructions", "trial_index": 3, "time_elapsed": 225344, "internal_node_id": "0.0-2.0-1.0"}}, {"uniqueid": "w12038840:a48228563", "current_trial": 4, "dateTime": 1691070965776, "trialdata": {"revealed_states": [], "clicked_states": ["1", "12", "23"], "num_clicks_accrued": [0, 0, 0, 0, 0, 0, 0, 0, 0, 0, 0, 0, 0], "stateRewards": ["", -10, 10, 10, -10, -10, 10, -10, -10, -10, -10, -10, -10, 10, -10, -10, -10, 10, -10, 10, -10, -10, 10, 10, 10, -10, -10, 10, -10, 10, 10, -10, 10, -10], "withholdReward": false, "trial_id": "practice_1", "block": "test", "trialIndex": 0, "score": 12, "costs": -1.5, "simulationMode": [null, null, null, null, null], "rewards": [10, 10, -10, 10, -10], "path": ["0", "0", "23", "24", "25", "30", "33"], "rt": [10491, 6163, 7811, 816, 1102], "actions": ["left", "left", "left", "down", "left"], "actionTimes": [12694, 19459, 27859, 29234, 30914], "queries": {"click": {"state": {"target": ["1", "12", "23"], "time": [7477, 9206, 10908]}, "edge": {"target": [], "time": []}}, "mouseover": {"state": {"target": ["1", "0", "0", "12", "0", "23", "24", "23", "23"], "time": [6586, 8170, 8586, 8777, 9899, 10324, 10390, 10445, 10578]}, "edge": {"target": [], "time": []}}, "mouseout": {"state": {"target": ["12", "0", "1", "0", "0", "12", "0", "23", "24", "23", "23", "24", "24", "25", "25", "25", "24", "22"], "time": [null, 6008, 8125, 8212, 8629, 9882, 9940, 10372, 10427, 10482, 11201, 17144, 24224, 24562, 24712, 26182, 26249, 26579]}, "edge": {"target": [], "time": []}}}, "displayed_time": "31.50", "trialTime": 35746, "trial_type": "mouselab-mdp", "trial_index": 4, "time_elapsed": 262433, "internal_node_id": "0.0-2.0-2.0-0.0"}}, {"uniqueid": "w12038840:a48228563", "current_trial": 5, "dateTime": 1691070992290, "trialdata": {"revealed_states": [], "clicked_states": ["12", "13", "14", "19", "20"], "num_clicks_accrued": [0, 0, 0, 0, 0, 0, 0, 0, 0, 0, 0, 0, 0], "stateRewards": ["", -10, 10, -10, 10, -10, -10, -10, 10, 10, 10, 10, -10, 10, 10, 10, 10, -10, -10, -10, 10, -10, 10, -10, 10, -10, 10, 10, -10, 10, -10, -10, -10, 10], "withholdReward": false, "trial_id": "practice_2", "block": "test", "trialIndex": 1, "score": 11, "costs": -2.5, "simulationMode": [null, null, null, null, null], "rewards": [-10, 10, -10, 10, 10], "path": ["0", "0", "1", "2", "3", "8", "9"], "rt": [16178, 315, 380, 377, 509], "actions": ["up", "up", "up", "left", "up"], "actionTimes": [18135, 19044, 20003, 20978, 22069], "queries": {"click": {"state": {"target": ["12", "13", "14", "19", "20"], "time": [3268, 5157, 7296, 9096, 11162]}, "edge": {"target": [], "time": []}}, "mouseover": {"state": {"target": ["12", "13", "14", "19", "20", "22", "30"], "time": [2862, 3709, 6287, 8307, 10741, 12924, 13458]}, "edge": {"target": [], "time": []}}, "mouseout": {"state": {"target": ["0", "12", "13", "14", "19", "20", "19", "22", "30"], "time": [2574, 3697, 6248, 8220, 10455, 12852, 12904, 12965, 13519]}, "edge": {"target": [], "time": []}}}, "displayed_time": "22.65", "trialTime": 26069, "trial_type": "mouselab-mdp", "trial_index": 5, "time_elapsed": 288945, "internal_node_id": "0.0-2.0-2.0-1.0"}}, {"uniqueid": "w12038840:a48228563", "current_trial": 6, "dateTime": 1691071038407, "trialdata": {"view_history": [{"page_index": 0, "viewing_time": 38105}, {"page_index": 1, "viewing_time": 8008}], "rt": 46113, "trial_id": "mouselab_instructions_2_control", "trial_type": "instructions", "trial_index": 6, "time_elapsed": 335064, "internal_node_id": "0.0-2.0-3.0"}}, {"uniqueid": "w12038840:a48228563", "current_trial": 7, "dateTime": 1691071081824, "trialdata": {"rt": 43412, "response": {"Q0": "The cost for clicking on nodes may vary between nodes.", "Q1": "The better I perform the higher my bonus will be.", "Q2": "No, the amount of cash at each node of the web may be different each time.", "Q3": "To get the highest total score.", "Q4": "Only before moving the spider.", "Q5": "3 seconds"}, "question_order": [0, 1, 2, 3, 4, 5], "correct": {"Q0": "The cost for clicking on nodes may vary between nodes.", "Q1": "The better I perform the higher my bonus will be.", "Q2": "No, the amount of cash at each node of the web may be different each time.", "Q3": "To get the highest total score.", "Q4": "Only before moving the spider.", "Q5": "3 seconds"}, "trial_id": "mouselab_quiz_control", "trial_type": "survey-multi-choice", "trial_index": 7, "time_elapsed": 378480, "internal_node_id": "0.0-2.0-4.0"}}, {"uniqueid": "w12038840:a48228563", "current_trial": 8, "dateTime": 1691071092240, "trialdata": {"rt": 10413, "stimulus": "\n<h1> Get ready to start the game! </h1>\n\nThank you for reading the instructions. Get ready start with the 40 rounds of this game.\n<br><br>\nIf you need to take a break, feel free to take one after the end of a round, before continuing to the next one.\n<br><br>\nRemember, the more money the spider gets, the bigger your bonus will be!\n<br><br>\n<div style='text-align: center;'>Press <code>space</code> to begin.</div>\n\n<br><br>\n(If, at any point, the <code>space</code> key does not take you to the next page, click once on the text and try again.)", "response": " ", "trial_id": "mdp_ready", "trial_type": "html-keyboard-response", "trial_index": 8, "time_elapsed": 388897, "internal_node_id": "0.0-4.0-0.0"}}, {"uniqueid": "w12038840:a48228563", "current_trial": 9, "dateTime": 1691071130863, "trialdata": {"revealed_states": [], "clicked_states": ["23", "24", "12", "1", "2", "13"], "num_clicks_accrued": [0, 0, 0, 0, 0, 0, 0, 0, 0, 0, 0, 0, 0], "stateRewards": ["", 1, 1, 4, 11, 83, -66, 18, -16, -23, 5, 25, 1, -3, 1, -12, 18, 24, -86, -11, -64, 36, 40, 2, 1, -6, 13, 55, 29, 72, -2, 81, -72, -41], "withholdReward": false, "trial_id": "mdp_trial_1", "block": "test", "trialIndex": 2, "score": -41.4, "costs": -8.4, "simulationMode": [null, null, null, null, null], "rewards": [1, 1, 4, -16, -23], "path": ["0", "0", "1", "2", "3", "8", "9"], "rt": [25257, 703, 1169, 716, 460], "actions": ["up", "up", "up", "left", "up"], "actionTimes": [28336, 29632, 31407, 32704, 33743], "queries": {"click": {"state": {"target": ["23", "24", "12", "1", "2", "13"], "time": [4093, 7511, 9748, 12154, 14287, 16940]}, "edge": {"target": [], "time": []}}, "mouseover": {"state": {"target": ["23", "24", "25", "0", "12", "1", "1", "1", "2", "13", "13", "12", "23", "25", "31", "22", "19"], "time": [3668, 4494, 8381, 9256, 9342, 10800, 11359, 11804, 14022, 15627, 16554, 17804, 17865, 18163, 24506, 24642, 24901]}, "edge": {"target": [], "time": []}}, "mouseout": {"state": {"target": ["0", "0", "23", "24", "25", "24", "0", "12", "12", "1", "1", "1", "2", "13", "13", "12", "23", "25", "31", "22", "19"], "time": [1996, 3604, 4430, 8340, 8854, 8940, 9302, 9830, 10744, 11003, 11591, 13789, 15524, 16274, 17785, 17848, 18058, 22689, 24557, 24843, 24949]}, "edge": {"target": [], "time": []}}}, "displayed_time": "34.33", "trialTime": 38175, "trial_type": "mouselab-mdp", "trial_index": 9, "time_elapsed": 427520, "internal_node_id": "0.0-4.0-1.0-0.0"}}, {"uniqueid": "w12038840:a48228563", "current_trial": 10, "dateTime": 1691071152480, "trialdata": {"revealed_states": [], "clicked_states": [], "num_clicks_accrued": [0, 0, 0, 0, 0, 0, 0, 0, 0, 0, 0, 0, 0], "stateRewards": ["", -1, 1, 8, -3, -24, 11, -65, -6, -77, 48, 44, -2, 1, -2, -7, -55, -35, 33, 8, -28, 19, -53, -1, -1, -5, -5, -70, 10, 44, 8, -58, -70, 51], "withholdReward": false, "trial_id": "mdp_trial_2", "block": "test", "trialIndex": 3, "score": 52, "costs": 0, "simulationMode": [null, null, null, null, null], "rewards": [-1, -1, -5, 8, 51], "path": ["0", "0", "23", "24", "25", "30", "33"], "rt": [2318, 508, 356, 338, 418], "actions": ["left", "left", "left", "down", "left"], "actionTimes": [5526, 6567, 7495, 8406, 9397], "queries": {"click": {"state": {"target": [], "time": []}, "edge": {"target": [], "time": []}}, "mouseover": {"state": {"target": ["0"], "time": [3237]}, "edge": {"target": [], "time": []}}, "mouseout": {"state": {"target": ["24", "13", "14", "13", "12", "0"], "time": [2030, 2096, 2200, 2229, 2279, 4004]}, "edge": {"target": [], "time": []}}}, "displayed_time": "17.31", "trialTime": 21158, "trial_type": "mouselab-mdp", "trial_index": 10, "time_elapsed": 449137, "internal_node_id": "0.0-4.0-1.0-1.0"}}, {"uniqueid": "w12038840:a48228563", "current_trial": 11, "dateTime": 1691071175041, "trialdata": {"revealed_states": [], "clicked_states": [], "num_clicks_accrued": [0, 0, 0, 0, 0, 0, 0, 0, 0, 0, 0, 0, 0], "stateRewards": ["", 1, 2, 3, 16, 63, -25, 16, -4, -14, 82, -66, -1, -3, -3, -11, -14, 19, 46, 3, -34, -82, 66, -2, -3, 4, -5, -63, 77, -37, -1, -45, -41, 84], "withholdReward": false, "trial_id": "mdp_trial_3", "block": "test", "trialIndex": 4, "score": 1, "costs": 0, "simulationMode": [null, null, null, null, null], "rewards": [-1, -3, -3, -11, 19], "path": ["0", "0", "12", "13", "14", "15", "17"], "rt": [4805, 409, 370, 331, 564], "actions": ["right", "right", "right", "up", "right"], "actionTimes": [8757, 9732, 10676, 11602, 12756], "queries": {"click": {"state": {"target": [], "time": []}, "edge": {"target": [], "time": []}}, "mouseover": {"state": {"target": [], "time": []}, "edge": {"target": [], "time": []}}, "mouseout": {"state": {"target": ["23", "23", "0", "12", "0", "0"], "time": [2101, 2433, 2461, 2740, 2844, 7301]}, "edge": {"target": [], "time": []}}}, "displayed_time": "18.33", "trialTime": 22117, "trial_type": "mouselab-mdp", "trial_index": 11, "time_elapsed": 471698, "internal_node_id": "0.0-4.0-1.0-2.0"}}, {"uniqueid": "w12038840:a48228563", "current_trial": 12, "dateTime": 1691071196240, "trialdata": {"revealed_states": [], "clicked_states": [], "num_clicks_accrued": [0, 0, 0, 0, 0, 0, 0, 0, 0, 0, 0, 0, 0], "stateRewards": ["", -2, 2, -1, -6, 22, 6, 6, -5, 70, -42, 65, 1, 3, 5, -6, -67, -9, 3, 14, 7, -62, -13, -2, 4, 1, 16, 42, -21, -52, -8, 32, 53, 81], "withholdReward": false, "trial_id": "mdp_trial_4", "block": "test", "trialIndex": 5, "score": 64, "costs": 0, "simulationMode": [null, null, null, null, null], "rewards": [-2, 2, -1, -5, 70], "path": ["0", "0", "1", "2", "3", "8", "9"], "rt": [1807, 300, 360, 393, 437], "actions": ["up", "up", "up", "left", "up"], "actionTimes": [5891, 6756, 7700, 8660, 9668], "queries": {"click": {"state": {"target": [], "time": []}, "edge": {"target": [], "time": []}}, "mouseover": {"state": {"target": [], "time": []}, "edge": {"target": [], "time": []}}, "mouseout": {"state": {"target": [], "time": []}, "edge": {"target": [], "time": []}}}, "displayed_time": "18.33", "trialTime": 20740, "trial_type": "mouselab-mdp", "trial_index": 12, "time_elapsed": 492897, "internal_node_id": "0.0-4.0-1.0-3.0"}}, {"uniqueid": "w12038840:a48228563", "current_trial": 13, "dateTime": 1691071216832, "trialdata": {"revealed_states": [], "clicked_states": [], "num_clicks_accrued": [0, 0, 0, 0, 0, 0, 0, 0, 0, 0, 0, 0, 0], "stateRewards": ["", 1, 3, -2, 15, 51, 15, -19, 11, 67, -45, -73, 2, 4, -2, -13, 36, 9, -28, 10, -30, 31, 16, 1, 2, -1, -16, 14, -22, 36, -1, 88, -5, 45], "withholdReward": false, "trial_id": "mdp_trial_5", "block": "test", "trialIndex": 6, "score": 89, "costs": 0, "simulationMode": [null, null, null, null, null], "rewards": [1, 2, -1, -1, 88], "path": ["0", "0", "23", "24", "25", "30", "31"], "rt": [3715, 142, 308, 245, 505], "actions": ["left", "left", "left", "down", "right"], "actionTimes": [7526, 8243, 9094, 9910, 10998], "queries": {"click": {"state": {"target": [], "time": []}, "edge": {"target": [], "time": []}}, "mouseover": {"state": {"target": ["14", "19"], "time": [3978, 4096]}, "edge": {"target": [], "time": []}}, "mouseout": {"state": {"target": ["0", "14", "19"], "time": [3898, 4038, 4172]}, "edge": {"target": [], "time": []}}}, "displayed_time": "18.23", "trialTime": 20150, "trial_type": "mouselab-mdp", "trial_index": 13, "time_elapsed": 513489, "internal_node_id": "0.0-4.0-1.0-4.0"}}, {"uniqueid": "w12038840:a48228563", "current_trial": 14, "dateTime": 1691071240034, "trialdata": {"revealed_states": [], "clicked_states": [], "num_clicks_accrued": [0, 0, 0, 0, 0, 0, 0, 0, 0, 0, 0, 0, 0], "stateRewards": ["", 1, -3, -1, 9, -34, -40, 22, -7, 45, 53, -11, 2, 4, 5, 15, 21, 37, -49, -3, 80, -28, -34, 1, -3, 1, 1, -40, -6, -5, -16, -85, -86, 59], "withholdReward": false, "trial_id": "mdp_trial_6", "block": "test", "trialIndex": 7, "score": -20, "costs": 0, "simulationMode": [null, null, null, null, null], "rewards": [2, 4, 5, -3, -28], "path": ["0", "0", "12", "13", "14", "19", "21"], "rt": [4752, 319, 427, 811, 445], "actions": ["right", "right", "right", "down", "down"], "actionTimes": [9753, 10649, 11655, 13033, 14071], "queries": {"click": {"state": {"target": [], "time": []}, "edge": {"target": [], "time": []}}, "mouseover": {"state": {"target": ["22"], "time": [5604]}, "edge": {"target": [], "time": []}}, "mouseout": {"state": {"target": ["31", "23", "12", "0"], "time": [3232, 3264, 3617, 5541]}, "edge": {"target": [], "time": []}}}, "displayed_time": "19.70", "trialTime": 22699, "trial_type": "mouselab-mdp", "trial_index": 14, "time_elapsed": 536690, "internal_node_id": "0.0-4.0-1.0-5.0"}}, {"uniqueid": "w12038840:a48228563", "current_trial": 15, "dateTime": 1691071261872, "trialdata": {"revealed_states": [], "clicked_states": [], "num_clicks_accrued": [0, 0, 0, 0, 0, 0, 0, 0, 0, 0, 0, 0, 0], "stateRewards": ["", 1, -2, 4, 7, -43, -83, -60, -5, -86, -80, 83, -1, -2, 6, 11, -15, 21, 13, 9, 29, -49, 11, -1, 4, -6, -11, 87, 40, 63, -8, -39, -11, 62], "withholdReward": false, "trial_id": "mdp_trial_7", "block": "test", "trialIndex": 8, "score": -33, "costs": 0, "simulationMode": [null, null, null, null, null], "rewards": [1, -2, 4, 7, -43], "path": ["0", "0", "1", "2", "3", "4", "5"], "rt": [1997, 162, 319, 214, 318], "actions": ["up", "up", "up", "right", "up"], "actionTimes": [6905, 7640, 8505, 9288, 10169], "queries": {"click": {"state": {"target": [], "time": []}, "edge": {"target": [], "time": []}}, "mouseover": {"state": {"target": [], "time": []}, "edge": {"target": [], "time": []}}, "mouseout": {"state": {"target": ["22", "0", "23", "0"], "time": [3400, 3582, 3714, 4198]}, "edge": {"target": [], "time": []}}}, "displayed_time": "19.11", "trialTime": 21369, "trial_type": "mouselab-mdp", "trial_index": 15, "time_elapsed": 558529, "internal_node_id": "0.0-4.0-1.0-6.0"}}, {"uniqueid": "w12038840:a48228563", "current_trial": 16, "dateTime": 1691071282320, "trialdata": {"revealed_states": [], "clicked_states": ["23"], "num_clicks_accrued": [0, 0, 0, 0, 0, 0, 0, 0, 0, 0, 0, 0, 0], "stateRewards": ["", 1, 1, 1, -3, -7, -1, -41, -10, 20, -72, -63, 1, -4, -2, 2, -66, 30, -84, -2, 49, 23, 71, -1, -4, 4, -12, 67, 5, 18, -16, 88, 56, -5], "withholdReward": false, "trial_id": "mdp_trial_8", "block": "test", "trialIndex": 9, "score": -71.4, "costs": -1.4, "simulationMode": [null, null, null, null, null], "rewards": [1, 1, 1, -10, -63], "path": ["0", "0", "1", "2", "3", "8", "11"], "rt": [10161, 547, 401, 399, 380], "actions": ["up", "up", "up", "left", "left"], "actionTimes": [12265, 13370, 14363, 15352, 16313], "queries": {"click": {"state": {"target": ["23"], "time": [3712]}, "edge": {"target": [], "time": []}}, "mouseover": {"state": {"target": ["23", "23", "1", "25", "24", "24"], "time": [2769, 3069, 6594, 7784, 8100, 8530]}, "edge": {"target": [], "time": []}}, "mouseout": {"state": {"target": ["0", "23", "23", "23", "1", "25", "24", "24"], "time": [2613, 2808, 4146, 6544, 7530, 7949, 8142, 9696]}, "edge": {"target": [], "time": []}}}, "displayed_time": "16.98", "trialTime": 20009, "trial_type": "mouselab-mdp", "trial_index": 16, "time_elapsed": 578976, "internal_node_id": "0.0-4.0-1.0-7.0"}}, {"uniqueid": "w12038840:a48228563", "current_trial": 17, "dateTime": 1691071302911, "trialdata": {"revealed_states": [], "clicked_states": ["12", "1", "23"], "num_clicks_accrued": [0, 0, 0, 0, 0, 0, 0, 0, 0, 0, 0, 0, 0], "stateRewards": ["", -1, 3, -4, -14, 78, 67, 2, 13, -32, 28, 39, -2, 1, -4, -4, -4, -42, -86, 11, 64, -29, -32, -1, -4, 2, -7, 5, 68, -61, 2, -21, 85, 50], "withholdReward": false, "trial_id": "mdp_trial_9", "block": "test", "trialIndex": 10, "score": 44.8, "costs": -4.199999999999999, "simulationMode": [null, null, null, null, null], "rewards": [-1, -4, 2, 2, 50], "path": ["0", "0", "23", "24", "25", "30", "33"], "rt": [10167, 354, 285, 347, 418], "actions": ["left", "left", "left", "down", "left"], "actionTimes": [12277, 13222, 14101, 15046, 16038], "queries": {"click": {"state": {"target": ["12", "1", "23"], "time": [3605, 6510, 8128]}, "edge": {"target": [], "time": []}}, "mouseover": {"state": {"target": ["12", "12", "1", "23"], "time": [2682, 2987, 6225, 7194]}, "edge": {"target": [], "time": []}}, "mouseout": {"state": {"target": ["0", "0", "12", "12", "12", "1", "23"], "time": [1206, 2649, 2716, 4600, 5799, 7069, 8843]}, "edge": {"target": [], "time": []}}}, "displayed_time": "16.84", "trialTime": 20150, "trial_type": "mouselab-mdp", "trial_index": 17, "time_elapsed": 599568, "internal_node_id": "0.0-4.0-1.0-8.0"}}, {"uniqueid": "w12038840:a48228563", "current_trial": 18, "dateTime": 1691071328143, "trialdata": {"revealed_states": [], "clicked_states": ["12", "1", "13", "14"], "num_clicks_accrued": [0, 0, 0, 0, 0, 0, 0, 0, 0, 0, 0, 0, 0], "stateRewards": ["", 2, 3, 3, 10, 19, -21, 6, 9, 54, 68, 16, 2, 2, -6, -8, 40, -2, -75, -2, -42, 55, 59, -1, 2, 4, -14, 11, -34, -30, -6, 61, -53, 13], "withholdReward": false, "trial_id": "mdp_trial_10", "block": "test", "trialIndex": 11, "score": 65.4, "costs": -5.6, "simulationMode": [null, null, null, null, null], "rewards": [2, 3, 3, 9, 54], "path": ["0", "0", "1", "2", "3", "8", "9"], "rt": [15086, 334, 316, 355, 402], "actions": ["up", "up", "up", "left", "up"], "actionTimes": [17877, 18804, 19732, 20661, 21652], "queries": {"click": {"state": {"target": ["12", "1", "13", "14"], "time": [4086, 5940, 8376, 12541]}, "edge": {"target": [], "time": []}}, "mouseover": {"state": {"target": ["12", "1", "13", "14"], "time": [3773, 4663, 7723, 12292]}, "edge": {"target": [], "time": []}}, "mouseout": {"state": {"target": ["0", "12", "1", "13", "13", "14"], "time": [1981, 4448, 6899, 8784, 12108, 12836]}, "edge": {"target": [], "time": []}}}, "displayed_time": "22.23", "trialTime": 24788, "trial_type": "mouselab-mdp", "trial_index": 18, "time_elapsed": 624799, "internal_node_id": "0.0-4.0-1.0-9.0"}}, {"uniqueid": "w12038840:a48228563", "current_trial": 19, "dateTime": 1691071350416, "trialdata": {"revealed_states": [], "clicked_states": ["1", "23", "12", "13"], "num_clicks_accrued": [0, 0, 0, 0, 0, 0, 0, 0, 0, 0, 0, 0, 0], "stateRewards": ["", -2, -3, -6, -7, 9, 16, 65, 5, -41, 20, -25, -1, -4, 1, -11, -49, -4, 71, 1, 39, -62, 52, -2, -3, 7, -9, -28, -70, 84, 8, 24, -58, 82], "withholdReward": false, "trial_id": "mdp_trial_11", "block": "test", "trialIndex": 12, "score": -82.6, "costs": -5.6, "simulationMode": [null, null, null, null, null], "rewards": [-2, -3, 7, -9, -70], "path": ["0", "0", "23", "24", "25", "26", "28"], "rt": [12457, 184, 220, 167, 250], "actions": ["left", "left", "left", "up", "right"], "actionTimes": [15946, 16703, 17519, 18287, 19120], "queries": {"click": {"state": {"target": ["1", "23", "12", "13"], "time": [4475, 7411, 9739, 11407]}, "edge": {"target": [], "time": []}}, "mouseover": {"state": {"target": ["1", "23", "0", "0", "24", "23", "0", "12", "12", "13"], "time": [4017, 5169, 6253, 6705, 6780, 7114, 7835, 8097, 8664, 10789]}, "edge": {"target": [], "time": []}}, "mouseout": {"state": {"target": ["31", "0", "0", "0", "1", "23", "0", "0", "24", "23", "0", "12", "12", "13"], "time": [1210, 2093, 2228, 3831, 4664, 6183, 6496, 6741, 7064, 7818, 7873, 8219, 10334, 12155]}, "edge": {"target": [], "time": []}}}, "displayed_time": "19.70", "trialTime": 21840, "trial_type": "mouselab-mdp", "trial_index": 19, "time_elapsed": 647072, "internal_node_id": "0.0-4.0-1.0-10.0"}}, {"uniqueid": "w12038840:a48228563", "current_trial": 20, "dateTime": 1691071369199, "trialdata": {"revealed_states": [], "clicked_states": [], "num_clicks_accrued": [0, 0, 0, 0, 0, 0, 0, 0, 0, 0, 0, 0, 0], "stateRewards": ["", -2, -3, 7, -13, 60, 9, 37, -6, 37, 20, 1, 2, -2, -8, 6, -80, -31, -10, -7, 70, -65, -44, -1, 1, 7, 6, -11, 73, -85, 16, -21, 47, 34], "withholdReward": false, "trial_id": "mdp_trial_12", "block": "test", "trialIndex": 13, "score": 55, "costs": 0, "simulationMode": [null, null, null, null, null], "rewards": [2, -2, -8, -7, 70], "path": ["0", "0", "12", "13", "14", "19", "20"], "rt": [2975, 1, 143, 130, 317], "actions": ["right", "right", "right", "down", "right"], "actionTimes": [5186, 5754, 6448, 7153, 8034], "queries": {"click": {"state": {"target": [], "time": []}, "edge": {"target": [], "time": []}}, "mouseover": {"state": {"target": ["0"], "time": [2580]}, "edge": {"target": [], "time": []}}, "mouseout": {"state": {"target": ["0"], "time": [1673]}, "edge": {"target": [], "time": []}}}, "displayed_time": "16.49", "trialTime": 18337, "trial_type": "mouselab-mdp", "trial_index": 20, "time_elapsed": 665856, "internal_node_id": "0.0-4.0-1.0-11.0"}}, {"uniqueid": "w12038840:a48228563", "current_trial": 21, "dateTime": 1691071391119, "trialdata": {"revealed_states": [], "clicked_states": ["12", "13", "14", "15"], "num_clicks_accrued": [0, 0, 0, 0, 0, 0, 0, 0, 0, 0, 0, 0, 0], "stateRewards": ["", 1, -1, 4, -2, -75, -75, 84, -9, -60, -79, 59, 2, -4, 8, 9, -17, -82, 80, 14, -4, 49, 49, -1, 3, 6, -11, -33, 34, 55, 9, -57, 5, 59], "withholdReward": false, "trial_id": "mdp_trial_13", "block": "test", "trialIndex": 14, "score": -72.6, "costs": -5.6, "simulationMode": [null, null, null, null, null], "rewards": [2, -4, 8, 9, -82], "path": ["0", "0", "12", "13", "14", "15", "17"], "rt": [11526, 78, 163, 323, 319], "actions": ["right", "right", "right", "up", "right"], "actionTimes": [12354, 13026, 13762, 14689, 15601], "queries": {"click": {"state": {"target": ["12", "13", "14", "15"], "time": [2563, 4587, 6610, 8457]}, "edge": {"target": [], "time": []}}, "mouseover": {"state": {"target": ["12", "13", "13", "14", "14", "15", "17"], "time": [2297, 2910, 3078, 5090, 5756, 7969, 10497]}, "edge": {"target": [], "time": []}}, "mouseout": {"state": {"target": ["0", "12", "13", "13", "14", "14", "15", "17"], "time": [1745, 2841, 2977, 4941, 5137, 7901, 10443, 10547]}, "edge": {"target": [], "time": []}}}, "displayed_time": "16.19", "trialTime": 21457, "trial_type": "mouselab-mdp", "trial_index": 21, "time_elapsed": 687776, "internal_node_id": "0.0-4.0-1.0-12.0"}}, {"uniqueid": "w12038840:a48228563", "current_trial": 22, "dateTime": 1691071409648, "trialdata": {"revealed_states": [], "clicked_states": [], "num_clicks_accrued": [0, 0, 0, 0, 0, 0, 0, 0, 0, 0, 0, 0, 0], "stateRewards": ["", -2, -1, -2, -15, 87, 57, 29, -10, 77, -80, -7, 1, -3, 6, 14, -11, 87, -59, 4, -71, 16, -11, 2, 2, -7, 2, -47, 61, 50, 14, -20, 17, 81], "withholdReward": false, "trial_id": "mdp_trial_14", "block": "test", "trialIndex": 15, "score": -48, "costs": 0, "simulationMode": [null, null, null, null, null], "rewards": [2, 2, -7, 2, -47], "path": ["0", "0", "23", "24", "25", "26", "27"], "rt": [1629, 85, 203, 142, 179], "actions": ["left", "left", "left", "up", "up"], "actionTimes": [3762, 4388, 5156, 5860, 6596], "queries": {"click": {"state": {"target": [], "time": []}, "edge": {"target": [], "time": []}}, "mouseover": {"state": {"target": [], "time": []}, "edge": {"target": [], "time": []}}, "mouseout": {"state": {"target": ["14", "24", "24", "23", "0", "12"], "time": [927, 973, 1226, 1266, 1293, 1514]}, "edge": {"target": [], "time": []}}}, "displayed_time": "16.48", "trialTime": 18052, "trial_type": "mouselab-mdp", "trial_index": 22, "time_elapsed": 706305, "internal_node_id": "0.0-4.0-1.0-13.0"}}, {"uniqueid": "w12038840:a48228563", "current_trial": 23, "dateTime": 1691071435327, "trialdata": {"revealed_states": [], "clicked_states": ["23", "24", "1", "2", "12", "13"], "num_clicks_accrued": [0, 0, 0, 0, 0, 0, 0, 0, 0, 0, 0, 0, 0], "stateRewards": ["", -2, -3, 8, 14, -73, 73, 84, -12, -2, -50, -17, 2, 1, -2, -9, -44, -27, -33, 16, -63, -47, -66, -2, 1, 4, -5, -33, -11, 50, 9, 38, -79, 31], "withholdReward": false, "trial_id": "mdp_trial_15", "block": "test", "trialIndex": 16, "score": -57.4, "costs": -8.4, "simulationMode": [null, null, null, null, null], "rewards": [2, 1, -2, 16, -66], "path": ["0", "0", "12", "13", "14", "19", "22"], "rt": [16415, 182, 245, 905, 678], "actions": ["right", "right", "right", "down", "left"], "actionTimes": [18012, 18794, 19628, 21132, 22396], "queries": {"click": {"state": {"target": ["23", "24", "1", "2", "12", "13"], "time": [2693, 5095, 7176, 9548, 11470, 13910]}, "edge": {"target": [], "time": []}}, "mouseover": {"state": {"target": ["23", "23", "24", "1", "2", "12", "13"], "time": [2079, 2382, 3210, 6878, 8101, 10200, 12160]}, "edge": {"target": [], "time": []}}, "mouseout": {"state": {"target": ["0", "23", "23", "24", "1", "2", "12", "13"], "time": [2044, 2111, 3174, 5631, 7306, 9997, 11904, 14390]}, "edge": {"target": [], "time": []}}}, "displayed_time": "22.98", "trialTime": 25196, "trial_type": "mouselab-mdp", "trial_index": 23, "time_elapsed": 731984, "internal_node_id": "0.0-4.0-1.0-14.0"}}, {"uniqueid": "w12038840:a48228563", "current_trial": 24, "dateTime": 1691071455775, "trialdata": {"revealed_states": [], "clicked_states": ["1", "23"], "num_clicks_accrued": [0, 0, 0, 0, 0, 0, 0, 0, 0, 0, 0, 0, 0], "stateRewards": ["", -1, 2, -6, 6, 43, 78, 78, -2, 55, -29, -17, -2, -4, 1, -15, 13, 7, -79, 8, -28, -68, 36, -1, -3, 3, -16, 84, -18, 87, 10, 32, 13, -81], "withholdReward": false, "trial_id": "mdp_trial_16", "block": "test", "trialIndex": 17, "score": -9.8, "costs": -2.8, "simulationMode": [null, null, null, null, null], "rewards": [-2, -4, 1, -15, 13], "path": ["0", "0", "12", "13", "14", "15", "16"], "rt": [9537, 283, 154, 138, 222], "actions": ["right", "right", "right", "up", "up"], "actionTimes": [11695, 12573, 13341, 14109, 14911], "queries": {"click": {"state": {"target": ["1", "23"], "time": [3377, 6081]}, "edge": {"target": [], "time": []}}, "mouseover": {"state": {"target": ["1", "2", "1", "23", "0", "12", "13", "12", "0"], "time": [2728, 2793, 3063, 5852, 6511, 6592, 6643, 6944, 10378]}, "edge": {"target": [], "time": []}}, "mouseout": {"state": {"target": ["32", "31", "0", "1", "2", "1", "23", "0", "12", "13", "12"], "time": [828, 858, 2689, 2761, 3031, 5649, 6498, 6578, 6629, 6834, 8580]}, "edge": {"target": [], "time": []}}}, "displayed_time": "16.90", "trialTime": 20015, "trial_type": "mouselab-mdp", "trial_index": 24, "time_elapsed": 752432, "internal_node_id": "0.0-4.0-1.0-15.0"}}, {"uniqueid": "w12038840:a48228563", "current_trial": 25, "dateTime": 1691071474335, "trialdata": {"revealed_states": [], "clicked_states": [], "num_clicks_accrued": [0, 0, 0, 0, 0, 0, 0, 0, 0, 0, 0, 0, 0], "stateRewards": ["", -1, 4, -6, -5, -22, -38, -38, -2, -56, 88, 14, -1, -1, -7, -6, 61, -60, 21, 11, 57, 31, -30, -2, -2, 6, -9, -44, -70, -44, -15, 34, 16, -78], "withholdReward": false, "trial_id": "mdp_trial_17", "block": "test", "trialIndex": 18, "score": -77, "costs": 0, "simulationMode": [null, null, null, null, null], "rewards": [-2, -2, 6, -9, -70], "path": ["0", "0", "23", "24", "25", "26", "28"], "rt": [2557, 167, 201, 174, 170], "actions": ["left", "left", "left", "up", "right"], "actionTimes": [4673, 5376, 6128, 6879, 7615], "queries": {"click": {"state": {"target": [], "time": []}, "edge": {"target": [], "time": []}}, "mouseover": {"state": {"target": ["23"], "time": [2949]}, "edge": {"target": [], "time": []}}, "mouseout": {"state": {"target": ["0"], "time": [1548]}, "edge": {"target": [], "time": []}}}, "displayed_time": "16.29", "trialTime": 18096, "trial_type": "mouselab-mdp", "trial_index": 25, "time_elapsed": 770992, "internal_node_id": "0.0-4.0-1.0-16.0"}}, {"uniqueid": "w12038840:a48228563", "current_trial": 26, "dateTime": 1691071497727, "trialdata": {"revealed_states": [], "clicked_states": ["1", "23", "12", "13", "14"], "num_clicks_accrued": [0, 0, 0, 0, 0, 0, 0, 0, 0, 0, 0, 0, 0], "stateRewards": ["", 1, 1, -5, 8, -6, 45, 16, -6, -7, -22, -38, -1, -4, 8, -11, -16, 21, -45, -15, -59, -32, 42, -1, 3, 6, 11, -7, 34, -27, -8, 85, 43, -9], "withholdReward": false, "trial_id": "mdp_trial_18", "block": "test", "trialIndex": 19, "score": -31, "costs": -7, "simulationMode": [null, null, null, null, null], "rewards": [-1, -4, 8, -11, -16], "path": ["0", "0", "12", "13", "14", "15", "16"], "rt": [13533, 20, 113, 190, 185], "actions": ["right", "right", "right", "up", "up"], "actionTimes": [16385, 17006, 17712, 18481, 19249], "queries": {"click": {"state": {"target": ["1", "23", "12", "13", "14"], "time": [4641, 6699, 8694, 10454, 12417]}, "edge": {"target": [], "time": []}}, "mouseover": {"state": {"target": ["23", "1", "1", "23", "0", "12", "13", "14"], "time": [3698, 4010, 4377, 5079, 7383, 7903, 9997, 11311]}, "edge": {"target": [], "time": []}}, "mouseout": {"state": {"target": ["23", "12", "0", "23", "1", "1", "23", "0", "12", "13", "14", "20"], "time": [1567, 1863, 3664, 3729, 4049, 5012, 7343, 7710, 9844, 11251, 14775, 21479]}, "edge": {"target": [], "time": []}}}, "displayed_time": "19.84", "trialTime": 22913, "trial_type": "mouselab-mdp", "trial_index": 26, "time_elapsed": 794383, "internal_node_id": "0.0-4.0-1.0-17.0"}}, {"uniqueid": "w12038840:a48228563", "current_trial": 27, "dateTime": 1691071516192, "trialdata": {"revealed_states": [], "clicked_states": [], "num_clicks_accrued": [0, 0, 0, 0, 0, 0, 0, 0, 0, 0, 0, 0, 0], "stateRewards": ["", 2, -4, -4, 13, -80, 62, 13, -11, 57, -13, -44, 1, 4, 3, -4, -29, -88, 15, 16, -58, 68, -45, -1, -3, -1, -9, -44, -86, -19, -7, -36, 59, 66], "withholdReward": false, "trial_id": "mdp_trial_19", "block": "test", "trialIndex": 20, "score": 40, "costs": 0, "simulationMode": [null, null, null, null, null], "rewards": [2, -4, -4, -11, 57], "path": ["0", "0", "1", "2", "3", "8", "9"], "rt": [1604, 103, 138, 375, 155], "actions": ["up", "up", "up", "left", "up"], "actionTimes": [3619, 4290, 4993, 5939, 6659], "queries": {"click": {"state": {"target": [], "time": []}, "edge": {"target": [], "time": []}}, "mouseover": {"state": {"target": [], "time": []}, "edge": {"target": [], "time": []}}, "mouseout": {"state": {"target": ["0"], "time": [1265]}, "edge": {"target": [], "time": []}}}, "displayed_time": "16.38", "trialTime": 18020, "trial_type": "mouselab-mdp", "trial_index": 27, "time_elapsed": 812848, "internal_node_id": "0.0-4.0-1.0-18.0"}}, {"uniqueid": "w12038840:a48228563", "current_trial": 28, "dateTime": 1691071535263, "trialdata": {"revealed_states": [], "clicked_states": [], "num_clicks_accrued": [0, 0, 0, 0, 0, 0, 0, 0, 0, 0, 0, 0, 0], "stateRewards": ["", 1, -4, -4, 8, 1, -79, 68, -10, -79, 8, -74, -1, -3, -6, 14, 43, 23, 9, 5, -51, 63, 61, -2, 4, 6, -10, 69, -32, 57, 15, -80, -80, -77], "withholdReward": false, "trial_id": "mdp_trial_20", "block": "test", "trialIndex": 21, "score": -96, "costs": 0, "simulationMode": [null, null, null, null, null], "rewards": [1, -4, -4, -10, -79], "path": ["0", "0", "1", "2", "3", "8", "9"], "rt": [3781, 57, 187, 129, 202], "actions": ["up", "up", "up", "left", "up"], "actionTimes": [6449, 7072, 7808, 8513, 9280], "queries": {"click": {"state": {"target": [], "time": []}, "edge": {"target": [], "time": []}}, "mouseover": {"state": {"target": [], "time": []}, "edge": {"target": [], "time": []}}, "mouseout": {"state": {"target": ["0"], "time": [1951]}, "edge": {"target": [], "time": []}}}, "displayed_time": "16.91", "trialTime": 18593, "trial_type": "mouselab-mdp", "trial_index": 28, "time_elapsed": 831920, "internal_node_id": "0.0-4.0-1.0-19.0"}}, {"uniqueid": "w12038840:a48228563", "current_trial": 29, "dateTime": 1691071555245, "trialdata": {"revealed_states": [], "clicked_states": [], "num_clicks_accrued": [0, 0, 0, 0, 0, 0, 0, 0, 0, 0, 0, 0, 0], "stateRewards": ["", -2, -4, -6, 12, -58, -70, -80, 2, 16, -88, -62, 1, 2, -5, 11, 77, -35, -44, -5, 18, -83, 87, 1, -3, -5, 13, -44, -21, -86, 10, -52, 8, 29], "withholdReward": false, "trial_id": "mdp_trial_21", "block": "test", "trialIndex": 22, "score": -90, "costs": 0, "simulationMode": [null, null, null, null, null], "rewards": [1, 2, -5, -5, -83], "path": ["0", "0", "12", "13", "14", "19", "21"], "rt": [1922, 289, 1, 804, 1], "actions": ["right", "right", "right", "down", "down"], "actionTimes": [3364, 4229, 4791, 6151, 6709], "queries": {"click": {"state": {"target": [], "time": []}, "edge": {"target": [], "time": []}}, "mouseover": {"state": {"target": [], "time": []}, "edge": {"target": [], "time": []}}, "mouseout": {"state": {"target": [], "time": []}, "edge": {"target": [], "time": []}}}, "displayed_time": "15.83", "trialTime": 19539, "trial_type": "mouselab-mdp", "trial_index": 29, "time_elapsed": 851902, "internal_node_id": "0.0-4.0-1.0-20.0"}}, {"uniqueid": "w12038840:a48228563", "current_trial": 30, "dateTime": 1691071577391, "trialdata": {"revealed_states": [], "clicked_states": [], "num_clicks_accrued": [0, 0, 0, 0, 0, 0, 0, 0, 0, 0, 0, 0, 0], "stateRewards": ["", -2, 3, -1, 2, -72, 63, 20, -1, 62, -66, 39, -2, 3, -6, 14, 22, 47, 1, 8, -49, -1, -41, 2, 2, -6, -16, -64, -60, -34, 16, 54, 22, -7], "withholdReward": false, "trial_id": "mdp_trial_22", "block": "test", "trialIndex": 23, "score": -52, "costs": 0, "simulationMode": [null, null, null, null, null], "rewards": [2, 2, -6, -16, -34], "path": ["0", "0", "23", "24", "25", "26", "29"], "rt": [1359, 79, 204, 163, 129], "actions": ["left", "left", "left", "up", "left"], "actionTimes": [4095, 4720, 5473, 6192, 6897], "queries": {"click": {"state": {"target": [], "time": []}, "edge": {"target": [], "time": []}}, "mouseover": {"state": {"target": [], "time": []}, "edge": {"target": [], "time": []}}, "mouseout": {"state": {"target": [], "time": []}, "edge": {"target": [], "time": []}}}, "displayed_time": "17.07", "trialTime": 21712, "trial_type": "mouselab-mdp", "trial_index": 30, "time_elapsed": 874046, "internal_node_id": "0.0-4.0-1.0-21.0"}}, {"uniqueid": "w12038840:a48228563", "current_trial": 31, "dateTime": 1691071597452, "trialdata": {"revealed_states": [], "clicked_states": ["23", "24", "25"], "num_clicks_accrued": [0, 0, 0, 0, 0, 0, 0, 0, 0, 0, 0, 0, 0], "stateRewards": ["", -2, 4, -5, -12, 85, -24, -18, -15, -78, -22, 26, -1, -1, 2, 14, -45, 52, -23, 7, -33, 24, -6, -2, -4, 5, -7, -16, 36, -39, 5, 71, -87, -23], "withholdReward": false, "trial_id": "mdp_trial_23", "block": "test", "trialIndex": 24, "score": 26.8, "costs": -4.199999999999999, "simulationMode": [null, null, null, null, null], "rewards": [-1, -1, 2, 7, 24], "path": ["0", "0", "12", "13", "14", "19", "21"], "rt": [9800, 17, 82, 119, 192], "actions": ["right", "right", "right", "down", "down"], "actionTimes": [11705, 12327, 13000, 13705, 14490], "queries": {"click": {"state": {"target": ["23", "24", "25"], "time": [3852, 5577, 7385]}, "edge": {"target": [], "time": []}}, "mouseover": {"state": {"target": ["23", "24", "23", "23", "24", "23", "24", "25", "24", "25"], "time": [2424, 2488, 2763, 3110, 3190, 3577, 4210, 4736, 5199, 6084]}, "edge": {"target": [], "time": []}}, "mouseout": {"state": {"target": ["0", "23", "24", "23", "23", "24", "23", "24", "25", "24", "25"], "time": [2391, 2458, 2731, 2914, 3160, 3476, 4041, 4694, 5097, 6071, 8130]}, "edge": {"target": [], "time": []}}}, "displayed_time": "16.75", "trialTime": 19608, "trial_type": "mouselab-mdp", "trial_index": 31, "time_elapsed": 894109, "internal_node_id": "0.0-4.0-1.0-22.0"}}, {"uniqueid": "w12038840:a48228563", "current_trial": 32, "dateTime": 1691071619535, "trialdata": {"revealed_states": [], "clicked_states": ["1", "2", "12"], "num_clicks_accrued": [0, 0, 0, 0, 0, 0, 0, 0, 0, 0, 0, 0, 0], "stateRewards": ["", -1, -1, 4, -16, -75, 81, -51, -7, -84, 73, -30, -2, 1, -3, -16, -77, 33, 14, 1, 45, 87, -66, 2, 2, -5, -7, -19, -17, 79, -3, 8, 49, 47], "withholdReward": false, "trial_id": "mdp_trial_24", "block": "test", "trialIndex": 25, "score": 66.8, "costs": -4.199999999999999, "simulationMode": [null, null, null, null, null], "rewards": [2, 2, -5, -7, 79], "path": ["0", "0", "23", "24", "25", "26", "29"], "rt": [10874, 62, 63, 78, 124], "actions": ["left", "left", "left", "up", "left"], "actionTimes": [13253, 13860, 14516, 15173, 15879], "queries": {"click": {"state": {"target": ["1", "2", "12"], "time": [3704, 5548, 8930]}, "edge": {"target": [], "time": []}}, "mouseover": {"state": {"target": ["1", "2", "7", "2", "3", "3", "12"], "time": [2860, 4624, 4993, 5230, 6165, 6530, 8378]}, "edge": {"target": [], "time": []}}, "mouseout": {"state": {"target": ["24", "23", "0", "1", "2", "7", "2", "3", "3", "12"], "time": [1474, 1591, 2792, 3882, 4733, 5192, 5987, 6242, 8248, 9491]}, "edge": {"target": [], "time": []}}}, "displayed_time": "16.86", "trialTime": 21606, "trial_type": "mouselab-mdp", "trial_index": 32, "time_elapsed": 916191, "internal_node_id": "0.0-4.0-1.0-23.0"}}, {"uniqueid": "w12038840:a48228563", "current_trial": 33, "dateTime": 1691071639692, "trialdata": {"revealed_states": [], "clicked_states": [], "num_clicks_accrued": [0, 0, 0, 0, 0, 0, 0, 0, 0, 0, 0, 0, 0], "stateRewards": ["", 1, 4, 5, -5, 58, -80, 75, 6, 25, -39, 46, 2, -2, 4, 2, 59, 31, -22, -12, -61, 15, 72, 1, -2, -7, 8, 77, 76, -23, -7, 71, -15, -3], "withholdReward": false, "trial_id": "mdp_trial_25", "block": "test", "trialIndex": 26, "score": -30, "costs": 0, "simulationMode": [null, null, null, null, null], "rewards": [1, -2, -7, -7, -15], "path": ["0", "0", "23", "24", "25", "30", "32"], "rt": [1865, 79, 181, 0, 825], "actions": ["left", "left", "left", "down", "down"], "actionTimes": [3454, 4077, 4797, 5347, 6751], "queries": {"click": {"state": {"target": [], "time": []}, "edge": {"target": [], "time": []}}, "mouseover": {"state": {"target": [], "time": []}, "edge": {"target": [], "time": []}}, "mouseout": {"state": {"target": ["12"], "time": [817]}, "edge": {"target": [], "time": []}}}, "displayed_time": "15.93", "trialTime": 19708, "trial_type": "mouselab-mdp", "trial_index": 33, "time_elapsed": 936349, "internal_node_id": "0.0-4.0-1.0-24.0"}}, {"uniqueid": "w12038840:a48228563", "current_trial": 34, "dateTime": 1691071664990, "trialdata": {"revealed_states": [], "clicked_states": [], "num_clicks_accrued": [0, 0, 0, 0, 0, 0, 0, 0, 0, 0, 0, 0, 0], "stateRewards": ["", 2, -1, 1, 10, -52, 86, -22, -2, -14, -63, 38, 1, 3, 7, -8, 11, -32, -27, 9, -71, 40, -87, -2, -1, 5, -7, 12, 31, -57, 13, 86, -58, 29], "withholdReward": false, "trial_id": "mdp_trial_26", "block": "test", "trialIndex": 27, "score": -24, "costs": 0, "simulationMode": [null, null, null, null, null], "rewards": [1, 3, 7, -8, -27], "path": ["0", "0", "12", "13", "14", "15", "18"], "rt": [2027, 87, 99, 147, 62], "actions": ["right", "right", "right", "up", "left"], "actionTimes": [3370, 4026, 4681, 5370, 6025], "queries": {"click": {"state": {"target": [], "time": []}, "edge": {"target": [], "time": []}}, "mouseover": {"state": {"target": ["12", "12"], "time": [2053, 2243]}, "edge": {"target": [], "time": []}}, "mouseout": {"state": {"target": ["0", "12", "12"], "time": [1822, 2089, 2347]}, "edge": {"target": [], "time": []}}}, "displayed_time": "15.67", "trialTime": 24858, "trial_type": "mouselab-mdp", "trial_index": 34, "time_elapsed": 961647, "internal_node_id": "0.0-4.0-1.0-25.0"}}, {"uniqueid": "w12038840:a48228563", "current_trial": 35, "dateTime": 1691071689581, "trialdata": {"revealed_states": [], "clicked_states": [], "num_clicks_accrued": [0, 0, 0, 0, 0, 0, 0, 0, 0, 0, 0, 0, 0], "stateRewards": ["", 2, 1, -3, 7, 46, 11, -36, 16, 71, 5, 1, 2, -2, -8, -3, -4, 6, 55, 7, 68, -54, 2, 1, 1, 6, -6, 42, -4, -84, -11, -65, 63, 25], "withholdReward": false, "trial_id": "mdp_trial_27", "block": "test", "trialIndex": 28, "score": -5, "costs": 0, "simulationMode": [null, null, null, null, null], "rewards": [2, -2, -8, -3, 6], "path": ["0", "0", "12", "13", "14", "15", "17"], "rt": [2258, 66, 85, 129, 145], "actions": ["right", "right", "right", "up", "right"], "actionTimes": [5946, 6569, 7225, 7914, 8602], "queries": {"click": {"state": {"target": [], "time": []}, "edge": {"target": [], "time": []}}, "mouseover": {"state": {"target": [], "time": []}, "edge": {"target": [], "time": []}}, "mouseout": {"state": {"target": [], "time": []}, "edge": {"target": [], "time": []}}}, "displayed_time": "17.91", "trialTime": 24154, "trial_type": "mouselab-mdp", "trial_index": 35, "time_elapsed": 986238, "internal_node_id": "0.0-4.0-1.0-26.0"}}, {"uniqueid": "w12038840:a48228563", "current_trial": 36, "dateTime": 1691071713534, "trialdata": {"revealed_states": [], "clicked_states": [], "num_clicks_accrued": [0, 0, 0, 0, 0, 0, 0, 0, 0, 0, 0, 0, 0], "stateRewards": ["", 1, 4, -8, -13, -13, -87, -77, -10, -44, 54, 42, 2, -3, -4, 12, -9, -80, 52, 9, 84, -2, -65, 1, -4, -5, -6, 8, 80, 32, 13, -59, -5, -13], "withholdReward": false, "trial_id": "mdp_trial_28", "block": "test", "trialIndex": 29, "score": -29, "costs": 0, "simulationMode": [null, null, null, null, null], "rewards": [1, 4, -8, -13, -13], "path": ["0", "0", "1", "2", "3", "4", "5"], "rt": [4565, 513, 121, 57, 107], "actions": ["up", "up", "up", "right", "up"], "actionTimes": [11748, 12836, 13508, 14147, 14852], "queries": {"click": {"state": {"target": [], "time": []}, "edge": {"target": [], "time": []}}, "mouseover": {"state": {"target": [], "time": []}, "edge": {"target": [], "time": []}}, "mouseout": {"state": {"target": ["0", "0"], "time": [4970, 6078]}, "edge": {"target": [], "time": []}}}, "displayed_time": "21.45", "trialTime": 23508, "trial_type": "mouselab-mdp", "trial_index": 36, "time_elapsed": 1010191, "internal_node_id": "0.0-4.0-1.0-27.0"}}, {"uniqueid": "w12038840:a48228563", "current_trial": 37, "dateTime": 1691071736862, "trialdata": {"revealed_states": [], "clicked_states": ["25", "14", "3"], "num_clicks_accrued": [0, 0, 0, 0, 0, 0, 0, 0, 0, 0, 0, 0, 0], "stateRewards": ["", 1, 3, 3, -10, 52, 68, 59, 12, 7, 49, 21, -2, -3, -4, -2, -2, 63, 63, -4, 44, 43, -76, -2, -3, -6, 13, 48, 36, 12, -5, -36, -33, -11], "withholdReward": false, "trial_id": "mdp_trial_29", "block": "test", "trialIndex": 30, "score": 21.8, "costs": -4.199999999999999, "simulationMode": [null, null, null, null, null], "rewards": [1, 3, 3, 12, 7], "path": ["0", "0", "1", "2", "3", "8", "9"], "rt": [12540, 67, 202, 165, 196], "actions": ["up", "up", "up", "left", "up"], "actionTimes": [14272, 14927, 15726, 16478, 17247], "queries": {"click": {"state": {"target": ["25", "14", "3"], "time": [3601, 6269, 9130]}, "edge": {"target": [], "time": []}}, "mouseover": {"state": {"target": ["23", "24", "25", "25", "30", "31", "12", "13", "14", "14", "3", "2", "7", "16"], "time": [2340, 2407, 2846, 3326, 4252, 4725, 5037, 5088, 5257, 6060, 8791, 9782, 11645, 11747]}, "edge": {"target": [], "time": []}}, "mouseout": {"state": {"target": ["0", "0", "23", "24", "25", "25", "25", "30", "31", "12", "13", "14", "14", "14", "3", "2", "7", "16"], "time": [489, 736, 2376, 2807, 3106, 3631, 3766, 4321, 4763, 5076, 5224, 5295, 6843, 8462, 9723, 9837, 11697, 11796]}, "edge": {"target": [], "time": []}}}, "displayed_time": "17.85", "trialTime": 22880, "trial_type": "mouselab-mdp", "trial_index": 37, "time_elapsed": 1033519, "internal_node_id": "0.0-4.0-1.0-28.0"}}, {"uniqueid": "w12038840:a48228563", "current_trial": 38, "dateTime": 1691071757230, "trialdata": {"revealed_states": [], "clicked_states": ["25", "3", "14"], "num_clicks_accrued": [0, 0, 0, 0, 0, 0, 0, 0, 0, 0, 0, 0, 0], "stateRewards": ["", -2, 2, -5, 1, 42, -63, -58, -6, 2, 16, 81, -2, 4, 7, -10, 33, 3, -33, -2, -52, -84, -27, 2, -3, -3, 15, -74, -14, -5, -5, -84, 79, -31], "withholdReward": false, "trial_id": "mdp_trial_30", "block": "test", "trialIndex": 31, "score": -24.2, "costs": -4.199999999999999, "simulationMode": [null, null, null, null, null], "rewards": [-2, 4, 7, -2, -27], "path": ["0", "0", "12", "13", "14", "19", "22"], "rt": [9544, 13, 111, 255, 596], "actions": ["right", "right", "right", "down", "left"], "actionTimes": [12890, 13465, 14170, 15021, 16203], "queries": {"click": {"state": {"target": ["25", "3", "14"], "time": [4625, 7005, 9192]}, "edge": {"target": [], "time": []}}, "mouseover": {"state": {"target": ["23", "24", "25", "10", "3", "3", "7", "18", "13", "13", "14"], "time": [3809, 3864, 4221, 4984, 5038, 5223, 7397, 7469, 7643, 7931, 8326]}, "edge": {"target": [], "time": []}}, "mouseout": {"state": {"target": ["19", "0", "0", "23", "24", "25", "10", "3", "3", "7", "18", "13", "13", "14"], "time": [1985, 2300, 3774, 3852, 3890, 4886, 5026, 5067, 7385, 7430, 7629, 7787, 8127, 9575]}, "edge": {"target": [], "time": []}}}, "displayed_time": "17.95", "trialTime": 19930, "trial_type": "mouselab-mdp", "trial_index": 38, "time_elapsed": 1053887, "internal_node_id": "0.0-4.0-1.0-29.0"}}, {"uniqueid": "w12038840:a48228563", "current_trial": 39, "dateTime": 1691071775599, "trialdata": {"revealed_states": [], "clicked_states": ["25", "3", "14"], "num_clicks_accrued": [0, 0, 0, 0, 0, 0, 0, 0, 0, 0, 0, 0, 0], "stateRewards": ["", 1, -1, 1, 13, 31, -56, 72, 2, 41, 5, 63, -2, -3, -2, 3, -71, -26, 52, 13, -31, 24, -67, 2, -2, 5, 4, 66, 43, 72, 9, 86, -26, 44], "withholdReward": false, "trial_id": "mdp_trial_31", "block": "test", "trialIndex": 32, "score": 76.8, "costs": -4.199999999999999, "simulationMode": [null, null, null, null, null], "rewards": [2, -2, 5, 4, 72], "path": ["0", "0", "23", "24", "25", "26", "29"], "rt": [8605, 10, 173, 237, 117], "actions": ["left", "left", "left", "up", "left"], "actionTimes": [10397, 11004, 11772, 12590, 13293], "queries": {"click": {"state": {"target": ["25", "3", "14"], "time": [2950, 4975, 6986]}, "edge": {"target": [], "time": []}}, "mouseover": {"state": {"target": ["24", "25", "28", "10", "3", "3", "7", "18", "14"], "time": [2199, 2294, 3171, 3338, 3735, 3998, 5604, 5685, 6014]}, "edge": {"target": [], "time": []}}, "mouseout": {"state": {"target": ["14", "13", "0", "24", "25", "28", "10", "3", "3", "7", "18", "14"], "time": [670, 695, 1324, 2237, 3011, 3271, 3408, 3772, 5526, 5646, 5725, 7449]}, "edge": {"target": [], "time": []}}}, "displayed_time": "16.48", "trialTime": 17918, "trial_type": "mouselab-mdp", "trial_index": 39, "time_elapsed": 1072255, "internal_node_id": "0.0-4.0-1.0-30.0"}}, {"uniqueid": "w12038840:a48228563", "current_trial": 40, "dateTime": 1691071795886, "trialdata": {"revealed_states": [], "clicked_states": ["25", "3", "14"], "num_clicks_accrued": [0, 0, 0, 0, 0, 0, 0, 0, 0, 0, 0, 0, 0], "stateRewards": ["", 2, -4, 4, 9, 69, 9, -75, 12, -86, 66, 25, -1, 3, 2, -13, -88, -3, 1, 4, -69, 49, -84, 2, -1, 4, 2, -18, -81, -52, -15, -69, -54, 25], "withholdReward": false, "trial_id": "mdp_trial_32", "block": "test", "trialIndex": 33, "score": 34.8, "costs": -4.199999999999999, "simulationMode": [null, null, null, null, null], "rewards": [2, -4, 4, 12, 25], "path": ["0", "0", "1", "2", "3", "8", "11"], "rt": [8895, 357, 66, 18, 151], "actions": ["up", "up", "up", "left", "left"], "actionTimes": [11033, 11978, 12633, 13271, 14010], "queries": {"click": {"state": {"target": ["25", "3", "14"], "time": [3264, 5315, 7287]}, "edge": {"target": [], "time": []}}, "mouseover": {"state": {"target": ["23", "24", "25", "28", "10", "3", "7", "18", "15", "14"], "time": [2612, 2657, 2859, 3519, 3590, 4189, 5828, 5913, 5966, 6042]}, "edge": {"target": [], "time": []}}, "mouseout": {"state": {"target": ["12", "0", "0", "23", "24", "25", "28", "10", "3", "3", "7", "18", "15", "14"], "time": [977, 1200, 2571, 2645, 2679, 3423, 3555, 3860, 5416, 5685, 5870, 5954, 6004, 7963]}, "edge": {"target": [], "time": []}}}, "displayed_time": "16.89", "trialTime": 19802, "trial_type": "mouselab-mdp", "trial_index": 40, "time_elapsed": 1092542, "internal_node_id": "0.0-4.0-1.0-31.0"}}, {"uniqueid": "w12038840:a48228563", "current_trial": 41, "dateTime": 1691071814795, "trialdata": {"revealed_states": [], "clicked_states": ["25", "3", "14"], "num_clicks_accrued": [0, 0, 0, 0, 0, 0, 0, 0, 0, 0, 0, 0, 0], "stateRewards": ["", -2, -2, -7, -13, -10, 49, -68, -1, 84, 70, 88, 1, 4, 4, 12, -57, 25, 30, 8, -1, -77, 57, 2, 3, 2, 3, -18, -80, 23, -15, -41, 70, 11], "withholdReward": false, "trial_id": "mdp_trial_33", "block": "test", "trialIndex": 34, "score": 11.8, "costs": -4.199999999999999, "simulationMode": [null, null, null, null, null], "rewards": [1, 4, 4, 8, -1], "path": ["0", "0", "12", "13", "14", "19", "20"], "rt": [8564, 40, 135, 147, 827], "actions": ["right", "right", "right", "down", "right"], "actionTimes": [10408, 11014, 11736, 12471, 13895], "queries": {"click": {"state": {"target": ["25", "3", "14"], "time": [2559, 4562, 6595]}, "edge": {"target": [], "time": []}}, "mouseover": {"state": {"target": ["23", "25", "24", "2", "3", "3", "7", "18", "13", "14"], "time": [1909, 2266, 2991, 3093, 3267, 3484, 4981, 5163, 5220, 5363]}, "edge": {"target": [], "time": []}}, "mouseout": {"state": {"target": ["24", "23", "0", "23", "25", "24", "2", "3", "3", "7", "18", "13", "14"], "time": [810, 1060, 1898, 2082, 2837, 3027, 3255, 3298, 4942, 5019, 5208, 5323, 6999]}, "edge": {"target": [], "time": []}}}, "displayed_time": "16.48", "trialTime": 18470, "trial_type": "mouselab-mdp", "trial_index": 41, "time_elapsed": 1111452, "internal_node_id": "0.0-4.0-1.0-32.0"}}, {"uniqueid": "w12038840:a48228563", "current_trial": 42, "dateTime": 1691071833166, "trialdata": {"revealed_states": [], "clicked_states": ["25", "3", "14"], "num_clicks_accrued": [0, 0, 0, 0, 0, 0, 0, 0, 0, 0, 0, 0, 0], "stateRewards": ["", 2, -1, -1, -9, -81, -30, 55, -6, 78, 25, 62, 2, 4, -1, 9, -85, 1, -19, 1, -60, 12, -34, 1, 4, -1, -13, -24, -16, -83, -8, 16, 43, 9], "withholdReward": false, "trial_id": "mdp_trial_34", "block": "test", "trialIndex": 35, "score": 67.8, "costs": -4.199999999999999, "simulationMode": [null, null, null, null, null], "rewards": [2, -1, -1, -6, 78], "path": ["0", "0", "1", "2", "3", "8", "9"], "rt": [9618, 580, 128, 1, 174], "actions": ["up", "up", "up", "left", "up"], "actionTimes": [11329, 12513, 13218, 13815, 14546], "queries": {"click": {"state": {"target": ["25", "3", "14"], "time": [3020, 4955, 6934]}, "edge": {"target": [], "time": []}}, "mouseover": {"state": {"target": ["23", "25", "25", "10", "3", "7", "18", "14"], "time": [1945, 2026, 2598, 3741, 3917, 5377, 5455, 5609]}, "edge": {"target": [], "time": []}}, "mouseout": {"state": {"target": ["14", "13", "12", "0", "23", "25", "25", "10", "3", "7", "18", "14"], "time": [592, 744, 776, 1833, 1975, 2310, 3523, 3845, 5337, 5415, 5529, 7336]}, "edge": {"target": [], "time": []}}}, "displayed_time": "16.39", "trialTime": 17922, "trial_type": "mouselab-mdp", "trial_index": 42, "time_elapsed": 1129822, "internal_node_id": "0.0-4.0-1.0-33.0"}}, {"uniqueid": "w12038840:a48228563", "current_trial": 43, "dateTime": 1691071852541, "trialdata": {"revealed_states": [], "clicked_states": ["25", "3", "14"], "num_clicks_accrued": [0, 0, 0, 0, 0, 0, 0, 0, 0, 0, 0, 0, 0], "stateRewards": ["", -2, 2, 3, -7, 76, 63, 21, 15, 35, -8, -44, 1, 1, -2, -12, 23, 24, 76, -9, 46, 66, -49, -2, -1, 7, 12, 40, -71, -45, -6, 38, -49, 46], "withholdReward": false, "trial_id": "mdp_trial_35", "block": "test", "trialIndex": 36, "score": -55.2, "costs": -4.199999999999999, "simulationMode": [null, null, null, null, null], "rewards": [-2, -1, 7, -6, -49], "path": ["0", "0", "23", "24", "25", "30", "32"], "rt": [8923, 1, 119, 121, 613], "actions": ["left", "left", "left", "down", "down"], "actionTimes": [10818, 11403, 12081, 12802, 14001], "queries": {"click": {"state": {"target": ["25", "3", "14"], "time": [3232, 5153, 7397]}, "edge": {"target": [], "time": []}}, "mouseover": {"state": {"target": ["31", "24", "25", "25", "3", "7", "14", "14", "24"], "time": [1959, 2330, 2838, 2940, 3701, 5600, 6064, 6831, 9777]}, "edge": {"target": [], "time": []}}, "mouseout": {"state": {"target": ["10", "10", "1", "31", "24", "25", "25", "3", "7", "14", "14", "24", "14", "22"], "time": [660, 825, 1026, 2082, 2528, 2897, 3417, 5529, 5706, 6435, 7524, 9825, 15965, 16027]}, "edge": {"target": [], "time": []}}}, "displayed_time": "16.62", "trialTime": 18929, "trial_type": "mouselab-mdp", "trial_index": 43, "time_elapsed": 1149198, "internal_node_id": "0.0-4.0-1.0-34.0"}}, {"uniqueid": "w12038840:a48228563", "current_trial": 44, "dateTime": 1691071871454, "trialdata": {"revealed_states": [], "clicked_states": ["25", "3", "14"], "num_clicks_accrued": [0, 0, 0, 0, 0, 0, 0, 0, 0, 0, 0, 0, 0], "stateRewards": ["", 2, -1, 5, 8, 75, -35, -77, 1, -9, -81, -58, 1, 2, -7, 5, 77, -16, 19, 16, -10, -18, 40, -2, 3, 7, -5, 64, 1, -62, 10, 27, 10, 65], "withholdReward": false, "trial_id": "mdp_trial_36", "block": "test", "trialIndex": 37, "score": -63.2, "costs": -4.199999999999999, "simulationMode": [null, null, null, null, null], "rewards": [-2, 3, 7, -5, -62], "path": ["0", "0", "23", "24", "25", "26", "29"], "rt": [9818, 33, 199, 183, 205], "actions": ["left", "left", "left", "up", "left"], "actionTimes": [11647, 12269, 13039, 13807, 14607], "queries": {"click": {"state": {"target": ["25", "3", "14"], "time": [3065, 5551, 8256]}, "edge": {"target": [], "time": []}}, "mouseover": {"state": {"target": ["30", "25", "28", "28", "3", "7", "18", "14"], "time": [1930, 2736, 3528, 3763, 3867, 6304, 7529, 7830]}, "edge": {"target": [], "time": []}}, "mouseout": {"state": {"target": ["0", "30", "25", "28", "28", "3", "7", "18", "14"], "time": [1888, 1962, 3463, 3652, 3799, 6126, 7486, 7703, 8605]}, "edge": {"target": [], "time": []}}}, "displayed_time": "16.42", "trialTime": 18480, "trial_type": "mouselab-mdp", "trial_index": 44, "time_elapsed": 1168110, "internal_node_id": "0.0-4.0-1.0-35.0"}}, {"uniqueid": "w12038840:a48228563", "current_trial": 45, "dateTime": 1691071890829, "trialdata": {"revealed_states": [], "clicked_states": ["25", "3", "14"], "num_clicks_accrued": [0, 0, 0, 0, 0, 0, 0, 0, 0, 0, 0, 0, 0], "stateRewards": ["", 1, 2, 8, -2, 23, -69, -18, -16, 54, -21, 71, -1, -4, 7, 11, 43, -6, 88, 6, -55, 72, 43, 1, -3, -2, -1, 68, -31, -54, 4, -8, 25, -2], "withholdReward": false, "trial_id": "mdp_trial_37", "block": "test", "trialIndex": 38, "score": 27.8, "costs": -4.199999999999999, "simulationMode": [null, null, null, null, null], "rewards": [1, 2, 8, -2, 23], "path": ["0", "0", "1", "2", "3", "4", "5"], "rt": [9098, 508, 140, 122, 177], "actions": ["up", "up", "up", "right", "up"], "actionTimes": [11014, 12105, 12821, 13525, 14293], "queries": {"click": {"state": {"target": ["25", "3", "14"], "time": [3189, 5228, 7515]}, "edge": {"target": [], "time": []}}, "mouseover": {"state": {"target": ["24", "25", "24", "3", "18", "14"], "time": [2393, 2642, 3733, 4217, 5732, 5957]}, "edge": {"target": [], "time": []}}, "mouseout": {"state": {"target": ["21", "24", "26", "28", "24", "23", "0", "0", "24", "25", "24", "3", "18", "14"], "time": [740, 840, 888, 1038, 1087, 1159, 1207, 1970, 2581, 3692, 3769, 5593, 5840, 7939]}, "edge": {"target": [], "time": []}}}, "displayed_time": "16.90", "trialTime": 18917, "trial_type": "mouselab-mdp", "trial_index": 45, "time_elapsed": 1187486, "internal_node_id": "0.0-4.0-1.0-36.0"}}, {"uniqueid": "w12038840:a48228563", "current_trial": 46, "dateTime": 1691071910477, "trialdata": {"revealed_states": [], "clicked_states": ["25", "3"], "num_clicks_accrued": [0, 0, 0, 0, 0, 0, 0, 0, 0, 0, 0, 0, 0], "stateRewards": ["", 1, -1, 1, -14, -10, 67, -28, -11, 72, 40, -65, -1, 1, 1, -2, 8, -55, 34, -10, 61, 33, -15, 2, -4, 7, 4, -75, 63, -21, -16, 61, 19, 21], "withholdReward": false, "trial_id": "mdp_trial_38", "block": "test", "trialIndex": 39, "score": 47.2, "costs": -2.8, "simulationMode": [null, null, null, null, null], "rewards": [2, -4, 7, -16, 61], "path": ["0", "0", "23", "24", "25", "30", "31"], "rt": [8175, 1, 68, 262, 143], "actions": ["left", "left", "left", "down", "right"], "actionTimes": [10526, 11135, 11756, 12608, 13374], "queries": {"click": {"state": {"target": ["25", "3"], "time": [3846, 7104]}, "edge": {"target": [], "time": []}}, "mouseover": {"state": {"target": ["0", "23", "24", "25", "25", "30", "31", "23", "6", "4", "3", "2", "18"], "time": [2744, 2787, 2825, 3175, 3513, 4044, 5723, 5775, 5992, 6109, 6627, 7338, 9684]}, "edge": {"target": [], "time": []}}, "mouseout": {"state": {"target": ["0", "0", "0", "23", "24", "25", "25", "30", "31", "23", "6", "4", "3", "2", "18"], "time": [1608, 2499, 2775, 2812, 2849, 3226, 4006, 4218, 5760, 5806, 6044, 6144, 7219, 7456, 9743]}, "edge": {"target": [], "time": []}}}, "displayed_time": "17.06", "trialTime": 19198, "trial_type": "mouselab-mdp", "trial_index": 46, "time_elapsed": 1207134, "internal_node_id": "0.0-4.0-1.0-37.0"}}, {"uniqueid": "w12038840:a48228563", "current_trial": 47, "dateTime": 1691071929820, "trialdata": {"revealed_states": [], "clicked_states": ["25", "3", "14"], "num_clicks_accrued": [0, 0, 0, 0, 0, 0, 0, 0, 0, 0, 0, 0, 0], "stateRewards": ["", -1, 4, -5, 9, 29, -75, -42, -16, 24, -28, -41, 2, -3, 1, 10, 60, 47, 55, -1, -53, 22, -40, 2, -3, -6, 4, -26, 44, 54, 15, -76, 42, 14], "withholdReward": false, "trial_id": "mdp_trial_39", "block": "test", "trialIndex": 40, "score": -45.2, "costs": -4.199999999999999, "simulationMode": [null, null, null, null, null], "rewards": [2, -3, 1, -1, -40], "path": ["0", "0", "12", "13", "14", "19", "22"], "rt": [11052, 389, 2, 193, 727], "actions": ["right", "right", "right", "down", "left"], "actionTimes": [12785, 13760, 14351, 15154, 16467], "queries": {"click": {"state": {"target": ["25", "3", "14"], "time": [3067, 6080, 9116]}, "edge": {"target": [], "time": []}}, "mouseover": {"state": {"target": ["23", "24", "25", "25", "23", "3", "3", "2", "13", "14", "14", "32"], "time": [2151, 2201, 2397, 2664, 5064, 5390, 5733, 6312, 8266, 8536, 8833, 11823]}, "edge": {"target": [], "time": []}}, "mouseout": {"state": {"target": ["18", "12", "0", "23", "24", "25", "25", "23", "3", "3", "2", "13", "14", "14", "32"], "time": [631, 660, 930, 2186, 2232, 2429, 3347, 5099, 5431, 6269, 6358, 8383, 8709, 9501, 11874]}, "edge": {"target": [], "time": []}}}, "displayed_time": "17.06", "trialTime": 18897, "trial_type": "mouselab-mdp", "trial_index": 47, "time_elapsed": 1226477, "internal_node_id": "0.0-4.0-1.0-38.0"}}, {"uniqueid": "w12038840:a48228563", "current_trial": 48, "dateTime": 1691071948861, "trialdata": {"revealed_states": [], "clicked_states": ["25", "3", "14"], "num_clicks_accrued": [0, 0, 0, 0, 0, 0, 0, 0, 0, 0, 0, 0, 0], "stateRewards": ["", 1, 3, 1, -13, 52, -28, 67, -14, 3, 63, -70, -1, -4, 7, -11, -10, 47, -18, 6, 69, -9, -61, 2, 3, -6, 10, 63, -34, 40, -6, -79, -35, -32], "withholdReward": false, "trial_id": "mdp_trial_40", "block": "test", "trialIndex": 41, "score": -5.199999999999999, "costs": -4.199999999999999, "simulationMode": [null, null, null, null, null], "rewards": [-1, -4, 7, 6, -9], "path": ["0", "0", "12", "13", "14", "19", "21"], "rt": [8762, 235, 85, 199, 243], "actions": ["right", "right", "right", "down", "down"], "actionTimes": [10852, 11668, 12337, 13123, 13955], "queries": {"click": {"state": {"target": ["25", "3", "14"], "time": [3446, 5637, 7687]}, "edge": {"target": [], "time": []}}, "mouseover": {"state": {"target": ["0", "0", "23", "24", "25", "24", "3", "2", "13", "14", "14", "20"], "time": [2144, 2486, 2551, 2599, 3155, 3904, 4520, 5976, 6091, 6247, 6531, 8135]}, "edge": {"target": [], "time": []}}, "mouseout": {"state": {"target": ["0", "0", "0", "23", "24", "25", "24", "3", "2", "13", "14", "14", "20", "19", "22"], "time": [1255, 2178, 2521, 2588, 2628, 3892, 3964, 5906, 6019, 6203, 6287, 8040, 8404, 16010, 16061]}, "edge": {"target": [], "time": []}}}, "displayed_time": "16.73", "trialTime": 18595, "trial_type": "mouselab-mdp", "trial_index": 48, "time_elapsed": 1245518, "internal_node_id": "0.0-4.0-1.0-39.0"}}, {"uniqueid": "w12038840:a48228563", "current_trial": 49, "dateTime": 1691071986901, "trialdata": {"rt": 38033, "response": {"Q0": "$-2 to $2", "Q1": "$-4 to $4", "Q2": "$-16 to $16", "Q3": "The cost was always $1.4.", "Q4": "Slightly motivated"}, "question_order": [0, 1, 2, 3, 4], "trial_id": "final_quiz_control", "trial_type": "survey-multi-choice", "trial_index": 49, "time_elapsed": 1283558, "internal_node_id": "0.0-4.0-2.0"}}, {"uniqueid": "w12038840:a48228563", "current_trial": 50, "dateTime": 1691072073612, "trialdata": {"rt": 86658, "response": {"Q0": "I first clicked on the closest but then changed to clicking on the third step to find its value.", "Q1": "I first clicked on the closest but then changed to clicking on the third step to find its value.", "Q2": "it was difficult as i couldn't get a pattern established"}, "trial_id": "self_report_control", "trial_type": "survey-text", "trial_index": 50, "time_elapsed": 1370269, "internal_node_id": "0.0-4.0-3.0"}}, {"uniqueid": "w12038840:a48228563", "current_trial": 51, "dateTime": 1691072105607, "trialdata": {"rt": 31974, "response": {"gender": "female", "age": "54", "colorblind": "0", "effort": "0"}, "trial_type": "survey-html-form", "trial_index": 51, "time_elapsed": 1402264, "internal_node_id": "0.0-4.0-4.0"}}, {"uniqueid": "w12038840:a48228563", "current_trial": 52, "dateTime": 1691072145597, "trialdata": {"rt": 39985, "response": {"Q0": "nothing - I just couldn't get a pattern worked out", "Q1": "no never done this before", "Q2": "none"}, "trial_type": "survey-text", "trial_index": 52, "time_elapsed": 1442254, "internal_node_id": "0.0-4.0-5.0"}}, {"uniqueid": "w12038840:a48228563", "current_trial": 53, "dateTime": 1691072148460, "trialdata": {"rt": 2859, "stimulus": "Press 'Finish HIT' in order to reach the completion code. Once the data has been saved, you will receive the code either in this window or in the original browser window where you started the experiment.\n", "response": 0, "trial_type": "html-button-response", "trial_index": 53, "time_elapsed": 1445117, "internal_node_id": "0.0-5.0"}}, {"uniqueid": "w12038840:a48228563", "current_trial": 54, "dateTime": 1691072149470, "trialdata": {"success": true, "trial_type": "fullscreen", "trial_index": 54, "time_elapsed": 1446127, "internal_node_id": "0.0-6.0"}}], "questiondata": {"params": {"CODE": "C6DMOQA6", "MIN_TIME": 14, "inspectCost": 1, "startTime": "Thu Aug 03 2023 14:51:42 GMT+0100 (British Summer Time)", "bonusRate": 0.002, "variance": "1_2_4_8_44", "branching": "31123"}, "final_score": -270.4}, "eventdata": [{"eventtype": "initialized", "value": null, "timestamp": 1691070702003, "interval": 0}, {"eventtype": "window_resize", "value": [1024, 768], "timestamp": 1691070702003, "interval": 0}, {"eventtype": "focus", "value": "on", "timestamp": 1691070702143, "interval": 140}, {"eventtype": "window_resize", "value": [1024, 768], "timestamp": 1691070702318, "interval": 175}, {"eventtype": "window_resize", "value": [1920, 1080], "timestamp": 1691070708912, "interval": 6594}, {"eventtype": "window_resize", "value": [1024, 768], "timestamp": 1691072148971, "interval": 1440059}], "useragent": "Mozilla/5.0 (Windows NT 10.0; Win64; x64; rv:109.0) Gecko/20100101 Firefox/115.0", "mode": "live", "id": "w12038840:a48228563", "status": "user data saved", "Beginhit": "2023-08-03 13:51:37.204959", "Beginexp": "2023-08-03 13:51:45.870025", "Endhit": "2023-08-03 14:15:46.823171", "psiturkStatus": 3, "browser": "<redacted>", "platform": "windows", "language": "en-US"}