{"condition": 1, "counterbalance": 0, "assignmentId": "a89550870", "workerId": "w63234002", "hitId": "h46648860", "currenttrial": 56, "bonus": 0, "data": [{"uniqueid": "w63234002:a89550870", "current_trial": 0, "dateTime": 1693480718992, "trialdata": {"success": true, "trial_type": "fullscreen", "trial_index": 0, "time_elapsed": 5900, "internal_node_id": "0.0-0.0"}}, {"uniqueid": "w63234002:a89550870", "current_trial": 1, "dateTime": 1693480751755, "trialdata": {"view_history": [{"page_index": 0, "viewing_time": 32745}], "rt": 32745, "trial_id": "exp_instructions_misaligned", "trial_type": "instructions", "trial_index": 1, "time_elapsed": 38664, "internal_node_id": "0.0-1.0"}}, {"uniqueid": "w63234002:a89550870", "current_trial": 2, "dateTime": 1693480994060, "trialdata": {"view_history": [{"page_index": 0, "viewing_time": 75070}, {"page_index": 1, "viewing_time": 88229}, {"page_index": 2, "viewing_time": 40011}, {"page_index": 3, "viewing_time": 38993}], "rt": 242303, "trial_id": "mouselab_instructions_1_misaligned", "trial_type": "instructions", "trial_index": 2, "time_elapsed": 280969, "internal_node_id": "0.0-2.0-1.0"}}, {"uniqueid": "w63234002:a89550870", "current_trial": 3, "dateTime": 1693481020272, "trialdata": {"revealed_states": [], "clicked_states": ["23", "24", "25", "30", "32", "33"], "num_clicks_accrued": [0, 0, 0, 0, 0, 0, 0, 0, 0, 0, 0, 0, 0], "stateRewards": ["", -10, -10, 10, 10, 10, -10, 10, 10, -10, 10, -10, -10, 10, 10, 10, -10, -10, 10, 10, 10, 10, -10, 10, 10, -10, -10, -10, -10, -10, 10, 10, 10, -10], "withholdReward": false, "trial_id": "practice_1", "block": "test", "trialIndex": 0, "score": 30.5, "costs": -3, "simulationMode": [null, null, null, null, null], "rewards": [10, 10, -10, 10, 10], "path": ["0", "0", "23", "24", "25", "30", "32"], "rt": [17075, 474, 167, 107, 82], "actions": ["left", "left", "left", "down", "down"], "actionTimes": [19705, 20731, 21411, 22033, 22635], "queries": {"click": {"state": {"target": ["23", "24", "25", "30", "32", "33"], "time": [7147, 8213, 10111, 11278, 12733, 15010]}, "edge": {"target": [], "time": []}}, "mouseover": {"state": {"target": ["23", "23", "0", "0", "23", "24", "25", "30", "32", "33", "33", "31", "23", "0"], "time": [4867, 6087, 6440, 6627, 6933, 7807, 8848, 10726, 12183, 13321, 14273, 15764, 17343, 18469]}, "edge": {"target": [], "time": []}}, "mouseout": {"state": {"target": ["12", "0", "23", "23", "0", "0", "23", "24", "25", "30", "32", "33", "33", "33", "31", "23", "0"], "time": [1921, 2735, 5389, 6143, 6460, 6873, 7747, 8660, 10475, 11604, 13112, 13341, 15043, 15760, 17138, 17636, 23699]}, "edge": {"target": [], "time": []}}}, "displayed_time": "23.16", "trialTime": 25434, "trial_type": "mouselab-mdp", "trial_index": 3, "time_elapsed": 307179, "internal_node_id": "0.0-2.0-2.0-0.0"}}, {"uniqueid": "w63234002:a89550870", "current_trial": 4, "dateTime": 1693481048767, "trialdata": {"revealed_states": [], "clicked_states": ["1", "2", "3", "23", "24", "12", "13", "14", "19", "20"], "num_clicks_accrued": [0, 0, 0, 0, 0, 0, 0, 0, 0, 0, 0, 0, 0], "stateRewards": ["", -10, -10, -10, -10, 10, -10, 10, 10, -10, -10, 10, -10, -10, 10, -10, -10, 10, 10, -10, 10, 10, 10, -10, -10, 10, -10, 10, -10, 10, 10, -10, 10, -10], "withholdReward": false, "trial_id": "practice_2", "block": "test", "trialIndex": 1, "score": -11.5, "costs": -5, "simulationMode": [null, null, null, null, null], "rewards": [-10, -10, 10, -10, 10], "path": ["0", "0", "12", "13", "14", "19", "20"], "rt": [19809, 42, 141, 118, 586], "actions": ["right", "right", "right", "down", "right"], "actionTimes": [22802, 23386, 24066, 24708, 25803], "queries": {"click": {"state": {"target": ["1", "2", "3", "23", "24", "12", "13", "14", "19", "20"], "time": [4030, 5395, 7033, 8817, 10321, 12327, 13737, 16247, 17883, 19329]}, "edge": {"target": [], "time": []}}, "mouseover": {"state": {"target": ["1", "2", "3", "23", "24", "0", "12", "13", "14", "19", "20", "21", "22"], "time": [3608, 4641, 5907, 8430, 9373, 11238, 11996, 12634, 14391, 17531, 18448, 19926, 21316]}, "edge": {"target": [], "time": []}}, "mouseout": {"state": {"target": ["1", "2", "3", "2", "23", "24", "23", "0", "12", "13", "14", "19", "19", "20", "21", "22", "0"], "time": [4246, 5757, 7371, 8034, 9143, 11156, 11217, 11640, 12570, 14204, 16760, 17926, 18281, 19699, 21280, 21790, 26305]}, "edge": {"target": [], "time": []}}}, "displayed_time": "26.35", "trialTime": 28212, "trial_type": "mouselab-mdp", "trial_index": 4, "time_elapsed": 335675, "internal_node_id": "0.0-2.0-2.0-1.0"}}, {"uniqueid": "w63234002:a89550870", "current_trial": 5, "dateTime": 1693481091464, "trialdata": {"view_history": [{"page_index": 0, "viewing_time": 31635}, {"page_index": 1, "viewing_time": 11056}], "rt": 42691, "trial_id": "mouselab_instructions_2_misaligned", "trial_type": "instructions", "trial_index": 5, "time_elapsed": 378373, "internal_node_id": "0.0-2.0-3.0"}}, {"uniqueid": "w63234002:a89550870", "current_trial": 6, "dateTime": 1693481120635, "trialdata": {"rt": 29165, "response": {"Q0": "The cost for clicking on nodes may vary between nodes.", "Q1": "The better I perform the higher my bonus will be.", "Q2": "No, the amount of cash at each node of the web may be different each time.", "Q3": "To get the highest total score.", "Q4": "Only before moving the spider.", "Q5": "3 seconds"}, "question_order": [0, 1, 2, 3, 4, 5], "correct": {"Q0": "The cost for clicking on nodes may vary between nodes.", "Q1": "The better I perform the higher my bonus will be.", "Q2": "No, the amount of cash at each node of the web may be different each time.", "Q3": "To get the highest total score.", "Q4": "Only before moving the spider.", "Q5": "3 seconds"}, "trial_id": "mouselab_quiz_misaligned", "trial_type": "survey-multi-choice", "trial_index": 6, "time_elapsed": 407544, "internal_node_id": "0.0-2.0-4.0"}}, {"uniqueid": "w63234002:a89550870", "current_trial": 7, "dateTime": 1693481125420, "trialdata": {"rt": 4777, "response": {"Q0": "No"}, "question_order": [0], "trial_id": "repeat_check", "trial_type": "survey-multi-choice", "trial_index": 7, "time_elapsed": 412329, "internal_node_id": "0.0-4.0-0.0"}}, {"uniqueid": "w63234002:a89550870", "current_trial": 8, "dateTime": 1693481139167, "trialdata": {"rt": 13738, "stimulus": "\n<h1> Get ready to start the game! </h1>\n\nThank you for reading the instructions. Get ready start with the 40 rounds of this game.\n<br><br>\nIf you need to take a break, feel free to take one after the end of a round, before continuing to the next one.\n<br><br>\nRemember, the more money the spider gets, the bigger your bonus will be!\n<br><br>\n<div style='text-align: center;'>Press <code>space</code> to begin.</div>\n\n<br><br>\n(If, at any point, the <code>space</code> key does not take you to the next page, click once on the text and try again.)", "response": " ", "trial_id": "mdp_ready", "trial_type": "html-keyboard-response", "trial_index": 8, "time_elapsed": 426076, "internal_node_id": "0.0-6.0-0.0"}}, {"uniqueid": "w63234002:a89550870", "current_trial": 9, "dateTime": 1693481179104, "trialdata": {"revealed_states": [], "clicked_states": ["23", "24", "25", "30", "26", "29", "28", "27", "31", "32", "1"], "num_clicks_accrued": [0, 0, 0, 0, 0, 0, 0, 0, 0, 0, 0, 0, 0], "stateRewards": ["", 2, -4, 4, 9, 69, 9, -75, 12, -86, 66, 25, -1, 3, 2, -13, -88, -3, 1, 4, -69, 49, -84, 2, -1, 4, 2, -18, -81, -52, -15, -69, -54, 25], "withholdReward": false, "trial_id": "mdp_trial_1", "block": "test", "trialIndex": 2, "score": 5.350000000000001, "costs": -14.65, "simulationMode": [null, null, null, null, null], "rewards": [2, -4, 4, 9, 9], "path": ["0", "0", "1", "2", "3", "4", "6"], "rt": [31449, 412, 323, 964, 129], "actions": ["up", "up", "up", "right", "right"], "actionTimes": [33102, 34279, 35134, 36609, 37269], "queries": {"click": {"state": {"target": ["23", "24", "25", "30", "26", "29", "28", "27", "31", "32", "1"], "time": [2495, 4060, 5807, 7383, 9305, 10624, 14450, 17657, 22682, 26789, 31564]}, "edge": {"target": [], "time": []}}, "mouseover": {"state": {"target": ["23", "24", "25", "30", "33", "26", "29", "28", "27", "28", "27", "28", "27", "26", "25", "31", "31", "30", "31", "31", "32", "30", "32", "22", "14", "8", "3", "2", "1"], "time": [2306, 3466, 5034, 6811, 7853, 9085, 10270, 11833, 12645, 12833, 13777, 14374, 14833, 21110, 21514, 21679, 21860, 21966, 22113, 22409, 23632, 26506, 26630, 27381, 27485, 30719, 30782, 30845, 31157]}, "edge": {"target": [], "time": []}}, "mouseout": {"state": {"target": ["0", "23", "24", "25", "30", "33", "26", "29", "29", "26", "28", "27", "28", "27", "28", "27", "28", "26", "25", "31", "31", "30", "31", "31", "32", "30", "32", "32", "22", "14", "32", "8", "3", "2", "1", "1", "1", "14", "19", "19"], "time": [943, 3430, 4888, 6540, 7708, 8737, 9853, 10636, 11750, 11792, 12165, 12749, 13353, 14373, 14686, 18755, 18786, 21492, 21549, 21757, 21924, 22092, 22193, 23172, 25946, 26526, 26870, 27131, 27422, 27881, 29937, 30761, 30802, 31012, 31782, 32491, 33407, 33663, 36472, 38277]}, "edge": {"target": [], "time": []}}}, "displayed_time": "37.79", "trialTime": 39575, "trial_type": "mouselab-mdp", "trial_index": 9, "time_elapsed": 466012, "internal_node_id": "0.0-6.0-1.0-0.0"}}, {"uniqueid": "w63234002:a89550870", "current_trial": 10, "dateTime": 1693481200319, "trialdata": {"revealed_states": [], "clicked_states": ["1", "2", "3", "8", "9"], "num_clicks_accrued": [0, 0, 0, 0, 0, 0, 0, 0, 0, 0, 0, 0, 0], "stateRewards": ["", -1, -4, -6, -15, 21, -67, -63, 9, 51, 69, -14, -1, 3, 8, -8, 39, 72, 63, 15, 19, 47, 15, 1, 4, 5, 16, -18, 34, 35, -14, -80, 40, 1], "withholdReward": false, "trial_id": "mdp_trial_2", "block": "test", "trialIndex": 3, "score": 44.25, "costs": -4.75, "simulationMode": [null, null, null, null, null], "rewards": [-1, -4, -6, 9, 51], "path": ["0", "0", "1", "2", "3", "8", "9"], "rt": [11960, 203, 699, 160, 62], "actions": ["up", "up", "up", "left", "up"], "actionTimes": [14388, 15129, 16370, 17041, 17634], "queries": {"click": {"state": {"target": ["1", "2", "3", "8", "9"], "time": [3741, 5760, 7120, 8417, 9606]}, "edge": {"target": [], "time": []}}, "mouseover": {"state": {"target": ["1", "2", "2", "3", "8", "9", "10"], "time": [3335, 4008, 4529, 6832, 7796, 9290, 10604]}, "edge": {"target": [], "time": []}}, "mouseout": {"state": {"target": ["23", "23", "0", "1", "2", "2", "3", "8", "9", "3", "10", "12"], "time": [1097, 1308, 1705, 3927, 4070, 6397, 7774, 8467, 9937, 10021, 10728, 18924]}, "edge": {"target": [], "time": []}}}, "displayed_time": "18.17", "trialTime": 20915, "trial_type": "mouselab-mdp", "trial_index": 10, "time_elapsed": 487227, "internal_node_id": "0.0-6.0-1.0-1.0"}}, {"uniqueid": "w63234002:a89550870", "current_trial": 11, "dateTime": 1693481224130, "trialdata": {"revealed_states": [], "clicked_states": ["12", "13", "14", "15", "17"], "num_clicks_accrued": [0, 0, 0, 0, 0, 0, 0, 0, 0, 0, 0, 0, 0], "stateRewards": ["", -2, 1, -8, 12, -65, -79, 16, 7, -80, -17, -45, -2, 2, -5, -2, -85, 23, -4, -7, 48, 27, -76, 2, 3, 5, 2, 43, 71, -13, 7, -49, 59, -31], "withholdReward": false, "trial_id": "mdp_trial_3", "block": "test", "trialIndex": 4, "score": 11.25, "costs": -4.75, "simulationMode": [null, null, null, null, null], "rewards": [-2, 2, -5, -2, 23], "path": ["0", "0", "12", "13", "14", "15", "17"], "rt": [11756, 38, 335, 1658, 89], "actions": ["right", "right", "right", "up", "right"], "actionTimes": [14612, 15189, 16047, 18671, 19269], "queries": {"click": {"state": {"target": ["12", "13", "14", "15", "17"], "time": [4662, 5668, 7236, 8616, 9546]}, "edge": {"target": [], "time": []}}, "mouseover": {"state": {"target": ["1", "12", "13", "14", "15", "17", "16", "13", "12"], "time": [3429, 4158, 4905, 6221, 8391, 9288, 9934, 13581, 14019]}, "edge": {"target": [], "time": []}}, "mouseout": {"state": {"target": ["0", "0", "1", "12", "13", "14", "15", "17", "16", "13", "12", "13"], "time": [2022, 3373, 4102, 4843, 6031, 8082, 9226, 9808, 13478, 13603, 15174, 20790]}, "edge": {"target": [], "time": []}}}, "displayed_time": "19.79", "trialTime": 23533, "trial_type": "mouselab-mdp", "trial_index": 11, "time_elapsed": 511039, "internal_node_id": "0.0-6.0-1.0-2.0"}}, {"uniqueid": "w63234002:a89550870", "current_trial": 12, "dateTime": 1693481243066, "trialdata": {"revealed_states": [], "clicked_states": ["12", "13", "14", "19", "20"], "num_clicks_accrued": [0, 0, 0, 0, 0, 0, 0, 0, 0, 0, 0, 0, 0], "stateRewards": ["", 2, 3, 8, 14, 69, -27, 17, 2, -71, -65, -10, 2, -3, 7, 8, 65, -10, 65, -12, 73, -12, 13, -2, -2, 6, 10, -79, -69, -18, 10, -85, 67, 74], "withholdReward": false, "trial_id": "mdp_trial_4", "block": "test", "trialIndex": 5, "score": 62.25, "costs": -4.75, "simulationMode": [null, null, null, null, null], "rewards": [2, -3, 7, -12, 73], "path": ["0", "0", "12", "13", "14", "19", "20"], "rt": [10200, 388, 295, 115, 143], "actions": ["right", "right", "right", "down", "right"], "actionTimes": [11836, 12745, 13537, 14183, 14857], "queries": {"click": {"state": {"target": ["12", "13", "14", "19", "20"], "time": [3972, 4658, 5286, 6321, 7165]}, "edge": {"target": [], "time": []}}, "mouseover": {"state": {"target": ["12", "13", "14", "19", "20", "21", "19"], "time": [3236, 4491, 5164, 5832, 6707, 11004, 11060]}, "edge": {"target": [], "time": []}}, "mouseout": {"state": {"target": ["0", "12", "13", "14", "19", "20", "21", "19"], "time": [2251, 4488, 5021, 5582, 6581, 8635, 11029, 11144]}, "edge": {"target": [], "time": []}}}, "displayed_time": "15.64", "trialTime": 18639, "trial_type": "mouselab-mdp", "trial_index": 12, "time_elapsed": 529975, "internal_node_id": "0.0-6.0-1.0-3.0"}}, {"uniqueid": "w63234002:a89550870", "current_trial": 13, "dateTime": 1693481267162, "trialdata": {"revealed_states": [], "clicked_states": ["23", "24", "25", "30", "33", "32", "31"], "num_clicks_accrued": [0, 0, 0, 0, 0, 0, 0, 0, 0, 0, 0, 0, 0], "stateRewards": ["", -1, -3, -3, 1, -38, 2, -53, -2, -1, -81, 70, -1, 1, -5, -9, 46, 15, 35, -1, -22, 38, 59, -2, 4, -8, 13, 1, -83, -43, 4, 76, 13, 48], "withholdReward": false, "trial_id": "mdp_trial_5", "block": "test", "trialIndex": 6, "score": 64.95, "costs": -9.05, "simulationMode": [null, null, null, null, null], "rewards": [-2, 4, -8, 4, 76], "path": ["0", "0", "23", "24", "25", "30", "31"], "rt": [16850, 75, 217, 166, 313], "actions": ["left", "left", "left", "down", "right"], "actionTimes": [18614, 19260, 20003, 20682, 21372], "queries": {"click": {"state": {"target": ["23", "24", "25", "30", "33", "32", "31"], "time": [3896, 4651, 5689, 6836, 8347, 11856, 15114]}, "edge": {"target": [], "time": []}}, "mouseover": {"state": {"target": ["12", "2", "1", "24", "23", "24", "25", "30", "33", "32", "31", "30", "33"], "time": [1962, 2482, 2689, 2982, 3745, 4472, 5264, 6558, 7514, 9681, 12086, 15466, 15959]}, "edge": {"target": [], "time": []}}, "mouseout": {"state": {"target": ["23", "12", "2", "1", "24", "23", "24", "25", "30", "33", "32", "31", "30", "33", "22", "19", "20", "21"], "time": [1044, 2357, 2606, 2940, 3648, 4297, 5099, 6415, 7160, 8890, 11868, 15465, 15480, 17001, 19347, 19368, 19409, 22480]}, "edge": {"target": [], "time": []}}}, "displayed_time": "21.88", "trialTime": 23810, "trial_type": "mouselab-mdp", "trial_index": 13, "time_elapsed": 554070, "internal_node_id": "0.0-6.0-1.0-4.0"}}, {"uniqueid": "w63234002:a89550870", "current_trial": 14, "dateTime": 1693481291271, "trialdata": {"revealed_states": [], "clicked_states": ["23", "24", "25", "30", "32", "31", "33"], "num_clicks_accrued": [0, 0, 0, 0, 0, 0, 0, 0, 0, 0, 0, 0, 0], "stateRewards": ["", 1, -2, 7, -14, 88, -56, -44, -14, 64, -51, -57, -2, 3, -4, -9, -11, 19, -77, -1, 68, 75, -67, -1, 1, -2, 5, -37, 70, -34, -10, -72, 63, -41], "withholdReward": false, "trial_id": "mdp_trial_6", "block": "test", "trialIndex": 7, "score": 41.95, "costs": -9.05, "simulationMode": [null, null, null, null, null], "rewards": [-1, 1, -2, -10, 63], "path": ["0", "0", "23", "24", "25", "30", "32"], "rt": [16796, 51, 581, 35, 860], "actions": ["left", "left", "left", "down", "down"], "actionTimes": [18087, 18646, 19756, 20299, 21853], "queries": {"click": {"state": {"target": ["23", "24", "25", "30", "32", "31", "33"], "time": [2438, 3278, 4299, 5336, 6452, 10132, 13455]}, "edge": {"target": [], "time": []}}, "mouseover": {"state": {"target": ["23", "24", "25", "30", "32", "31", "30", "33", "25", "29", "25", "23"], "time": [1961, 2891, 3911, 4849, 5849, 6827, 10544, 10768, 14095, 14164, 17031, 17414]}, "edge": {"target": [], "time": []}}, "mouseout": {"state": {"target": ["12", "23", "24", "25", "30", "32", "31", "30", "33", "25", "29", "25", "23", "0"], "time": [632, 2619, 3640, 4682, 5557, 6640, 10440, 10686, 13949, 14136, 14219, 17193, 18551, 18645]}, "edge": {"target": [], "time": []}}}, "displayed_time": "22.36", "trialTime": 23749, "trial_type": "mouselab-mdp", "trial_index": 14, "time_elapsed": 578179, "internal_node_id": "0.0-6.0-1.0-5.0"}}, {"uniqueid": "w63234002:a89550870", "current_trial": 15, "dateTime": 1693481315691, "trialdata": {"revealed_states": [], "clicked_states": ["25", "30", "32", "31", "33"], "num_clicks_accrued": [0, 0, 0, 0, 0, 0, 0, 0, 0, 0, 0, 0, 0], "stateRewards": ["", 2, -1, -2, -5, -47, -57, -33, -11, 31, -18, -72, -2, 1, -4, -8, -46, -53, -50, 15, -85, -9, 39, -2, -2, 1, 14, -1, -8, 53, -12, -41, -74, 62], "withholdReward": false, "trial_id": "mdp_trial_7", "block": "test", "trialIndex": 8, "score": 38.05, "costs": -8.950000000000001, "simulationMode": [null, null, null, null, null], "rewards": [-2, -2, 1, -12, 62], "path": ["0", "0", "23", "24", "25", "30", "33"], "rt": [16162, 95, 239, 137, 23], "actions": ["left", "left", "left", "down", "left"], "actionTimes": [19047, 19648, 20416, 21063, 21615], "queries": {"click": {"state": {"target": ["25", "30", "32", "31", "33"], "time": [4329, 5696, 7683, 11246, 14680]}, "edge": {"target": [], "time": []}}, "mouseover": {"state": {"target": ["0", "24", "25", "30", "32", "31", "30", "33", "30", "21", "21", "22"], "time": [3369, 3765, 3863, 5072, 6176, 8632, 11483, 11671, 14961, 15105, 15709, 16107]}, "edge": {"target": [], "time": []}}, "mouseout": {"state": {"target": ["0", "0", "24", "25", "30", "32", "31", "30", "33", "30", "21", "21", "22"], "time": [2950, 3515, 3804, 5009, 5948, 8531, 11463, 11546, 14959, 14980, 15147, 15876, 22900]}, "edge": {"target": [], "time": []}}}, "displayed_time": "22.14", "trialTime": 24103, "trial_type": "mouselab-mdp", "trial_index": 15, "time_elapsed": 602599, "internal_node_id": "0.0-6.0-1.0-6.0"}}, {"uniqueid": "w63234002:a89550870", "current_trial": 16, "dateTime": 1693481355046, "trialdata": {"revealed_states": [], "clicked_states": ["5", "6", "7", "9", "11", "10", "27", "29"], "num_clicks_accrued": [0, 0, 0, 0, 0, 0, 0, 0, 0, 0, 0, 0, 0], "stateRewards": ["", 1, -1, -7, -7, -22, 15, -13, 13, 26, -32, 38, -1, 1, -7, -4, 16, -62, 86, 12, -54, 56, 64, -2, -1, 6, 14, -57, 37, 62, -6, -25, 50, -70], "withholdReward": false, "trial_id": "mdp_trial_8", "block": "test", "trialIndex": 9, "score": 61.8, "costs": -17.2, "simulationMode": [null, null, null, null, null], "rewards": [-2, -1, 6, 14, 62], "path": ["0", "0", "23", "24", "25", "26", "29"], "rt": [30713, 162, 336, 607, 74], "actions": ["left", "left", "left", "up", "left"], "actionTimes": [32942, 33653, 34511, 35655, 36253], "queries": {"click": {"state": {"target": ["5", "6", "7", "9", "11", "10", "27", "29"], "time": [3449, 6916, 10256, 13675, 17121, 20451, 24911, 28266]}, "edge": {"target": [], "time": []}}, "mouseover": {"state": {"target": ["12", "18", "16", "5", "6", "4", "3", "7", "9", "11", "10", "2", "7", "16", "16", "7", "27", "29", "25", "28", "1"], "time": [2595, 2632, 2695, 3201, 3926, 7243, 7407, 7679, 13330, 14205, 17484, 21302, 21782, 23030, 23651, 23760, 24592, 27531, 28855, 29392, 32376]}, "edge": {"target": [], "time": []}}, "mouseout": {"state": {"target": ["0", "12", "18", "16", "5", "6", "4", "3", "7", "9", "11", "10", "2", "7", "16", "16", "7", "27", "29", "25", "28", "1", "18", "15", "17", "17", "14", "22"], "time": [2340, 2616, 2653, 2715, 3654, 7202, 7286, 7598, 10664, 13975, 17401, 20906, 21780, 21843, 23051, 23686, 23781, 25656, 28564, 29391, 32042, 32396, 33360, 33860, 37467, 37674, 37738, 37795]}, "edge": {"target": [], "time": []}}}, "displayed_time": "36.77", "trialTime": 38791, "trial_type": "mouselab-mdp", "trial_index": 16, "time_elapsed": 641954, "internal_node_id": "0.0-6.0-1.0-7.0"}}, {"uniqueid": "w63234002:a89550870", "current_trial": 17, "dateTime": 1693481377742, "trialdata": {"revealed_states": [], "clicked_states": ["22", "21", "20"], "num_clicks_accrued": [0, 0, 0, 0, 0, 0, 0, 0, 0, 0, 0, 0, 0], "stateRewards": ["", 1, 2, -8, 9, 18, -83, -11, 6, -64, -48, 17, -2, -2, -5, -3, -24, -3, -86, -2, 48, -41, -22, -2, 4, 7, 8, 81, 13, -48, 10, 61, 19, 57], "withholdReward": false, "trial_id": "mdp_trial_9", "block": "test", "trialIndex": 10, "score": 30.55, "costs": -6.449999999999999, "simulationMode": [null, null, null, null, null], "rewards": [-2, -2, -5, -2, 48], "path": ["0", "0", "12", "13", "14", "19", "20"], "rt": [14028, 141, 538, 1702, 106], "actions": ["right", "right", "right", "down", "right"], "actionTimes": [15543, 16182, 17260, 19477, 20091], "queries": {"click": {"state": {"target": ["22", "21", "20"], "time": [3462, 6660, 9924]}, "edge": {"target": [], "time": []}}, "mouseover": {"state": {"target": ["23", "22", "20", "14", "21", "22", "21", "20", "17", "17"], "time": [1799, 2087, 2317, 2505, 2950, 3258, 3964, 7045, 10577, 11285]}, "edge": {"target": [], "time": []}}, "mouseout": {"state": {"target": ["0", "0", "23", "22", "20", "14", "21", "22", "21", "20", "17", "17"], "time": [233, 1675, 1819, 2108, 2441, 2670, 2986, 3688, 6899, 10222, 11116, 14795]}, "edge": {"target": [], "time": []}}}, "displayed_time": "20.59", "trialTime": 22405, "trial_type": "mouselab-mdp", "trial_index": 17, "time_elapsed": 664650, "internal_node_id": "0.0-6.0-1.0-8.0"}}, {"uniqueid": "w63234002:a89550870", "current_trial": 18, "dateTime": 1693481395280, "trialdata": {"revealed_states": [], "clicked_states": ["16", "18"], "num_clicks_accrued": [0, 0, 0, 0, 0, 0, 0, 0, 0, 0, 0, 0, 0], "stateRewards": ["", -1, -3, -7, -4, -85, -70, 79, 8, 84, -66, 42, 2, -2, -3, -16, -54, -66, 68, -3, 21, -14, 7, -2, -1, -3, -8, 75, 80, 86, -7, -84, 73, -16], "withholdReward": false, "trial_id": "mdp_trial_10", "block": "test", "trialIndex": 11, "score": 44.7, "costs": -4.3, "simulationMode": [null, null, null, null, null], "rewards": [2, -2, -3, -16, 68], "path": ["0", "0", "12", "13", "14", "15", "18"], "rt": [8342, 6, 843, 847, 84], "actions": ["right", "right", "right", "up", "left"], "actionTimes": [9340, 9864, 11242, 12889, 13498], "queries": {"click": {"state": {"target": ["16", "18"], "time": [1716, 5049]}, "edge": {"target": [], "time": []}}, "mouseover": {"state": {"target": ["16", "18", "15", "17"], "time": [1353, 2142, 5234, 5308]}, "edge": {"target": [], "time": []}}, "mouseout": {"state": {"target": ["18", "1", "0", "16", "18", "15", "17"], "time": [369, 573, 1034, 1936, 5224, 5287, 14147]}, "edge": {"target": [], "time": []}}}, "displayed_time": "15.00", "trialTime": 17226, "trial_type": "mouselab-mdp", "trial_index": 18, "time_elapsed": 682187, "internal_node_id": "0.0-6.0-1.0-9.0"}}, {"uniqueid": "w63234002:a89550870", "current_trial": 19, "dateTime": 1693481423232, "trialdata": {"revealed_states": [], "clicked_states": ["10", "11", "9"], "num_clicks_accrued": [0, 0, 0, 0, 0, 0, 0, 0, 0, 0, 0, 0, 0], "stateRewards": ["", 2, -2, -8, 9, -20, 55, -58, 14, 42, 2, 36, 1, -3, -5, 5, -58, 57, 60, 16, 57, 30, -70, -2, 1, 3, 10, 59, 23, 77, -13, -26, 88, -72], "withholdReward": false, "trial_id": "mdp_trial_11", "block": "test", "trialIndex": 12, "score": 41.55, "costs": -6.449999999999999, "simulationMode": [null, null, null, null, null], "rewards": [2, -2, -8, 14, 42], "path": ["0", "0", "1", "2", "3", "8", "9"], "rt": [18445, 488, 184, 1331, 737], "actions": ["up", "up", "up", "left", "up"], "actionTimes": [20887, 21880, 22188, 24020, 25724], "queries": {"click": {"state": {"target": ["10", "11", "9"], "time": [3743, 7294, 11145]}, "edge": {"target": [], "time": []}}, "mouseover": {"state": {"target": ["11", "10", "11", "8", "9", "9", "17", "6", "5", "5", "5", "6"], "time": [3045, 3460, 4271, 7557, 7620, 8161, 16297, 17032, 17152, 18183, 19158, 19236]}, "edge": {"target": [], "time": []}}, "mouseout": {"state": {"target": ["17", "0", "11", "10", "11", "8", "9", "9", "17", "6", "5", "5", "5", "6"], "time": [380, 2451, 3401, 4074, 7514, 7577, 7640, 11560, 16332, 17055, 17990, 18234, 19195, 19257]}, "edge": {"target": [], "time": []}}}, "displayed_time": "26.23", "trialTime": 27652, "trial_type": "mouselab-mdp", "trial_index": 19, "time_elapsed": 710140, "internal_node_id": "0.0-6.0-1.0-10.0"}}, {"uniqueid": "w63234002:a89550870", "current_trial": 20, "dateTime": 1693481442019, "trialdata": {"revealed_states": [], "clicked_states": ["5", "6"], "num_clicks_accrued": [0, 0, 0, 0, 0, 0, 0, 0, 0, 0, 0, 0, 0], "stateRewards": ["", 1, 4, -4, 14, 35, 51, 19, -13, 54, 78, -74, -2, -1, -3, 13, -11, -42, -73, -15, -24, -3, -69, 2, -1, 5, 16, -27, 73, 58, 9, -60, 5, -60], "withholdReward": false, "trial_id": "mdp_trial_12", "block": "test", "trialIndex": 13, "score": 61.7, "costs": -4.3, "simulationMode": [null, null, null, null, null], "rewards": [1, 4, -4, 14, 51], "path": ["0", "0", "1", "2", "3", "4", "6"], "rt": [9109, 455, 363, 653, 650], "actions": ["up", "up", "up", "right", "right"], "actionTimes": [10678, 11671, 12558, 13742, 15290], "queries": {"click": {"state": {"target": ["5", "6"], "time": [2389, 6085]}, "edge": {"target": [], "time": []}}, "mouseover": {"state": {"target": ["5", "6", "7"], "time": [2235, 2647, 6986]}, "edge": {"target": [], "time": []}}, "mouseout": {"state": {"target": ["19", "0", "5", "6", "7", "16", "13"], "time": [624, 1719, 2563, 6984, 10757, 12088, 16505]}, "edge": {"target": [], "time": []}}}, "displayed_time": "15.80", "trialTime": 18480, "trial_type": "mouselab-mdp", "trial_index": 20, "time_elapsed": 728927, "internal_node_id": "0.0-6.0-1.0-11.0"}}, {"uniqueid": "w63234002:a89550870", "current_trial": 21, "dateTime": 1693481467607, "trialdata": {"revealed_states": [], "clicked_states": ["22", "21", "20"], "num_clicks_accrued": [0, 0, 0, 0, 0, 0, 0, 0, 0, 0, 0, 0, 0], "stateRewards": ["", 1, 4, 7, -16, -84, -6, -46, -12, -7, -49, -26, -1, 2, -4, 2, 22, 37, -64, 1, 88, -13, -10, 1, -4, -2, 5, 2, -10, -34, 9, 66, 55, 38], "withholdReward": false, "trial_id": "mdp_trial_13", "block": "test", "trialIndex": 14, "score": 79.55, "costs": -6.449999999999999, "simulationMode": [null, null, null, null, null], "rewards": [-1, 2, -4, 1, 88], "path": ["0", "0", "12", "13", "14", "19", "20"], "rt": [13460, 2, 59, 2082, 945], "actions": ["right", "right", "right", "down", "right"], "actionTimes": [16196, 16731, 17330, 20434, 22282], "queries": {"click": {"state": {"target": ["22", "21", "20"], "time": [4723, 8137, 11398]}, "edge": {"target": [], "time": []}}, "mouseover": {"state": {"target": ["12", "22", "19", "14", "20", "19", "22", "21", "20", "30", "33", "30", "13", "14"], "time": [3261, 3366, 3517, 3841, 4133, 4238, 4497, 5405, 8786, 11952, 12114, 15010, 15103, 15185]}, "edge": {"target": [], "time": []}}, "mouseout": {"state": {"target": ["13", "22", "0", "12", "22", "19", "14", "20", "19", "22", "21", "20", "30", "33", "30", "13", "14"], "time": [659, 1325, 2862, 3283, 3388, 3573, 3966, 4216, 4278, 5030, 8473, 11949, 12073, 14986, 15022, 15165, 15207]}, "edge": {"target": [], "time": []}}}, "displayed_time": "22.77", "trialTime": 25234, "trial_type": "mouselab-mdp", "trial_index": 21, "time_elapsed": 754515, "internal_node_id": "0.0-6.0-1.0-12.0"}}, {"uniqueid": "w63234002:a89550870", "current_trial": 22, "dateTime": 1693481486441, "trialdata": {"revealed_states": [], "clicked_states": ["31"], "num_clicks_accrued": [0, 0, 0, 0, 0, 0, 0, 0, 0, 0, 0, 0, 0], "stateRewards": ["", -1, 2, 7, 8, 75, 67, -11, 6, 52, -17, 38, -1, 4, -8, 14, 74, -37, -17, -12, 52, 55, 71, -2, -1, -5, 2, 21, 6, -88, -14, 64, -61, -47], "withholdReward": false, "trial_id": "mdp_trial_14", "block": "test", "trialIndex": 15, "score": 39.85, "costs": -2.15, "simulationMode": [null, null, null, null, null], "rewards": [-2, -1, -5, -14, 64], "path": ["0", "0", "23", "24", "25", "30", "31"], "rt": [6123, 718, 423, 325, 693], "actions": ["left", "left", "left", "down", "right"], "actionTimes": [7617, 8844, 9780, 10620, 11867], "queries": {"click": {"state": {"target": ["31"], "time": [2925]}, "edge": {"target": [], "time": []}}, "mouseover": {"state": {"target": ["12", "13", "14", "20", "19", "22", "31", "31", "32"], "time": [1641, 1811, 1869, 2015, 2140, 2182, 2328, 2733, 3526]}, "edge": {"target": [], "time": []}}, "mouseout": {"state": {"target": ["0", "12", "13", "14", "20", "19", "22", "31", "31", "32"], "time": [1051, 1786, 1849, 1912, 2099, 2162, 2203, 2370, 3523, 7666]}, "edge": {"target": [], "time": []}}}, "displayed_time": "15.49", "trialTime": 18517, "trial_type": "mouselab-mdp", "trial_index": 22, "time_elapsed": 773348, "internal_node_id": "0.0-6.0-1.0-13.0"}}, {"uniqueid": "w63234002:a89550870", "current_trial": 23, "dateTime": 1693481508816, "trialdata": {"revealed_states": [], "clicked_states": ["28", "27", "29"], "num_clicks_accrued": [0, 0, 0, 0, 0, 0, 0, 0, 0, 0, 0, 0, 0], "stateRewards": ["", -2, 1, -3, -16, -39, -52, 30, -7, -41, -59, 11, 2, 1, 8, 2, -11, -26, -42, -13, 87, -59, -48, -1, -1, -1, 16, -79, 31, 50, -1, -84, 34, -82], "withholdReward": false, "trial_id": "mdp_trial_15", "block": "test", "trialIndex": 16, "score": 56.55, "costs": -6.449999999999999, "simulationMode": [null, null, null, null, null], "rewards": [-1, -1, -1, 16, 50], "path": ["0", "0", "23", "24", "25", "26", "29"], "rt": [13966, 200, 161, 659, 440], "actions": ["left", "left", "left", "up", "left"], "actionTimes": [15571, 16279, 16937, 18119, 19049], "queries": {"click": {"state": {"target": ["28", "27", "29"], "time": [4066, 7393, 11187]}, "edge": {"target": [], "time": []}}, "mouseover": {"state": {"target": ["28", "26", "27", "27", "28", "27", "29", "31"], "time": [2467, 2530, 2822, 3530, 3759, 4861, 7944, 12982]}, "edge": {"target": [], "time": []}}, "mouseout": {"state": {"target": ["0", "28", "26", "27", "27", "28", "27", "29", "31"], "time": [2349, 2508, 2591, 3299, 3638, 4121, 7735, 11233, 13066]}, "edge": {"target": [], "time": []}}}, "displayed_time": "19.56", "trialTime": 21962, "trial_type": "mouselab-mdp", "trial_index": 23, "time_elapsed": 795724, "internal_node_id": "0.0-6.0-1.0-14.0"}}, {"uniqueid": "w63234002:a89550870", "current_trial": 24, "dateTime": 1693481528067, "trialdata": {"revealed_states": [], "clicked_states": ["22"], "num_clicks_accrued": [0, 0, 0, 0, 0, 0, 0, 0, 0, 0, 0, 0, 0], "stateRewards": ["", -1, 2, 5, -6, 13, -64, -47, 8, -79, -80, -33, 1, 2, -2, -16, 56, -71, -10, 3, 29, 44, 85, -1, 4, 5, 4, -36, -56, 19, 8, 52, -13, -2], "withholdReward": false, "trial_id": "mdp_trial_16", "block": "test", "trialIndex": 17, "score": 86.85, "costs": -2.15, "simulationMode": [null, null, null, null, null], "rewards": [1, 2, -2, 3, 85], "path": ["0", "0", "12", "13", "14", "19", "22"], "rt": [5820, 824, 324, 792, 906], "actions": ["right", "right", "right", "down", "left"], "actionTimes": [6937, 8704, 9557, 10839, 12254], "queries": {"click": {"state": {"target": ["22"], "time": [2530]}, "edge": {"target": [], "time": []}}, "mouseover": {"state": {"target": ["12", "13", "14", "19", "22", "21"], "time": [1658, 1720, 1908, 1971, 2309, 3438]}, "edge": {"target": [], "time": []}}, "mouseout": {"state": {"target": ["0", "12", "13", "14", "19", "22", "21"], "time": [1617, 1701, 1804, 1930, 2058, 3429, 8276]}, "edge": {"target": [], "time": []}}}, "displayed_time": "15.12", "trialTime": 18902, "trial_type": "mouselab-mdp", "trial_index": 24, "time_elapsed": 814976, "internal_node_id": "0.0-6.0-1.0-15.0"}}, {"uniqueid": "w63234002:a89550870", "current_trial": 25, "dateTime": 1693481562615, "trialdata": {"revealed_states": [], "clicked_states": ["20", "21", "22", "7", "6"], "num_clicks_accrued": [0, 0, 0, 0, 0, 0, 0, 0, 0, 0, 0, 0, 0], "stateRewards": ["", 1, 1, -5, 10, -31, 73, 14, -8, -23, 63, -70, -1, 2, 8, 7, 25, -59, 27, -10, -40, -71, -15, -2, 3, -8, -5, -19, 77, -34, 7, 67, 63, 19], "withholdReward": false, "trial_id": "mdp_trial_17", "block": "test", "trialIndex": 18, "score": 69.25, "costs": -10.75, "simulationMode": [null, null, null, null, null], "rewards": [1, 1, -5, 10, 73], "path": ["0", "0", "1", "2", "3", "4", "6"], "rt": [21637, 102, 1604, 2005, 195], "actions": ["up", "up", "up", "right", "right"], "actionTimes": [23971, 24564, 27106, 29804, 30508], "queries": {"click": {"state": {"target": ["20", "21", "22", "7", "6"], "time": [3968, 7237, 10851, 16316, 19635]}, "edge": {"target": [], "time": []}}, "mouseover": {"state": {"target": ["12", "13", "19", "20", "21", "22", "24", "26", "5", "6", "6", "7", "6", "5"], "time": [2968, 3176, 3427, 3762, 4576, 7571, 14196, 14238, 14713, 15008, 15328, 16311, 16474, 20081]}, "edge": {"target": [], "time": []}}, "mouseout": {"state": {"target": ["14", "13", "12", "12", "13", "19", "20", "21", "22", "24", "26", "5", "6", "6", "7", "6", "5"], "time": [1172, 1213, 1373, 3072, 3197, 3705, 4574, 7467, 14077, 14217, 14257, 14881, 15132, 16310, 16321, 19894, 23650]}, "edge": {"target": [], "time": []}}}, "displayed_time": "31.01", "trialTime": 34092, "trial_type": "mouselab-mdp", "trial_index": 25, "time_elapsed": 849523, "internal_node_id": "0.0-6.0-1.0-16.0"}}, {"uniqueid": "w63234002:a89550870", "current_trial": 26, "dateTime": 1693481582359, "trialdata": {"revealed_states": [], "clicked_states": ["27", "29", "28"], "num_clicks_accrued": [0, 0, 0, 0, 0, 0, 0, 0, 0, 0, 0, 0, 0], "stateRewards": ["", 2, -3, -5, 5, 11, -9, -33, 6, 67, 6, -30, -1, -2, -6, 13, 55, 13, 72, -14, 75, 21, -66, -2, -4, 6, 15, -1, -35, 60, 2, 51, -73, 12], "withholdReward": false, "trial_id": "mdp_trial_18", "block": "test", "trialIndex": 19, "score": 68.55, "costs": -6.449999999999999, "simulationMode": [null, null, null, null, null], "rewards": [-2, -4, 6, 15, 60], "path": ["0", "0", "23", "24", "25", "26", "29"], "rt": [11701, 196, 160, 990, 143], "actions": ["left", "left", "left", "up", "left"], "actionTimes": [13308, 14032, 14705, 16304, 16974], "queries": {"click": {"state": {"target": ["27", "29", "28"], "time": [2706, 6459, 9931]}, "edge": {"target": [], "time": []}}, "mouseover": {"state": {"target": ["0", "28", "26", "27", "29", "29", "29", "26", "28", "28", "26"], "time": [1894, 2113, 2266, 2448, 3049, 3446, 6182, 6642, 6703, 6934, 10644]}, "edge": {"target": [], "time": []}}, "mouseout": {"state": {"target": ["17", "18", "0", "28", "26", "27", "27", "29", "29", "29", "26", "28", "28", "26", "29"], "time": [554, 611, 1989, 2222, 2365, 2764, 2987, 3280, 3780, 6619, 6682, 6786, 10582, 10728, 10832]}, "edge": {"target": [], "time": []}}}, "displayed_time": "17.50", "trialTime": 19304, "trial_type": "mouselab-mdp", "trial_index": 26, "time_elapsed": 869267, "internal_node_id": "0.0-6.0-1.0-17.0"}}, {"uniqueid": "w63234002:a89550870", "current_trial": 27, "dateTime": 1693481600588, "trialdata": {"revealed_states": [], "clicked_states": ["31", "32"], "num_clicks_accrued": [0, 0, 0, 0, 0, 0, 0, 0, 0, 0, 0, 0, 0], "stateRewards": ["", -1, 4, -8, 12, 14, 69, -8, 5, -72, -14, 56, -1, -1, -1, 9, 67, 19, 11, -9, -88, -58, 3, 2, -4, -8, 4, 62, 77, -74, 5, -31, 65, 88], "withholdReward": false, "trial_id": "mdp_trial_19", "block": "test", "trialIndex": 20, "score": 55.7, "costs": -4.3, "simulationMode": [null, null, null, null, null], "rewards": [2, -4, -8, 5, 65], "path": ["0", "0", "23", "24", "25", "30", "32"], "rt": [8707, 157, 195, 140, 538], "actions": ["left", "left", "left", "down", "down"], "actionTimes": [10009, 10798, 11535, 12191, 13253], "queries": {"click": {"state": {"target": ["31", "32"], "time": [2331, 5625]}, "edge": {"target": [], "time": []}}, "mouseover": {"state": {"target": ["32", "30", "31", "32", "33", "33", "30"], "time": [1807, 1932, 2078, 2913, 6125, 6358, 9288]}, "edge": {"target": [], "time": []}}, "mouseout": {"state": {"target": ["0", "32", "30", "31", "32", "32", "33", "33", "30", "22", "19"], "time": [1735, 1828, 2057, 2599, 6021, 6063, 6146, 9263, 9574, 10736, 10756]}, "edge": {"target": [], "time": []}}}, "displayed_time": "15.30", "trialTime": 17814, "trial_type": "mouselab-mdp", "trial_index": 27, "time_elapsed": 887496, "internal_node_id": "0.0-6.0-1.0-18.0"}}, {"uniqueid": "w63234002:a89550870", "current_trial": 28, "dateTime": 1693481616839, "trialdata": {"revealed_states": [], "clicked_states": ["22", "21"], "num_clicks_accrued": [0, 0, 0, 0, 0, 0, 0, 0, 0, 0, 0, 0, 0], "stateRewards": ["", 2, 3, -3, 12, -43, 81, -82, -15, 58, -7, -75, -1, -1, 3, -5, 50, -25, -8, 4, 66, 65, -66, 2, -4, 2, -1, -10, 10, 37, 11, 88, -37, 8], "withholdReward": false, "trial_id": "mdp_trial_20", "block": "test", "trialIndex": 21, "score": 65.7, "costs": -4.3, "simulationMode": [null, null, null, null, null], "rewards": [-1, -1, 3, 4, 65], "path": ["0", "0", "12", "13", "14", "19", "21"], "rt": [8813, 88, 134, 159, 130], "actions": ["right", "right", "right", "down", "down"], "actionTimes": [9917, 10516, 11170, 11820, 12474], "queries": {"click": {"state": {"target": ["22", "21"], "time": [1844, 5168]}, "edge": {"target": [], "time": []}}, "mouseover": {"state": {"target": ["22", "22", "21", "20"], "time": [1187, 1618, 2667, 5450]}, "edge": {"target": [], "time": []}}, "mouseout": {"state": {"target": ["0", "22", "22", "21", "20"], "time": [1113, 1292, 2154, 5325, 14300]}, "edge": {"target": [], "time": []}}}, "displayed_time": "15.11", "trialTime": 15868, "trial_type": "mouselab-mdp", "trial_index": 28, "time_elapsed": 903747, "internal_node_id": "0.0-6.0-1.0-19.0"}}, {"uniqueid": "w63234002:a89550870", "current_trial": 29, "dateTime": 1693481656635, "trialdata": {"revealed_states": [], "clicked_states": ["17", "16", "18", "7", "6", "5", "9", "11"], "num_clicks_accrued": [0, 0, 0, 0, 0, 0, 0, 0, 0, 0, 0, 0, 0], "stateRewards": ["", -2, 2, -5, 1, 42, -63, -58, -6, 2, 16, 81, -2, 4, 7, -10, 33, 3, -33, -2, -52, -84, -27, 2, -3, -3, 15, -74, -14, -5, -5, -84, 79, -31], "withholdReward": false, "trial_id": "mdp_trial_21", "block": "test", "trialIndex": 22, "score": 52.8, "costs": -17.2, "simulationMode": [null, null, null, null, null], "rewards": [-2, 2, -5, -6, 81], "path": ["0", "0", "1", "2", "3", "8", "11"], "rt": [28775, 511, 221, 594, 160], "actions": ["up", "up", "up", "left", "left"], "actionTimes": [32923, 33944, 34657, 35777, 36449], "queries": {"click": {"state": {"target": ["17", "16", "18", "7", "6", "5", "9", "11"], "time": [4772, 8004, 11517, 15576, 18784, 22148, 25811, 29319]}, "edge": {"target": [], "time": []}}, "mouseover": {"state": {"target": ["18", "17", "16", "18", "7", "7", "6", "5", "9", "9", "8", "11", "11", "10"], "time": [4157, 4496, 5121, 8550, 14199, 15350, 16099, 19190, 24138, 25624, 26846, 26978, 28658, 29720]}, "edge": {"target": [], "time": []}}, "mouseout": {"state": {"target": ["14", "13", "12", "0", "18", "17", "16", "18", "18", "7", "7", "6", "5", "9", "9", "8", "11", "11", "11", "10", "2", "21"], "time": [3125, 3313, 3605, 3807, 4204, 5038, 8338, 11595, 11843, 14605, 16097, 19022, 22902, 24243, 26201, 26930, 27138, 29394, 29555, 33014, 33053, 37910]}, "edge": {"target": [], "time": []}}}, "displayed_time": "37.08", "trialTime": 39367, "trial_type": "mouselab-mdp", "trial_index": 29, "time_elapsed": 943543, "internal_node_id": "0.0-6.0-1.0-20.0"}}, {"uniqueid": "w63234002:a89550870", "current_trial": 30, "dateTime": 1693481678203, "trialdata": {"revealed_states": [], "clicked_states": ["10", "28", "27"], "num_clicks_accrued": [0, 0, 0, 0, 0, 0, 0, 0, 0, 0, 0, 0, 0], "stateRewards": ["", -1, -2, 8, -6, -79, -6, 87, 9, -5, -66, -38, 2, 2, 5, -6, -82, 74, 85, -8, 67, -30, -15, 1, -2, -2, -2, 87, 64, 49, 7, 2, -38, -9], "withholdReward": false, "trial_id": "mdp_trial_22", "block": "test", "trialIndex": 23, "score": 75.55, "costs": -6.449999999999999, "simulationMode": [null, null, null, null, null], "rewards": [1, -2, -2, -2, 87], "path": ["0", "0", "23", "24", "25", "26", "27"], "rt": [12769, 107, 586, 861, 52], "actions": ["left", "left", "left", "up", "up"], "actionTimes": [14928, 15576, 16938, 18312, 18896], "queries": {"click": {"state": {"target": ["10", "28", "27"], "time": [3197, 6877, 10474]}, "edge": {"target": [], "time": []}}, "mouseover": {"state": {"target": ["1", "10", "1", "28", "27", "27", "28", "27", "26", "29"], "time": [2481, 2649, 3544, 4898, 4982, 5962, 6633, 7127, 10775, 11025]}, "edge": {"target": [], "time": []}}, "mouseout": {"state": {"target": ["21", "21", "23", "0", "1", "10", "1", "28", "27", "27", "28", "27", "26", "29", "26", "19", "20", "21"], "time": [104, 456, 1166, 2331, 2523, 3304, 4815, 4920, 5027, 6065, 7043, 10734, 10796, 14773, 17194, 17257, 17280, 20141]}, "edge": {"target": [], "time": []}}}, "displayed_time": "19.43", "trialTime": 21200, "trial_type": "mouselab-mdp", "trial_index": 30, "time_elapsed": 965111, "internal_node_id": "0.0-6.0-1.0-21.0"}}, {"uniqueid": "w63234002:a89550870", "current_trial": 31, "dateTime": 1693481706317, "trialdata": {"revealed_states": [], "clicked_states": ["29", "33", "32", "31", "22"], "num_clicks_accrued": [0, 0, 0, 0, 0, 0, 0, 0, 0, 0, 0, 0, 0], "stateRewards": ["", 2, -3, 5, -14, -63, -9, -24, -11, -54, -43, 68, 2, -2, -4, 7, -64, 30, 47, 12, -74, 11, 86, 1, -3, 3, 10, -71, -42, -52, -1, -29, -16, 69], "withholdReward": false, "trial_id": "mdp_trial_23", "block": "test", "trialIndex": 24, "score": 83.25, "costs": -10.75, "simulationMode": [null, null, null, null, null], "rewards": [2, -2, -4, 12, 86], "path": ["0", "0", "12", "13", "14", "19", "22"], "rt": [19692, 10, 1416, 684, 205], "actions": ["right", "right", "right", "down", "left"], "actionTimes": [20990, 21510, 23456, 24648, 25368], "queries": {"click": {"state": {"target": ["29", "33", "32", "31", "22"], "time": [2210, 5413, 9775, 13023, 16674]}, "edge": {"target": [], "time": []}}, "mouseover": {"state": {"target": ["23", "26", "29", "33", "32", "31", "22", "21"], "time": [1445, 1734, 1778, 4110, 5937, 10119, 14796, 17034]}, "edge": {"target": [], "time": []}}, "mouseout": {"state": {"target": ["0", "23", "26", "29", "33", "32", "31", "22", "21"], "time": [1443, 1463, 1756, 2799, 5749, 9952, 13317, 16930, 23569]}, "edge": {"target": [], "time": []}}}, "displayed_time": "25.90", "trialTime": 27640, "trial_type": "mouselab-mdp", "trial_index": 31, "time_elapsed": 993226, "internal_node_id": "0.0-6.0-1.0-22.0"}}, {"uniqueid": "w63234002:a89550870", "current_trial": 32, "dateTime": 1693481784528, "trialdata": {"revealed_states": [], "clicked_states": ["21", "20", "17", "16", "18", "7", "6", "5", "9", "11", "10", "28", "27", "29", "33", "32", "31", "22"], "num_clicks_accrued": [0, 0, 0, 0, 0, 0, 0, 0, 0, 0, 0, 0, 0], "stateRewards": ["", -2, 2, -5, -6, 10, -66, -58, -10, -11, -63, -70, -1, -4, -5, 7, 66, -64, -43, -3, 45, -37, 4, -2, -2, -6, -4, -30, 33, 43, 15, -32, -65, -59], "withholdReward": false, "trial_id": "mdp_trial_24", "block": "test", "trialIndex": 25, "score": -105.69999999999999, "costs": -38.69999999999999, "simulationMode": [null, null, null, null, null], "rewards": [-1, -4, -5, 7, -64], "path": ["0", "0", "12", "13", "14", "15", "17"], "rt": [66773, 133, 72, 1119, 116], "actions": ["right", "right", "right", "up", "right"], "actionTimes": [68610, 69599, 70183, 71878, 72501], "queries": {"click": {"state": {"target": ["21", "20", "17", "16", "18", "7", "6", "5", "9", "11", "10", "28", "27", "29", "33", "32", "31", "22"], "time": [4269, 7606, 10964, 14103, 17674, 20928, 24079, 27379, 31793, 35168, 38380, 41769, 45081, 48420, 52344, 55905, 59587, 63737]}, "edge": {"target": [], "time": []}}, "mouseover": {"state": {"target": ["31", "32", "21", "20", "17", "16", "18", "7", "6", "5", "5", "5", "3", "9", "11", "10", "27", "28", "27", "29", "29", "33", "32", "32", "31", "22"], "time": [3393, 3475, 4064, 4560, 8587, 12976, 14789, 18474, 21270, 24726, 26809, 27023, 30934, 31542, 32225, 35531, 39038, 40768, 42038, 46857, 48209, 52119, 53320, 55663, 56798, 62910]}, "edge": {"target": [], "time": []}}, "mouseout": {"state": {"target": ["21", "0", "31", "32", "21", "20", "17", "16", "18", "7", "6", "5", "5", "5", "6", "5", "3", "9", "9", "11", "10", "27", "28", "27", "29", "29", "33", "32", "32", "31", "22", "19"], "time": [181, 3330, 3413, 3727, 4455, 7857, 11267, 14456, 17995, 21166, 24332, 25560, 26871, 27678, 29518, 30851, 31318, 31914, 32185, 35468, 38767, 40685, 41955, 45461, 47482, 48724, 52757, 54106, 56047, 59638, 63776, 73818]}, "edge": {"target": [], "time": []}}}, "displayed_time": "73.02", "trialTime": 77735, "trial_type": "mouselab-mdp", "trial_index": 32, "time_elapsed": 1071436, "internal_node_id": "0.0-6.0-1.0-23.0"}}, {"uniqueid": "w63234002:a89550870", "current_trial": 33, "dateTime": 1693481826127, "trialdata": {"revealed_states": [], "clicked_states": ["21", "20", "22", "17", "16", "18", "7", "6"], "num_clicks_accrued": [0, 0, 0, 0, 0, 0, 0, 0, 0, 0, 0, 0, 0], "stateRewards": ["", -1, -4, 8, 8, -68, 47, 24, -7, -61, 49, -69, -1, -1, 8, -7, 42, 1, -45, -11, 10, -63, -6, 1, 4, 6, -16, 79, -37, -58, -12, 81, 18, -53], "withholdReward": false, "trial_id": "mdp_trial_25", "block": "test", "trialIndex": 26, "score": 40.8, "costs": -17.2, "simulationMode": [null, null, null, null, null], "rewards": [-1, -4, 8, 8, 47], "path": ["0", "0", "1", "2", "3", "4", "6"], "rt": [33686, 386, 328, 232, 155], "actions": ["up", "up", "up", "right", "right"], "actionTimes": [35352, 36274, 37112, 37872, 38536], "queries": {"click": {"state": {"target": ["21", "20", "22", "17", "16", "18", "7", "6"], "time": [3687, 6940, 10657, 15264, 18906, 23036, 26863, 30348]}, "edge": {"target": [], "time": []}}, "mouseover": {"state": {"target": ["12", "12", "7", "9", "2", "12", "22", "21", "20", "14", "22", "22", "17", "16", "15", "18", "18", "7", "6", "6", "16"], "time": [1713, 2442, 2519, 2850, 3060, 3142, 3287, 3475, 4434, 7409, 7584, 10384, 14747, 18773, 21036, 21160, 22114, 26715, 27211, 30111, 30837]}, "edge": {"target": [], "time": []}}, "mouseout": {"state": {"target": ["0", "12", "12", "7", "9", "2", "12", "22", "21", "20", "14", "22", "22", "22", "17", "16", "15", "18", "18", "7", "6", "6", "16"], "time": [1681, 1735, 2478, 2540, 3057, 3079, 3162, 3308, 3760, 7245, 7515, 7617, 10731, 11050, 15511, 18916, 21096, 21263, 23212, 27066, 27232, 30669, 31254]}, "edge": {"target": [], "time": []}}}, "displayed_time": "39.03", "trialTime": 41073, "trial_type": "mouselab-mdp", "trial_index": 33, "time_elapsed": 1113035, "internal_node_id": "0.0-6.0-1.0-24.0"}}, {"uniqueid": "w63234002:a89550870", "current_trial": 34, "dateTime": 1693481844488, "trialdata": {"revealed_states": [], "clicked_states": ["6"], "num_clicks_accrued": [0, 0, 0, 0, 0, 0, 0, 0, 0, 0, 0, 0, 0], "stateRewards": ["", -2, -4, -2, -13, -15, 87, -19, -6, -80, 30, 12, 1, 1, -8, 2, 55, 56, 15, 11, -68, -7, 55, -2, 3, -3, -3, 48, 62, 4, 1, -3, 69, -33], "withholdReward": false, "trial_id": "mdp_trial_26", "block": "test", "trialIndex": 27, "score": 63.85, "costs": -2.15, "simulationMode": [null, null, null, null, null], "rewards": [-2, -4, -2, -13, 87], "path": ["0", "0", "1", "2", "3", "4", "6"], "rt": [5906, 253, 102, 739, 530], "actions": ["up", "up", "up", "right", "right"], "actionTimes": [6908, 7672, 8289, 9569, 10624], "queries": {"click": {"state": {"target": ["6"], "time": [2590]}, "edge": {"target": [], "time": []}}, "mouseover": {"state": {"target": ["22", "22", "13", "6", "5", "5", "5"], "time": [1755, 2047, 2091, 2401, 3568, 4507, 5361]}, "edge": {"target": [], "time": []}}, "mouseout": {"state": {"target": ["22", "22", "13", "6", "5", "5", "5", "25", "1", "0"], "time": [1943, 2090, 2110, 3486, 4132, 5028, 6057, 15349, 15746, 16941]}, "edge": {"target": [], "time": []}}}, "displayed_time": "15.00", "trialTime": 17946, "trial_type": "mouselab-mdp", "trial_index": 34, "time_elapsed": 1131396, "internal_node_id": "0.0-6.0-1.0-25.0"}}, {"uniqueid": "w63234002:a89550870", "current_trial": 35, "dateTime": 1693481883906, "trialdata": {"revealed_states": [], "clicked_states": ["5", "9", "11", "10", "27", "28", "29", "33"], "num_clicks_accrued": [0, 0, 0, 0, 0, 0, 0, 0, 0, 0, 0, 0, 0], "stateRewards": ["", -1, 3, -5, -2, -13, -9, -34, -7, -81, 32, 35, -2, -2, 1, -14, -32, 81, 7, 4, 82, 56, -8, -1, 3, -8, 6, -24, -24, -53, 2, 38, 61, 54], "withholdReward": false, "trial_id": "mdp_trial_27", "block": "test", "trialIndex": 28, "score": 32.8, "costs": -17.2, "simulationMode": [null, null, null, null, null], "rewards": [-1, 3, -8, 2, 54], "path": ["0", "0", "23", "24", "25", "30", "33"], "rt": [32265, 523, 458, 150, 180], "actions": ["left", "left", "left", "down", "left"], "actionTimes": [34160, 35197, 36189, 36853, 37549], "queries": {"click": {"state": {"target": ["5", "9", "11", "10", "27", "28", "29", "33"], "time": [3676, 8141, 11403, 14765, 18959, 22316, 25574, 29428]}, "edge": {"target": [], "time": []}}, "mouseover": {"state": {"target": ["7", "4", "5", "3", "7", "7", "8", "9", "11", "10", "27", "28", "29", "11", "33"], "time": [2834, 2915, 3421, 4266, 4624, 6374, 7818, 7915, 8674, 11928, 18621, 22011, 23109, 27117, 29102]}, "edge": {"target": [], "time": []}}, "mouseout": {"state": {"target": ["0", "0", "7", "4", "5", "3", "7", "7", "8", "9", "11", "10", "27", "28", "29", "11", "33"], "time": [878, 2178, 2858, 3212, 3939, 4563, 4708, 6439, 7848, 8672, 11926, 15620, 19610, 22863, 26282, 27180, 29722]}, "edge": {"target": [], "time": []}}}, "displayed_time": "38.04", "trialTime": 38972, "trial_type": "mouselab-mdp", "trial_index": 35, "time_elapsed": 1170814, "internal_node_id": "0.0-6.0-1.0-26.0"}}, {"uniqueid": "w63234002:a89550870", "current_trial": 36, "dateTime": 1693481901472, "trialdata": {"revealed_states": [], "clicked_states": ["32", "31"], "num_clicks_accrued": [0, 0, 0, 0, 0, 0, 0, 0, 0, 0, 0, 0, 0], "stateRewards": ["", 2, -1, 8, -2, -16, 69, -39, -7, -13, -27, -86, 2, -2, 2, 13, -34, -16, -20, -5, 19, 81, 32, -2, -1, 2, -14, 20, 80, 58, 4, 70, 12, 73], "withholdReward": false, "trial_id": "mdp_trial_28", "block": "test", "trialIndex": 29, "score": 68.7, "costs": -4.3, "simulationMode": [null, null, null, null, null], "rewards": [-2, -1, 2, 4, 70], "path": ["0", "0", "23", "24", "25", "30", "31"], "rt": [9623, 51, 62, 163, 185], "actions": ["left", "left", "left", "down", "right"], "actionTimes": [11081, 11641, 12403, 13107, 13817], "queries": {"click": {"state": {"target": ["32", "31"], "time": [3216, 6724]}, "edge": {"target": [], "time": []}}, "mouseover": {"state": {"target": ["2", "2", "1", "0", "23", "24", "30", "32", "31", "31", "30", "33", "33", "33", "33", "30", "25"], "time": [1727, 1953, 1998, 2287, 2433, 2515, 2703, 2975, 3517, 3828, 7086, 7128, 7421, 7691, 8503, 10209, 10267]}, "edge": {"target": [], "time": []}}, "mouseout": {"state": {"target": ["32", "0", "2", "2", "1", "0", "23", "24", "30", "32", "31", "31", "30", "33", "33", "33", "33", "30", "25", "24"], "time": [329, 1650, 1746, 1995, 2037, 2308, 2494, 2598, 2917, 3328, 3662, 7065, 7108, 7149, 7524, 8148, 10170, 10229, 10370, 16222]}, "edge": {"target": [], "time": []}}}, "displayed_time": "15.46", "trialTime": 17075, "trial_type": "mouselab-mdp", "trial_index": 36, "time_elapsed": 1188379, "internal_node_id": "0.0-6.0-1.0-27.0"}}, {"uniqueid": "w63234002:a89550870", "current_trial": 37, "dateTime": 1693481950074, "trialdata": {"revealed_states": [], "clicked_states": ["22", "21", "20", "17", "16", "18", "7", "6", "5", "10"], "num_clicks_accrued": [0, 0, 0, 0, 0, 0, 0, 0, 0, 0, 0, 0, 0], "stateRewards": ["", -2, -1, -5, 10, -36, -70, 68, -9, 86, 71, -10, 2, -4, 7, -7, 66, 44, -66, -13, -69, 43, 15, -2, 2, 6, -13, 62, 57, 50, -10, -69, 42, -72], "withholdReward": false, "trial_id": "mdp_trial_29", "block": "test", "trialIndex": 30, "score": 32.5, "costs": -21.499999999999996, "simulationMode": [null, null, null, null, null], "rewards": [-2, -1, -5, -9, 71], "path": ["0", "0", "1", "2", "3", "8", "10"], "rt": [39390, 34, 322, 9, 186], "actions": ["up", "up", "up", "left", "down"], "actionTimes": [42077, 42617, 43467, 43985, 44705], "queries": {"click": {"state": {"target": ["22", "21", "20", "17", "16", "18", "7", "6", "5", "10"], "time": [4487, 7616, 10815, 14709, 18074, 21884, 25560, 29528, 33073, 37423]}, "edge": {"target": [], "time": []}}, "mouseover": {"state": {"target": ["23", "24", "25", "31", "21", "22", "19", "21", "20", "20", "17", "16", "16", "18", "7", "6", "7", "16", "16", "6", "5", "16", "3", "10", "3", "7"], "time": [3378, 3396, 3447, 3698, 3782, 4309, 5146, 5219, 8053, 8408, 14510, 15010, 17893, 20635, 22532, 22635, 25427, 25885, 26843, 29335, 32914, 34303, 36963, 37256, 38039, 38270]}, "edge": {"target": [], "time": []}}, "mouseout": {"state": {"target": ["25", "24", "23", "0", "23", "24", "25", "31", "21", "22", "19", "21", "20", "20", "17", "16", "16", "18", "7", "6", "7", "16", "16", "6", "5", "16", "5", "3", "10", "3", "7"], "time": [1457, 1519, 2079, 3352, 3392, 3427, 3615, 3719, 3801, 4678, 5178, 7911, 8179, 11097, 14969, 15031, 18676, 22260, 22551, 22843, 25780, 25905, 28713, 29804, 33586, 34788, 36713, 36983, 37812, 38082, 40944]}, "edge": {"target": [], "time": []}}}, "displayed_time": "45.37", "trialTime": 48233, "trial_type": "mouselab-mdp", "trial_index": 37, "time_elapsed": 1236983, "internal_node_id": "0.0-6.0-1.0-28.0"}}, {"uniqueid": "w63234002:a89550870", "current_trial": 38, "dateTime": 1693481969120, "trialdata": {"revealed_states": [], "clicked_states": ["9"], "num_clicks_accrued": [0, 0, 0, 0, 0, 0, 0, 0, 0, 0, 0, 0, 0], "stateRewards": ["", 1, 3, -2, 15, 51, 15, -19, 11, 67, -45, -73, 2, 4, -2, -13, 36, 9, -28, 10, -30, 31, 16, 1, 2, -1, -16, 14, -22, 36, -1, 88, -5, 45], "withholdReward": false, "trial_id": "mdp_trial_30", "block": "test", "trialIndex": 31, "score": 77.85, "costs": -2.15, "simulationMode": [null, null, null, null, null], "rewards": [1, 3, -2, 11, 67], "path": ["0", "0", "1", "2", "3", "8", "9"], "rt": [5724, 90, 368, 414, 159], "actions": ["up", "up", "up", "left", "up"], "actionTimes": [7600, 8195, 9077, 10124, 10796], "queries": {"click": {"state": {"target": ["9"], "time": [3411]}, "edge": {"target": [], "time": []}}, "mouseover": {"state": {"target": ["18", "9", "8", "10", "10"], "time": [2427, 3180, 4236, 4319, 4632]}, "edge": {"target": [], "time": []}}, "mouseout": {"state": {"target": ["3", "7", "15", "14", "13", "31", "0", "18", "9", "8", "10", "10", "16"], "time": [467, 490, 565, 669, 1040, 1064, 1890, 2449, 3777, 4299, 4381, 12935, 13074]}, "edge": {"target": [], "time": []}}}, "displayed_time": "15.88", "trialTime": 18621, "trial_type": "mouselab-mdp", "trial_index": 38, "time_elapsed": 1256027, "internal_node_id": "0.0-6.0-1.0-29.0"}}, {"uniqueid": "w63234002:a89550870", "current_trial": 39, "dateTime": 1693481992464, "trialdata": {"revealed_states": [], "clicked_states": ["32", "33", "31", "29"], "num_clicks_accrued": [0, 0, 0, 0, 0, 0, 0, 0, 0, 0, 0, 0, 0], "stateRewards": ["", -2, -3, -3, 9, 79, 67, 22, -15, -56, 27, -85, -2, 4, -4, -15, -20, -32, 60, 15, 71, 57, 17, 1, 2, -8, 15, -37, -81, 82, 15, 21, -3, 2], "withholdReward": false, "trial_id": "mdp_trial_31", "block": "test", "trialIndex": 32, "score": 83.4, "costs": -8.6, "simulationMode": [null, null, null, null, null], "rewards": [1, 2, -8, 15, 82], "path": ["0", "0", "23", "24", "25", "26", "29"], "rt": [16527, 88, 328, 100, 166], "actions": ["left", "left", "left", "up", "left"], "actionTimes": [17885, 18481, 19322, 19929, 20619], "queries": {"click": {"state": {"target": ["32", "33", "31", "29"], "time": [2169, 6024, 9623, 13449]}, "edge": {"target": [], "time": []}}, "mouseover": {"state": {"target": ["32", "20", "21", "33", "30", "31", "29", "29", "29", "27"], "time": [2007, 3935, 3979, 5807, 6236, 6631, 10052, 12828, 13226, 14210]}, "edge": {"target": [], "time": []}}, "mouseout": {"state": {"target": ["17", "15", "0", "32", "20", "21", "33", "30", "31", "29", "29", "29", "29", "27"], "time": [242, 618, 1466, 2319, 3961, 3991, 6215, 6256, 9988, 10073, 12891, 13748, 13915, 22251]}, "edge": {"target": [], "time": []}}}, "displayed_time": "21.13", "trialTime": 22890, "trial_type": "mouselab-mdp", "trial_index": 39, "time_elapsed": 1279371, "internal_node_id": "0.0-6.0-1.0-30.0"}}, {"uniqueid": "w63234002:a89550870", "current_trial": 40, "dateTime": 1693482020872, "trialdata": {"revealed_states": [], "clicked_states": ["27", "28", "29", "31", "33"], "num_clicks_accrued": [0, 0, 0, 0, 0, 0, 0, 0, 0, 0, 0, 0, 0], "stateRewards": ["", -2, 2, -1, -6, 22, 6, 6, -5, 70, -42, 65, 1, 3, 5, -6, -67, -9, 3, 14, 7, -62, -13, -2, 4, 1, 16, 42, -21, -52, -8, 32, 53, 81], "withholdReward": false, "trial_id": "mdp_trial_32", "block": "test", "trialIndex": 33, "score": 65.25, "costs": -10.75, "simulationMode": [null, null, null, null, null], "rewards": [-2, 4, 1, -8, 81], "path": ["0", "0", "23", "24", "25", "30", "33"], "rt": [21942, 12, 156, 127, 478], "actions": ["left", "left", "left", "down", "left"], "actionTimes": [22735, 23254, 23942, 24582, 25575], "queries": {"click": {"state": {"target": ["27", "28", "29", "31", "33"], "time": [3655, 7075, 11013, 14649, 18472]}, "edge": {"target": [], "time": []}}, "mouseover": {"state": {"target": ["0", "31", "24", "27", "27", "28", "28", "24", "31", "25", "29", "31", "33", "32", "32"], "time": [2049, 2644, 3154, 3207, 3489, 3938, 4269, 7543, 7604, 10379, 10536, 14492, 17532, 18564, 19724]}, "edge": {"target": [], "time": []}}, "mouseout": {"state": {"target": ["0", "0", "31", "24", "27", "27", "28", "28", "24", "31", "25", "29", "31", "31", "33", "32", "32"], "time": [573, 2123, 3133, 3171, 3228, 3832, 3957, 7522, 7583, 7626, 10409, 11021, 14724, 14991, 18544, 18648, 21875]}, "edge": {"target": [], "time": []}}}, "displayed_time": "26.09", "trialTime": 27951, "trial_type": "mouselab-mdp", "trial_index": 40, "time_elapsed": 1307779, "internal_node_id": "0.0-6.0-1.0-31.0"}}, {"uniqueid": "w63234002:a89550870", "current_trial": 41, "dateTime": 1693482059599, "trialdata": {"revealed_states": [], "clicked_states": ["22", "21", "20", "17", "16", "18", "7", "6"], "num_clicks_accrued": [0, 0, 0, 0, 0, 0, 0, 0, 0, 0, 0, 0, 0], "stateRewards": ["", -2, 3, -1, 2, -72, 63, 20, -1, 62, -66, 39, -2, 3, -6, 14, 22, 47, 1, 8, -49, -1, -41, 2, 2, -6, -16, -64, -60, -34, 16, 54, 22, -7], "withholdReward": false, "trial_id": "mdp_trial_33", "block": "test", "trialIndex": 34, "score": 47.8, "costs": -17.2, "simulationMode": [null, null, null, null, null], "rewards": [-2, 3, -1, 2, 63], "path": ["0", "0", "1", "2", "3", "4", "6"], "rt": [32042, 175, 162, 606, 79], "actions": ["up", "up", "up", "right", "right"], "actionTimes": [33043, 33729, 34399, 35529, 36119], "queries": {"click": {"state": {"target": ["22", "21", "20", "17", "16", "18", "7", "6"], "time": [3133, 6462, 9729, 13182, 16998, 21247, 24998, 28422]}, "edge": {"target": [], "time": []}}, "mouseover": {"state": {"target": ["1", "2", "3", "3", "2", "12", "22", "21", "22", "19", "21", "20", "14", "17", "16", "15", "18", "15", "17", "6", "7", "6", "5", "5"], "time": [1704, 1751, 1821, 1938, 2051, 2323, 2446, 2570, 2904, 3299, 3695, 6849, 10070, 13008, 16703, 17222, 20024, 21534, 21577, 24504, 24817, 28271, 29413, 31483]}, "edge": {"target": [], "time": []}}, "mouseout": {"state": {"target": ["12", "1", "2", "3", "3", "2", "12", "22", "21", "22", "19", "21", "20", "14", "17", "16", "15", "18", "15", "17", "6", "7", "6", "5", "5", "6"], "time": [80, 1739, 1780, 1842, 1977, 2072, 2363, 2509, 2779, 3237, 3383, 6664, 10008, 10257, 13251, 17159, 17305, 21514, 21556, 21599, 24540, 25163, 29267, 29496, 32130, 32314]}, "edge": {"target": [], "time": []}}}, "displayed_time": "36.64", "trialTime": 38217, "trial_type": "mouselab-mdp", "trial_index": 41, "time_elapsed": 1346506, "internal_node_id": "0.0-6.0-1.0-32.0"}}, {"uniqueid": "w63234002:a89550870", "current_trial": 42, "dateTime": 1693482079925, "trialdata": {"revealed_states": [], "clicked_states": ["9", "11", "10"], "num_clicks_accrued": [0, 0, 0, 0, 0, 0, 0, 0, 0, 0, 0, 0, 0], "stateRewards": ["", -1, -3, 4, -10, -5, 79, -87, -2, 53, 29, -20, -2, -1, -5, 10, 27, 86, 46, -16, -29, 40, 3, 2, 4, -1, -6, 37, 79, -29, 7, 86, -62, 29], "withholdReward": false, "trial_id": "mdp_trial_34", "block": "test", "trialIndex": 35, "score": 44.55, "costs": -6.449999999999999, "simulationMode": [null, null, null, null, null], "rewards": [-1, -3, 4, -2, 53], "path": ["0", "0", "1", "2", "3", "8", "9"], "rt": [12962, 874, 124, 537, 356], "actions": ["up", "up", "up", "left", "up"], "actionTimes": [13985, 15414, 16060, 17118, 18231], "queries": {"click": {"state": {"target": ["9", "11", "10"], "time": [2324, 7409, 10641]}, "edge": {"target": [], "time": []}}, "mouseover": {"state": {"target": ["12", "18", "5", "9", "8", "11", "11", "10"], "time": [1182, 1734, 1849, 2019, 2688, 2792, 5591, 7870]}, "edge": {"target": [], "time": []}}, "mouseout": {"state": {"target": ["0", "12", "18", "5", "9", "8", "11", "11", "10", "16", "18"], "time": [1140, 1245, 1773, 1894, 2584, 2709, 2897, 7680, 11541, 19380, 19838]}, "edge": {"target": [], "time": []}}}, "displayed_time": "18.75", "trialTime": 19840, "trial_type": "mouselab-mdp", "trial_index": 42, "time_elapsed": 1366834, "internal_node_id": "0.0-6.0-1.0-33.0"}}, {"uniqueid": "w63234002:a89550870", "current_trial": 43, "dateTime": 1693482103130, "trialdata": {"revealed_states": [], "clicked_states": ["27", "28", "29", "33"], "num_clicks_accrued": [0, 0, 0, 0, 0, 0, 0, 0, 0, 0, 0, 0, 0], "stateRewards": ["", -2, -4, -8, 8, 63, -50, -19, -7, -17, -31, 31, 1, 3, -5, 12, -35, -63, -29, -4, -17, -75, -79, -2, -3, -2, 8, -3, -85, 10, -2, -82, -82, 56], "withholdReward": false, "trial_id": "mdp_trial_35", "block": "test", "trialIndex": 36, "score": 38.4, "costs": -8.6, "simulationMode": [null, null, null, null, null], "rewards": [-2, -3, -2, -2, 56], "path": ["0", "0", "23", "24", "25", "30", "33"], "rt": [16180, 346, 139, 174, 855], "actions": ["left", "left", "left", "down", "left"], "actionTimes": [17940, 18398, 19046, 19750, 21118], "queries": {"click": {"state": {"target": ["27", "28", "29", "33"], "time": [2640, 5847, 9025, 13266]}, "edge": {"target": [], "time": []}}, "mouseover": {"state": {"target": ["0", "22", "1", "27", "28", "26", "29", "29", "29", "33", "32", "32", "14"], "time": [1773, 1831, 2081, 2458, 2957, 6097, 6136, 6428, 7074, 13015, 14157, 16430, 17480]}, "edge": {"target": [], "time": []}}, "mouseout": {"state": {"target": ["14", "22", "0", "0", "22", "1", "27", "28", "26", "29", "29", "29", "33", "32", "32", "14"], "time": [290, 351, 1418, 1779, 2047, 2103, 2853, 6095, 6115, 6158, 6845, 9382, 13490, 14240, 17295, 17938]}, "edge": {"target": [], "time": []}}}, "displayed_time": "21.63", "trialTime": 22788, "trial_type": "mouselab-mdp", "trial_index": 43, "time_elapsed": 1390038, "internal_node_id": "0.0-6.0-1.0-34.0"}}, {"uniqueid": "w63234002:a89550870", "current_trial": 44, "dateTime": 1693482130625, "trialdata": {"revealed_states": [], "clicked_states": ["20", "21", "22", "17", "16"], "num_clicks_accrued": [0, 0, 0, 0, 0, 0, 0, 0, 0, 0, 0, 0, 0], "stateRewards": ["", 2, 2, 3, -15, 23, -14, 73, -7, -32, -20, -6, 1, 1, -5, -12, 73, 6, -84, 11, -81, -57, 13, -2, -1, -4, -8, -52, -58, 49, 13, 5, -41, -41], "withholdReward": false, "trial_id": "mdp_trial_36", "block": "test", "trialIndex": 37, "score": 47.25, "costs": -10.75, "simulationMode": [null, null, null, null, null], "rewards": [1, 1, -5, -12, 73], "path": ["0", "0", "12", "13", "14", "15", "16"], "rt": [19405, 516, 296, 162, 141], "actions": ["right", "right", "right", "up", "up"], "actionTimes": [20920, 21963, 22773, 23443, 24109], "queries": {"click": {"state": {"target": ["20", "21", "22", "17", "16"], "time": [2948, 6322, 9480, 13297, 16585]}, "edge": {"target": [], "time": []}}, "mouseover": {"state": {"target": ["12", "13", "14", "20", "21", "21", "22", "19", "17", "16", "18", "15", "17"], "time": [1593, 1829, 2072, 2472, 3781, 5283, 6686, 9793, 12960, 16303, 16970, 20024, 20056]}, "edge": {"target": [], "time": []}}, "mouseout": {"state": {"target": ["0", "12", "13", "14", "20", "21", "21", "22", "19", "17", "16", "16", "18", "15", "17"], "time": [1522, 1788, 1886, 2395, 3155, 4093, 6601, 9773, 9814, 13491, 16659, 16894, 20022, 20036, 20078]}, "edge": {"target": [], "time": []}}}, "displayed_time": "25.02", "trialTime": 26955, "trial_type": "mouselab-mdp", "trial_index": 44, "time_elapsed": 1417534, "internal_node_id": "0.0-6.0-1.0-35.0"}}, {"uniqueid": "w63234002:a89550870", "current_trial": 45, "dateTime": 1693482158393, "trialdata": {"revealed_states": [], "clicked_states": ["7", "6", "5", "9", "11"], "num_clicks_accrued": [0, 0, 0, 0, 0, 0, 0, 0, 0, 0, 0, 0, 0], "stateRewards": ["", -2, -3, 1, -7, 39, -67, 16, 5, -20, 73, 66, -1, 4, 5, -3, 23, -68, -87, -8, 3, -3, 17, 1, -4, -2, -13, -32, 34, 61, -5, -11, -18, 12], "withholdReward": false, "trial_id": "mdp_trial_37", "block": "test", "trialIndex": 38, "score": 56.25, "costs": -10.75, "simulationMode": [null, null, null, null, null], "rewards": [-2, -3, 1, 5, 66], "path": ["0", "0", "1", "2", "3", "8", "11"], "rt": [21558, 316, 491, 50, 126], "actions": ["up", "up", "up", "left", "left"], "actionTimes": [22787, 23641, 24652, 25233, 25889], "queries": {"click": {"state": {"target": ["7", "6", "5", "9", "11"], "time": [2338, 5766, 9580, 13541, 17360]}, "edge": {"target": [], "time": []}}, "mouseover": {"state": {"target": ["4", "6", "7", "16", "6", "6", "5", "9", "11", "10"], "time": [1577, 1891, 2080, 2661, 3161, 5377, 9344, 13353, 16796, 20602]}, "edge": {"target": [], "time": []}}, "mouseout": {"state": {"target": ["14", "13", "12", "0", "4", "6", "7", "16", "6", "6", "5", "9", "9", "11", "11", "10", "2", "16", "20", "21"], "time": [264, 369, 514, 1240, 1864, 1952, 2515, 2681, 3849, 5973, 9857, 13559, 13908, 17572, 19990, 25482, 25572, 25842, 27112, 27195]}, "edge": {"target": [], "time": []}}}, "displayed_time": "26.43", "trialTime": 27396, "trial_type": "mouselab-mdp", "trial_index": 45, "time_elapsed": 1445301, "internal_node_id": "0.0-6.0-1.0-36.0"}}, {"uniqueid": "w63234002:a89550870", "current_trial": 46, "dateTime": 1693482189166, "trialdata": {"revealed_states": [], "clicked_states": ["27", "28", "29", "33", "32", "31"], "num_clicks_accrued": [0, 0, 0, 0, 0, 0, 0, 0, 0, 0, 0, 0, 0], "stateRewards": ["", -2, 3, -1, -9, 44, 48, -37, -3, 71, -39, 87, -1, 3, -4, 4, -21, 59, -15, -8, -1, 28, -38, 2, 4, 4, 8, -85, -72, -63, 14, 58, 63, -46], "withholdReward": false, "trial_id": "mdp_trial_38", "block": "test", "trialIndex": 39, "score": 74.1, "costs": -12.9, "simulationMode": [null, null, null, null, null], "rewards": [2, 4, 4, 14, 63], "path": ["0", "0", "23", "24", "25", "30", "32"], "rt": [24275, 109, 89, 68, 50], "actions": ["left", "left", "left", "down", "down"], "actionTimes": [25768, 26378, 26976, 27562, 28144], "queries": {"click": {"state": {"target": ["27", "28", "29", "33", "32", "31"], "time": [2521, 6257, 9760, 13905, 17215, 21044]}, "edge": {"target": [], "time": []}}, "mouseover": {"state": {"target": ["24", "26", "27", "28", "29", "30", "33", "30", "31", "30", "32", "31", "23"], "time": [1855, 1990, 2219, 3428, 6271, 13584, 13669, 14168, 14251, 14460, 15236, 17585, 22023]}, "edge": {"target": [], "time": []}}, "mouseout": {"state": {"target": ["0", "24", "26", "27", "28", "29", "30", "33", "30", "31", "30", "32", "31", "23"], "time": [1506, 1907, 2115, 3345, 6266, 10228, 13627, 14127, 14209, 14400, 15233, 17376, 21292, 22086]}, "edge": {"target": [], "time": []}}}, "displayed_time": "28.66", "trialTime": 30306, "trial_type": "mouselab-mdp", "trial_index": 46, "time_elapsed": 1476074, "internal_node_id": "0.0-6.0-1.0-37.0"}}, {"uniqueid": "w63234002:a89550870", "current_trial": 47, "dateTime": 1693482207142, "trialdata": {"revealed_states": [], "clicked_states": ["22"], "num_clicks_accrued": [0, 0, 0, 0, 0, 0, 0, 0, 0, 0, 0, 0, 0], "stateRewards": ["", -1, 2, 6, 11, 21, -21, -21, -6, 48, -71, 88, -1, -3, 3, 7, 64, 2, 9, -4, 37, -67, 72, 2, 2, -8, -8, -10, 71, -40, -3, 73, 80, 47], "withholdReward": false, "trial_id": "mdp_trial_39", "block": "test", "trialIndex": 40, "score": 64.85, "costs": -2.15, "simulationMode": [null, null, null, null, null], "rewards": [-1, -3, 3, -4, 72], "path": ["0", "0", "12", "13", "14", "19", "22"], "rt": [5557, 160, 109, 1267, 756], "actions": ["right", "right", "right", "down", "left"], "actionTimes": [7122, 7791, 8424, 10585, 11865], "queries": {"click": {"state": {"target": ["22"], "time": [2522]}, "edge": {"target": [], "time": []}}, "mouseover": {"state": {"target": ["22", "22", "19", "21", "21"], "time": [2010, 2353, 2737, 3071, 3758]}, "edge": {"target": [], "time": []}}, "mouseout": {"state": {"target": ["0", "22", "22", "19", "21", "21"], "time": [1849, 2155, 2675, 2988, 3092, 12733]}, "edge": {"target": [], "time": []}}}, "displayed_time": "15.57", "trialTime": 17489, "trial_type": "mouselab-mdp", "trial_index": 47, "time_elapsed": 1494050, "internal_node_id": "0.0-6.0-1.0-38.0"}}, {"uniqueid": "w63234002:a89550870", "current_trial": 48, "dateTime": 1693482227040, "trialdata": {"revealed_states": [], "clicked_states": ["20", "21", "22"], "num_clicks_accrued": [0, 0, 0, 0, 0, 0, 0, 0, 0, 0, 0, 0, 0], "stateRewards": ["", 1, -2, -3, 14, -42, -87, -37, -11, -50, 33, -44, -2, 4, -7, 13, 48, -75, -66, 12, 23, -2, 82, 1, -4, 3, 12, 51, -15, -26, -11, -52, -29, 82], "withholdReward": false, "trial_id": "mdp_trial_40", "block": "test", "trialIndex": 41, "score": 82.55, "costs": -6.449999999999999, "simulationMode": [null, null, null, null, null], "rewards": [-2, 4, -7, 12, 82], "path": ["0", "0", "12", "13", "14", "19", "22"], "rt": [12293, 169, 153, 137, 445], "actions": ["right", "right", "right", "down", "left"], "actionTimes": [13948, 14626, 15296, 15946, 17275], "queries": {"click": {"state": {"target": ["20", "21", "22"], "time": [2509, 5992, 9380]}, "edge": {"target": [], "time": []}}, "mouseover": {"state": {"target": ["22", "20", "21", "22", "17", "17"], "time": [1983, 2321, 3045, 6563, 10580, 11654]}, "edge": {"target": [], "time": []}}, "mouseout": {"state": {"target": ["0", "22", "20", "21", "22", "17", "17", "14", "19", "22"], "time": [1665, 2023, 2795, 6501, 9675, 11049, 18501, 18541, 18563, 18584]}, "edge": {"target": [], "time": []}}}, "displayed_time": "17.79", "trialTime": 19442, "trial_type": "mouselab-mdp", "trial_index": 48, "time_elapsed": 1513947, "internal_node_id": "0.0-6.0-1.0-39.0"}}, {"uniqueid": "w63234002:a89550870", "current_trial": 49, "dateTime": 1693482264168, "trialdata": {"rt": 37115, "response": {"Q0": "$-2 to $2", "Q1": "$-32 to $32", "Q2": "$-88 to $88", "Q3": "The cost for clicking on nodes varied between nodes.", "Q4": "Very motivated"}, "question_order": [0, 1, 2, 3, 4], "trial_id": "final_quiz_control", "trial_type": "survey-multi-choice", "trial_index": 49, "time_elapsed": 1551076, "internal_node_id": "0.0-6.0-2.0"}}, {"uniqueid": "w63234002:a89550870", "current_trial": 50, "dateTime": 1693482336858, "trialdata": {"rt": 72646, "response": {"Q0": "Check the outer values for the highest rewards and don't worry about the route there", "Q1": "No", "Q2": "Could take a while to find the higher values"}, "trial_id": "self_report_control", "trial_type": "survey-text", "trial_index": 50, "time_elapsed": 1623767, "internal_node_id": "0.0-6.0-3.0"}}, {"uniqueid": "w63234002:a89550870", "current_trial": 51, "dateTime": 1693482389948, "trialdata": {"rt": 53086, "response": {"Q0": "Strongly disagree", "Q1": "Neither disagree nor agree", "Q2": "Strongly agree", "Q3": "Neither disagree nor agree", "Q4": "Neither disagree nor agree", "Q5": "Neither disagree nor agree", "Q6": "Neither disagree nor agree"}, "question_order": [0, 1, 2, 3, 4, 5, 6], "trial_id": "self_report_2", "trial_type": "survey-multi-choice", "trial_index": 51, "time_elapsed": 1676857, "internal_node_id": "0.0-6.0-4.0"}}, {"uniqueid": "w63234002:a89550870", "current_trial": 52, "dateTime": 1693482410590, "trialdata": {"rt": 20612, "response": {"gender": "male", "age": "45", "colorblind": "0", "effort": "0"}, "trial_type": "survey-html-form", "trial_index": 52, "time_elapsed": 1697499, "internal_node_id": "0.0-6.0-5.0"}}, {"uniqueid": "w63234002:a89550870", "current_trial": 53, "dateTime": 1693482433063, "trialdata": {"rt": 22464, "response": {"Q0": "no", "Q1": "no", "Q2": ""}, "trial_type": "survey-text", "trial_index": 53, "time_elapsed": 1719972, "internal_node_id": "0.0-6.0-6.0"}}, {"uniqueid": "w63234002:a89550870", "current_trial": 54, "dateTime": 1693482459410, "trialdata": {"rt": 26318, "stimulus": "<h1>Completion Code Instructions (1/2)</h1>\n<br><br><br><br>\nYou have reached the end of the experiment! The completion code consists of two parts: (1) a code with 2 characters (2) a code with 6 characters. On this page, you will receive the second part of the code. The first part of the completion code will be on the next page.\n<br><br>\nThe second part of your completion code is: <b>EWEK22</b>\n<br><br>\nPlease note this down. Then, press 'Finish HIT' in order to find the first part of your completion code. Once the data has been saved, you will receive this code either in this window or in the original browser window where you started the experiment.\n", "response": 0, "trial_type": "html-button-response", "trial_index": 54, "time_elapsed": 1746319, "internal_node_id": "0.0-6.0-7.0"}}, {"uniqueid": "w63234002:a89550870", "current_trial": 55, "dateTime": 1693482460440, "trialdata": {"success": true, "trial_type": "fullscreen", "trial_index": 55, "time_elapsed": 1747349, "internal_node_id": "0.0-7.0"}}], "questiondata": {"params": {"CODE": "C6DMOQA6", "MIN_TIME": 14, "inspectCost": 1, "startTime": "Thu Aug 31 2023 12:18:32 GMT+0100 (British Summer Time)", "bonusRate": 0.002, "variance": "1_2_4_8_44", "branching": "31123"}, "final_score": 2057.15}, "eventdata": [{"eventtype": "initialized", "value": null, "timestamp": 1693480712055, "interval": 0}, {"eventtype": "window_resize", "value": [1034, 799], "timestamp": 1693480712055, "interval": 0}, {"eventtype": "window_resize", "value": [1034, 799], "timestamp": 1693480712399, "interval": 344}, {"eventtype": "window_resize", "value": [1920, 1080], "timestamp": 1693480718230, "interval": 5831}, {"eventtype": "focus", "value": "off", "timestamp": 1693480736402, "interval": 18172}, {"eventtype": "focus", "value": "on", "timestamp": 1693480739763, "interval": 3361}, {"eventtype": "focus", "value": "off", "timestamp": 1693480817461, "interval": 77698}, {"eventtype": "focus", "value": "on", "timestamp": 1693480826815, "interval": 9354}, {"eventtype": "window_resize", "value": [1034, 799], "timestamp": 1693482459747, "interval": 1632932}], "useragent": "Mozilla/5.0 (Windows NT 10.0; Win64; x64) AppleWebKit/537.36 (KHTML, like Gecko) Chrome/116.0.0.0 Safari/537.36", "mode": "live", "id": "w63234002:a89550870", "status": "user data saved", "Beginhit": "2023-08-31 11:18:31.292604", "Beginexp": "2023-08-31 11:18:39.676081", "Endhit": "2023-08-31 11:47:41.625219", "psiturkStatus": 3, "browser": "<redacted>", "platform": "windows", "language": "en-US"}