{"condition": 0, "counterbalance": 0, "assignmentId": "a38370808", "workerId": "w25779052", "hitId": "h82283422", "currenttrial": 55, "bonus": 0, "data": [{"uniqueid": "w25779052:a38370808", "current_trial": 0, "dateTime": 1691159325593, "trialdata": {"success": true, "trial_type": "fullscreen", "trial_index": 0, "time_elapsed": 8570, "internal_node_id": "0.0-0.0"}}, {"uniqueid": "w25779052:a38370808", "current_trial": 1, "dateTime": 1691159341158, "trialdata": {"view_history": [{"page_index": 0, "viewing_time": 15520}], "rt": 15521, "trial_id": "exp_instructions_control", "trial_type": "instructions", "trial_index": 1, "time_elapsed": 24136, "internal_node_id": "0.0-1.0"}}, {"uniqueid": "w25779052:a38370808", "current_trial": 2, "dateTime": 1691159345534, "trialdata": {"success": true, "trial_type": "fullscreen", "trial_index": 2, "time_elapsed": 28511, "internal_node_id": "0.0-2.0-0.0"}}, {"uniqueid": "w25779052:a38370808", "current_trial": 3, "dateTime": 1691159693239, "trialdata": {"view_history": [{"page_index": 0, "viewing_time": 98773}, {"page_index": 1, "viewing_time": 98901}, {"page_index": 2, "viewing_time": 32996}, {"page_index": 3, "viewing_time": 117016}], "rt": 347687, "trial_id": "mouselab_instructions_1_control", "trial_type": "instructions", "trial_index": 3, "time_elapsed": 376216, "internal_node_id": "0.0-2.0-1.0"}}, {"uniqueid": "w25779052:a38370808", "current_trial": 4, "dateTime": 1691159771912, "trialdata": {"revealed_states": [], "clicked_states": ["1", "13", "14", "23", "24", "2", "3", "4", "6"], "num_clicks_accrued": [0, 0, 0, 0, 0, 0, 0, 0, 0, 0, 0, 0, 0], "stateRewards": ["", 10, 10, -10, 10, -10, 10, -10, 10, -10, 10, 10, 10, -10, -10, 10, -10, 10, 10, -10, -10, 10, -10, -10, -10, 10, -10, -10, 10, -10, 10, -10, -10, 10], "withholdReward": false, "trial_id": "practice_1", "block": "test", "trialIndex": 0, "score": 29, "costs": -4.5, "simulationMode": [null, null, null, null, null], "rewards": [10, 10, -10, 10, 10], "path": ["0", "0", "1", "2", "3", "4", "6"], "rt": [31526, 650, 635, 1279, 475], "actions": ["up", "up", "up", "right", "right"], "actionTimes": [54918, 56103, 57273, 59073, 60088], "queries": {"click": {"state": {"target": ["1", "13", "14", "23", "24", "2", "3", "4", "6"], "time": [28170, 30485, 32347, 35218, 38143, 39764, 42307, 45947, 48075]}, "edge": {"target": [], "time": []}}, "mouseover": {"state": {"target": ["12", "13", "12", "23", "13", "12", "1", "18", "14", "13", "14", "14", "18", "24", "23", "24", "28", "2", "3", "4", "4", "6", "4", "7", "1", "0", "0"], "time": [23855, 23932, 25658, 25829, 26609, 27078, 27669, 28692, 29846, 29945, 31614, 32124, 33714, 34558, 34922, 37184, 38845, 39401, 40267, 44420, 45651, 47618, 50341, 50448, 50686, 51203, 53526]}, "edge": {"target": [], "time": []}}, "mouseout": {"state": {"target": ["22", "14", "13", "12", "12", "0", "12", "13", "12", "23", "13", "12", "1", "1", "18", "14", "13", "14", "14", "18", "24", "23", "24", "28", "2", "3", "3", "4", "4", "6", "4", "7", "1", "0"], "time": [5552, 6761, 7669, 8132, 21587, 23453, 23885, 24039, 25700, 26096, 26980, 27385, 28198, 28565, 28743, 29891, 31574, 31639, 33411, 33747, 34817, 35974, 38702, 39116, 40149, 43704, 44319, 45404, 47586, 49826, 50420, 50506, 50740, 52000]}, "edge": {"target": [], "time": []}}}, "displayed_time": "60.63", "trialTime": 76680, "trial_type": "mouselab-mdp", "trial_index": 4, "time_elapsed": 454889, "internal_node_id": "0.0-2.0-2.0-0.0"}}, {"uniqueid": "w25779052:a38370808", "current_trial": 5, "dateTime": 1691159817291, "trialdata": {"revealed_states": [], "clicked_states": ["12", "13", "14", "15", "16", "19", "21", "23", "24", "25", "30", "32"], "num_clicks_accrued": [0, 0, 0, 0, 0, 0, 0, 0, 0, 0, 0, 0, 0], "stateRewards": ["", -10, -10, -10, 10, 10, -10, -10, -10, -10, 10, 10, 10, -10, 10, -10, -10, 10, 10, 10, -10, 10, -10, -10, -10, 10, 10, 10, -10, 10, -10, 10, 10, 10], "withholdReward": false, "trial_id": "practice_2", "block": "test", "trialIndex": 1, "score": 27.5, "costs": -6, "simulationMode": [null, null, null, null, null], "rewards": [10, -10, 10, 10, 10], "path": ["0", "0", "12", "13", "14", "19", "21"], "rt": [23861, 381, 440, 1886, 2242], "actions": ["right", "right", "right", "down", "down"], "actionTimes": [29259, 30178, 31140, 33579, 36356], "queries": {"click": {"state": {"target": ["12", "13", "14", "15", "16", "19", "21", "23", "24", "25", "30", "32"], "time": [6572, 8045, 9689, 12047, 13897, 16124, 17829, 20114, 21867, 23577, 25479, 27032]}, "edge": {"target": [], "time": []}}, "mouseover": {"state": {"target": ["0", "12", "13", "14", "15", "16", "14", "19", "21", "22", "0", "23", "24", "25", "30", "32", "31", "12", "12"], "time": [5900, 6286, 7340, 9189, 11341, 13559, 15412, 15853, 17479, 19378, 19628, 19811, 21512, 23315, 25132, 26664, 27742, 27910, 28299]}, "edge": {"target": [], "time": []}}, "mouseout": {"state": {"target": ["23", "0", "0", "12", "13", "14", "15", "16", "15", "14", "19", "21", "22", "0", "23", "24", "25", "30", "32", "31", "12", "12", "0", "0", "12"], "time": [2850, 3883, 6155, 7174, 9106, 10841, 13342, 15278, 15364, 15459, 17344, 19278, 19412, 19695, 21447, 23248, 25098, 26600, 27166, 27788, 27946, 39491, 39705, 39924, 40788]}, "edge": {"target": [], "time": []}}}, "displayed_time": "36.87", "trialTime": 43960, "trial_type": "mouselab-mdp", "trial_index": 5, "time_elapsed": 500262, "internal_node_id": "0.0-2.0-2.0-1.0"}}, {"uniqueid": "w25779052:a38370808", "current_trial": 6, "dateTime": 1691159875714, "trialdata": {"view_history": [{"page_index": 0, "viewing_time": 48955}, {"page_index": 1, "viewing_time": 9448}], "rt": 58405, "trial_id": "mouselab_instructions_2_control", "trial_type": "instructions", "trial_index": 6, "time_elapsed": 558692, "internal_node_id": "0.0-2.0-3.0"}}, {"uniqueid": "w25779052:a38370808", "current_trial": 7, "dateTime": 1691159914559, "trialdata": {"rt": 38808, "response": {"Q0": "The cost for clicking on nodes may vary between nodes.", "Q1": "The better I perform the higher my bonus will be.", "Q2": "No, the amount of cash at each node of the web may be different each time.", "Q3": "To get the highest total score.", "Q4": "Only before moving the spider.", "Q5": "3 seconds"}, "question_order": [0, 1, 2, 3, 4, 5], "correct": {"Q0": "The cost for clicking on nodes may vary between nodes.", "Q1": "The better I perform the higher my bonus will be.", "Q2": "No, the amount of cash at each node of the web may be different each time.", "Q3": "To get the highest total score.", "Q4": "Only before moving the spider.", "Q5": "3 seconds"}, "trial_id": "mouselab_quiz_control", "trial_type": "survey-multi-choice", "trial_index": 7, "time_elapsed": 597536, "internal_node_id": "0.0-2.0-4.0"}}, {"uniqueid": "w25779052:a38370808", "current_trial": 8, "dateTime": 1691159950877, "trialdata": {"rt": 36272, "stimulus": "\n<h1> Get ready to start the game! </h1>\n\nThank you for reading the instructions. Get ready start with the 40 rounds of this game.\n<br><br>\nIf you need to take a break, feel free to take one after the end of a round, before continuing to the next one.\n<br><br>\nRemember, the more money the spider gets, the bigger your bonus will be!\n<br><br>\n<div style='text-align: center;'>Press <code>space</code> to begin.</div>\n\n<br><br>\n(If, at any point, the <code>space</code> key does not take you to the next page, click once on the text and try again.)", "response": " ", "trial_id": "mdp_ready", "trial_type": "html-keyboard-response", "trial_index": 8, "time_elapsed": 633854, "internal_node_id": "0.0-4.0-0.0"}}, {"uniqueid": "w25779052:a38370808", "current_trial": 9, "dateTime": 1691160021004, "trialdata": {"revealed_states": [], "clicked_states": ["12", "13", "1", "2", "14", "3", "4", "6", "8", "11", "23", "24", "25", "26", "27", "30", "32"], "num_clicks_accrued": [0, 0, 0, 0, 0, 0, 0, 0, 0, 0, 0, 0, 0], "stateRewards": ["", -2, 3, -1, -9, 44, 48, -37, -3, 71, -39, 87, -1, 3, -4, 4, -21, 59, -15, -8, -1, 28, -38, 2, 4, 4, 8, -85, -72, -63, 14, 58, 63, -46], "withholdReward": false, "trial_id": "mdp_trial_1", "block": "test", "trialIndex": 2, "score": 60.2, "costs": -23.799999999999994, "simulationMode": [null, null, null, null, null], "rewards": [-2, 3, -1, -3, 87], "path": ["0", "0", "1", "2", "3", "8", "11"], "rt": [41791, 42, 43, 507, 199], "actions": ["up", "up", "up", "left", "left"], "actionTimes": [55926, 56490, 57082, 58093, 58832], "queries": {"click": {"state": {"target": ["12", "13", "1", "2", "14", "3", "4", "6", "8", "11", "23", "24", "25", "26", "27", "30", "32"], "time": [15027, 17795, 20535, 22823, 25252, 27726, 31271, 32904, 34738, 37172, 39782, 41385, 43362, 45511, 47524, 50483, 52555]}, "edge": {"target": [], "time": []}}, "mouseover": {"state": {"target": ["0", "12", "13", "14", "13", "14", "14", "1", "2", "18", "14", "7", "3", "2", "10", "4", "6", "3", "8", "8", "3", "4", "4", "3", "11", "28", "24", "23", "24", "25", "26", "27", "30", "32", "31", "24", "1"], "time": [14698, 14772, 15542, 17166, 17537, 18306, 18760, 20301, 21576, 24885, 24961, 27189, 27505, 28337, 30190, 31082, 31819, 33869, 34120, 34457, 35931, 36009, 36492, 36575, 36991, 38717, 38858, 39011, 40368, 42660, 44276, 46929, 48177, 50955, 53046, 53158, 54998]}, "edge": {"target": [], "time": []}}, "mouseout": {"state": {"target": ["0", "14", "13", "12", "0", "0", "12", "13", "14", "13", "14", "14", "1", "2", "18", "14", "7", "3", "2", "10", "3", "4", "6", "4", "3", "8", "8", "3", "4", "4", "3", "8", "11", "28", "24", "23", "24", "25", "26", "27", "26", "30", "32", "31", "24", "1", "1", "6", "5", "6"], "time": [776, 1952, 11870, 12386, 12575, 14733, 15470, 17068, 17500, 18258, 18481, 19850, 21278, 24821, 24922, 25954, 27256, 28214, 29421, 30518, 30589, 31778, 33697, 33824, 34079, 34273, 35917, 35969, 36074, 36547, 36610, 36843, 38519, 38767, 38889, 40087, 42558, 44012, 46670, 48005, 48072, 50815, 52925, 53087, 53223, 60711, 61748, 61903, 63150, 63206]}, "edge": {"target": [], "time": []}}}, "displayed_time": "59.35", "trialTime": 68644, "trial_type": "mouselab-mdp", "trial_index": 9, "time_elapsed": 703975, "internal_node_id": "0.0-4.0-1.0-0.0"}}, {"uniqueid": "w25779052:a38370808", "current_trial": 10, "dateTime": 1691160049559, "trialdata": {"revealed_states": [], "clicked_states": ["1", "2", "3", "8", "11", "4", "6"], "num_clicks_accrued": [0, 0, 0, 0, 0, 0, 0, 0, 0, 0, 0, 0, 0], "stateRewards": ["", 1, 2, -5, 14, 54, -14, -25, 16, -5, -87, 78, -1, 1, 3, -3, 52, 53, 53, -10, 73, -69, -48, 2, 3, 1, 8, -62, -7, 85, 7, 82, 52, -28], "withholdReward": false, "trial_id": "mdp_trial_2", "block": "test", "trialIndex": 3, "score": 82.2, "costs": -9.8, "simulationMode": [null, null, null, null, null], "rewards": [1, 2, -5, 16, 78], "path": ["0", "0", "1", "2", "3", "8", "11"], "rt": [17744, 509, 40, 490, 202], "actions": ["up", "up", "up", "left", "left"], "actionTimes": [20213, 21258, 21832, 22874, 23612], "queries": {"click": {"state": {"target": ["1", "2", "3", "8", "11", "4", "6"], "time": [3476, 5540, 7667, 10149, 12421, 14777, 17081]}, "edge": {"target": [], "time": []}}, "mouseover": {"state": {"target": ["1", "2", "3", "8", "11", "3", "4", "6", "12"], "time": [3199, 4242, 7044, 9763, 12169, 13422, 13528, 16538, 19461]}, "edge": {"target": [], "time": []}}, "mouseout": {"state": {"target": ["19", "14", "13", "12", "0", "0", "1", "2", "3", "8", "11", "8", "3", "4", "6", "12", "18"], "time": [165, 795, 844, 911, 1010, 3048, 3959, 6818, 9736, 12047, 13305, 13382, 13489, 16354, 19277, 19524, 26575]}, "edge": {"target": [], "time": []}}}, "displayed_time": "24.18", "trialTime": 26811, "trial_type": "mouselab-mdp", "trial_index": 10, "time_elapsed": 732533, "internal_node_id": "0.0-4.0-1.0-1.0"}}, {"uniqueid": "w25779052:a38370808", "current_trial": 11, "dateTime": 1691160091339, "trialdata": {"revealed_states": [], "clicked_states": ["1", "2", "3", "8", "11", "4", "6", "12", "13", "14", "19", "21", "20", "22"], "num_clicks_accrued": [0, 0, 0, 0, 0, 0, 0, 0, 0, 0, 0, 0, 0], "stateRewards": ["", 1, -1, 8, -3, 38, 85, -20, -4, 8, 23, 73, 2, -4, 6, -13, 44, 7, -28, -11, -77, 45, -69, 1, -1, -7, -11, 75, -51, -87, 7, 36, -53, -26], "withholdReward": false, "trial_id": "mdp_trial_3", "block": "test", "trialIndex": 4, "score": 70.4, "costs": -19.599999999999998, "simulationMode": [null, null, null, null, null], "rewards": [1, -1, 8, -3, 85], "path": ["0", "0", "1", "2", "3", "4", "6"], "rt": [30003, 720, 187, 640, 310], "actions": ["up", "up", "up", "right", "right"], "actionTimes": [32375, 33629, 34372, 35538, 36376], "queries": {"click": {"state": {"target": ["1", "2", "3", "8", "11", "4", "6", "12", "13", "14", "19", "21", "20", "22"], "time": [3740, 5641, 7471, 9304, 11350, 13345, 15340, 17854, 19907, 22026, 23950, 25853, 27948, 29999]}, "edge": {"target": [], "time": []}}, "mouseover": {"state": {"target": ["1", "1", "2", "3", "8", "11", "4", "6", "12", "13", "14", "19", "21", "20", "22"], "time": [3119, 3449, 4138, 6325, 8139, 10614, 11941, 13991, 17482, 18420, 20835, 22881, 25000, 26780, 28959]}, "edge": {"target": [], "time": []}}, "mouseout": {"state": {"target": ["22", "0", "1", "1", "2", "3", "8", "11", "8", "4", "6", "12", "13", "14", "19", "21", "20", "22"], "time": [564, 2650, 3169, 3990, 5989, 7984, 10443, 11770, 11837, 13723, 17062, 18329, 20771, 22753, 24895, 26331, 28432, 31193]}, "edge": {"target": [], "time": []}}}, "displayed_time": "36.90", "trialTime": 40163, "trial_type": "mouselab-mdp", "trial_index": 11, "time_elapsed": 774309, "internal_node_id": "0.0-4.0-1.0-2.0"}}, {"uniqueid": "w25779052:a38370808", "current_trial": 12, "dateTime": 1691160147240, "trialdata": {"revealed_states": [], "clicked_states": ["1", "2", "3", "4", "6", "11", "5", "7", "10", "9", "14", "19", "20", "21", "32", "30", "25", "24"], "num_clicks_accrued": [0, 0, 0, 0, 0, 0, 0, 0, 0, 0, 0, 0, 0], "stateRewards": ["", -2, -4, 6, 14, -34, 49, 36, -8, -3, 32, -4, 1, -2, 1, -8, -20, -71, -57, -7, -86, -62, -16, -2, -3, -5, 11, 23, -21, 53, 5, -5, 85, 73], "withholdReward": false, "trial_id": "mdp_trial_4", "block": "test", "trialIndex": 5, "score": 54.80000000000001, "costs": -25.199999999999992, "simulationMode": [null, null, null, null, null], "rewards": [-2, -3, -5, 5, 85], "path": ["0", "0", "23", "24", "25", "30", "32"], "rt": [42701, 223, 177, 573, 167], "actions": ["left", "left", "left", "down", "down"], "actionTimes": [47316, 48071, 48773, 49879, 50578], "queries": {"click": {"state": {"target": ["1", "2", "3", "4", "6", "11", "5", "7", "10", "9", "14", "19", "20", "21", "32", "30", "25", "24"], "time": [7044, 9999, 11903, 14013, 16021, 18274, 20863, 23061, 25494, 27742, 29929, 32130, 34181, 36180, 38324, 41075, 43183, 45514]}, "edge": {"target": [], "time": []}}, "mouseover": {"state": {"target": ["0", "23", "1", "2", "3", "4", "6", "5", "8", "11", "8", "3", "5", "7", "7", "2", "10", "8", "9", "2", "14", "14", "19", "21", "20", "21", "32", "30", "30", "25", "24", "23"], "time": [4678, 5650, 6300, 7569, 10642, 12463, 14769, 16733, 17570, 17805, 18838, 19705, 20571, 21369, 22605, 23374, 24209, 26478, 26954, 28499, 28902, 29458, 30639, 32825, 33880, 34988, 37217, 38759, 39820, 41748, 44482, 46138]}, "edge": {"target": [], "time": []}}, "mouseout": {"state": {"target": ["21", "19", "13", "12", "0", "0", "23", "1", "2", "3", "4", "6", "5", "8", "11", "8", "3", "5", "7", "7", "2", "10", "8", "9", "2", "14", "14", "19", "21", "20", "19", "21", "32", "30", "30", "25", "24", "23"], "time": [177, 293, 762, 894, 4646, 5300, 6016, 7434, 10407, 12417, 14726, 16353, 17450, 17705, 18825, 18895, 20265, 21223, 21410, 23299, 23466, 26211, 26687, 28349, 28537, 29212, 30574, 32758, 33531, 34544, 34612, 36466, 38647, 38825, 41201, 44443, 46099, 46204]}, "edge": {"target": [], "time": []}}}, "displayed_time": "51.12", "trialTime": 53967, "trial_type": "mouselab-mdp", "trial_index": 12, "time_elapsed": 830212, "internal_node_id": "0.0-4.0-1.0-3.0"}}, {"uniqueid": "w25779052:a38370808", "current_trial": 13, "dateTime": 1691160187603, "trialdata": {"revealed_states": [], "clicked_states": ["23", "24", "25", "26", "27", "32", "14", "21", "20", "16", "6", "11"], "num_clicks_accrued": [0, 0, 0, 0, 0, 0, 0, 0, 0, 0, 0, 0, 0], "stateRewards": ["", 2, 4, 4, 9, -88, -10, 44, 16, -54, 64, 78, 1, 2, 5, 16, 80, 36, 7, -4, 9, -47, -70, -1, -3, 6, -16, 11, 80, 28, 8, -1, 34, -17], "withholdReward": false, "trial_id": "mdp_trial_5", "block": "test", "trialIndex": 6, "score": 87.2, "costs": -16.8, "simulationMode": [null, null, null, null, null], "rewards": [1, 2, 5, 16, 80], "path": ["0", "0", "12", "13", "14", "15", "16"], "rt": [30893, 7, 70, 305, 6], "actions": ["right", "right", "right", "up", "up"], "actionTimes": [33702, 34237, 34861, 35690, 36198], "queries": {"click": {"state": {"target": ["23", "24", "25", "26", "27", "32", "14", "21", "20", "16", "6", "11"], "time": [5476, 7376, 9238, 11163, 13115, 15202, 18722, 20963, 23413, 25606, 28448, 31051]}, "edge": {"target": [], "time": []}}, "mouseover": {"state": {"target": ["18", "12", "0", "23", "1", "23", "24", "25", "26", "27", "32", "32", "24", "23", "0", "12", "13", "14", "14", "19", "21", "19", "19", "20", "16", "15", "6", "8", "11", "23"], "time": [2898, 3612, 3692, 3913, 4312, 5194, 6171, 8109, 10457, 12095, 13973, 14330, 16536, 17169, 17435, 17538, 17600, 17671, 18334, 19470, 20403, 21684, 22021, 22855, 24562, 26119, 27691, 30393, 30659, 32146]}, "edge": {"target": [], "time": []}}, "mouseout": {"state": {"target": ["17", "22", "22", "13", "18", "12", "0", "18", "12", "0", "23", "1", "23", "24", "25", "25", "26", "27", "26", "32", "32", "24", "23", "0", "12", "13", "14", "14", "19", "21", "19", "19", "20", "16", "15", "6", "8", "11", "23"], "time": [191, 382, 584, 627, 798, 875, 2888, 3496, 3665, 3796, 4096, 4647, 5946, 7986, 9840, 10226, 11475, 13474, 13609, 14011, 15579, 17103, 17236, 17503, 17574, 17628, 18086, 19369, 20132, 21395, 21732, 22605, 23742, 26054, 27301, 29374, 30560, 31621, 32531]}, "edge": {"target": [], "time": []}}}, "displayed_time": "36.73", "trialTime": 38699, "trial_type": "mouselab-mdp", "trial_index": 13, "time_elapsed": 870580, "internal_node_id": "0.0-4.0-1.0-4.0"}}, {"uniqueid": "w25779052:a38370808", "current_trial": 14, "dateTime": 1691160213450, "trialdata": {"revealed_states": [], "clicked_states": ["12", "16", "6", "11", "25", "27"], "num_clicks_accrued": [0, 0, 0, 0, 0, 0, 0, 0, 0, 0, 0, 0, 0], "stateRewards": ["", -2, -3, 1, -7, 39, -67, 16, 5, -20, 73, 66, -1, 4, 5, -3, 23, -68, -87, -8, 3, -3, 17, 1, -4, -2, -13, -32, 34, 61, -5, -11, -18, 12], "withholdReward": false, "trial_id": "mdp_trial_6", "block": "test", "trialIndex": 7, "score": 58.6, "costs": -8.4, "simulationMode": [null, null, null, null, null], "rewards": [-2, -3, 1, 5, 66], "path": ["0", "0", "1", "2", "3", "8", "11"], "rt": [15399, 145, 124, 622, 137], "actions": ["up", "up", "up", "left", "left"], "actionTimes": [18297, 19223, 19925, 21066, 21766], "queries": {"click": {"state": {"target": ["12", "16", "6", "11", "25", "27"], "time": [4031, 6195, 8376, 10826, 13396, 15421]}, "edge": {"target": [], "time": []}}, "mouseover": {"state": {"target": ["0", "12", "12", "12", "18", "16", "6", "6", "7", "1", "24", "28", "11", "28", "24", "25", "27", "1", "31"], "time": [2957, 3132, 3264, 3654, 4599, 5748, 7695, 7934, 8871, 8954, 9657, 9744, 10552, 11287, 11349, 12437, 14501, 16868, 17401]}, "edge": {"target": [], "time": []}}, "mouseout": {"state": {"target": ["32", "15", "13", "12", "0", "0", "12", "12", "12", "18", "16", "6", "6", "7", "1", "24", "28", "11", "28", "24", "25", "27", "1", "31", "32"], "time": [277, 970, 1044, 1094, 2928, 3065, 3198, 3348, 4153, 4700, 7568, 7742, 8461, 8914, 8996, 9701, 9784, 11207, 11337, 12359, 13763, 16139, 17388, 17435, 24110]}, "edge": {"target": [], "time": []}}}, "displayed_time": "22.29", "trialTime": 24317, "trial_type": "mouselab-mdp", "trial_index": 14, "time_elapsed": 896422, "internal_node_id": "0.0-4.0-1.0-5.0"}}, {"uniqueid": "w25779052:a38370808", "current_trial": 15, "dateTime": 1691160234888, "trialdata": {"revealed_states": [], "clicked_states": ["14", "21", "16", "13"], "num_clicks_accrued": [0, 0, 0, 0, 0, 0, 0, 0, 0, 0, 0, 0, 0], "stateRewards": ["", -1, 1, 3, -8, -23, -15, -14, -11, -23, 58, 68, 1, 3, 5, 12, -17, -41, -7, -10, -4, 82, 10, 1, 4, -4, 11, 73, 55, -55, -1, -86, -86, 54], "withholdReward": false, "trial_id": "mdp_trial_7", "block": "test", "trialIndex": 8, "score": 75.4, "costs": -5.6, "simulationMode": [null, null, null, null, null], "rewards": [1, 3, 5, -10, 82], "path": ["0", "0", "12", "13", "14", "19", "21"], "rt": [11169, 129, 243, 420, 301], "actions": ["right", "right", "right", "down", "down"], "actionTimes": [13779, 14433, 15197, 16153, 16984], "queries": {"click": {"state": {"target": ["14", "21", "16", "13"], "time": [3981, 6336, 8789, 11322]}, "edge": {"target": [], "time": []}}, "mouseover": {"state": {"target": ["12", "13", "14", "19", "21", "15", "16", "15", "13"], "time": [3167, 3244, 3533, 5298, 5943, 7033, 7266, 10821, 10939]}, "edge": {"target": [], "time": []}}, "mouseout": {"state": {"target": ["0", "12", "13", "14", "14", "19", "21", "15", "16", "15", "13"], "time": [2647, 3216, 3274, 4633, 5091, 5546, 6852, 7167, 10776, 10889, 11902]}, "edge": {"target": [], "time": []}}}, "displayed_time": "17.52", "trialTime": 19799, "trial_type": "mouselab-mdp", "trial_index": 15, "time_elapsed": 917862, "internal_node_id": "0.0-4.0-1.0-6.0"}}, {"uniqueid": "w25779052:a38370808", "current_trial": 16, "dateTime": 1691160255256, "trialdata": {"revealed_states": [], "clicked_states": ["25", "27", "32"], "num_clicks_accrued": [0, 0, 0, 0, 0, 0, 0, 0, 0, 0, 0, 0, 0], "stateRewards": ["", -2, 4, -3, -13, 63, -36, 62, 11, 78, 34, -51, 2, -2, 8, -6, -40, -18, 31, 9, 64, 39, 79, 1, 4, -4, 15, -12, 76, 73, -10, -77, 86, -4], "withholdReward": false, "trial_id": "mdp_trial_8", "block": "test", "trialIndex": 9, "score": 72.8, "costs": -4.199999999999999, "simulationMode": [null, null, null, null, null], "rewards": [1, 4, -4, -10, 86], "path": ["0", "0", "23", "24", "25", "30", "32"], "rt": [10728, 56, 256, 407, 17], "actions": ["left", "left", "left", "down", "down"], "actionTimes": [12851, 13443, 14240, 15184, 15724], "queries": {"click": {"state": {"target": ["25", "27", "32"], "time": [4453, 7195, 9525]}, "edge": {"target": [], "time": []}}, "mouseover": {"state": {"target": ["23", "24", "26", "27", "27", "26", "25", "24", "26", "27", "31", "32"], "time": [2774, 2832, 3056, 3391, 3640, 3857, 4057, 5420, 6358, 6894, 7804, 9160]}, "edge": {"target": [], "time": []}}, "mouseout": {"state": {"target": ["0", "23", "24", "26", "27", "27", "26", "25", "24", "26", "27", "31", "32"], "time": [2209, 2804, 2941, 3085, 3418, 3791, 3975, 5345, 5684, 6410, 7632, 7844, 12062]}, "edge": {"target": [], "time": []}}}, "displayed_time": "16.25", "trialTime": 18712, "trial_type": "mouselab-mdp", "trial_index": 16, "time_elapsed": 938230, "internal_node_id": "0.0-4.0-1.0-7.0"}}, {"uniqueid": "w25779052:a38370808", "current_trial": 17, "dateTime": 1691160291249, "trialdata": {"revealed_states": [], "clicked_states": ["14", "16", "21", "32", "25", "27", "3", "6", "11"], "num_clicks_accrued": [0, 0, 0, 0, 0, 0, 0, 0, 0, 0, 0, 0, 0], "stateRewards": ["", 1, 1, -5, 10, -31, 73, 14, -8, -23, 63, -70, -1, 2, 8, 7, 25, -59, 27, -10, -40, -71, -15, -2, 3, -8, -5, -19, 77, -34, 7, 67, 63, 19], "withholdReward": false, "trial_id": "mdp_trial_9", "block": "test", "trialIndex": 10, "score": 67.4, "costs": -12.600000000000001, "simulationMode": [null, null, null, null, null], "rewards": [1, 1, -5, 10, 73], "path": ["0", "0", "1", "2", "3", "4", "6"], "rt": [25363, 551, 194, 679, 222], "actions": ["up", "up", "up", "right", "right"], "actionTimes": [28024, 29124, 29852, 31064, 31821], "queries": {"click": {"state": {"target": ["14", "16", "21", "32", "25", "27", "3", "6", "11"], "time": [3828, 6817, 9145, 12157, 14214, 16718, 20446, 22690, 25088]}, "edge": {"target": [], "time": []}}, "mouseover": {"state": {"target": ["0", "12", "13", "14", "12", "23", "1", "16", "15", "19", "21", "32", "30", "25", "26", "27", "26", "30", "32", "6", "5", "3", "4", "6", "4", "8", "11", "4", "12"], "time": [3034, 3159, 3249, 3588, 4479, 5640, 5846, 6374, 7184, 7289, 7373, 11693, 12902, 13202, 16112, 16430, 17510, 18619, 18812, 19613, 19832, 20096, 21129, 21300, 24115, 24316, 24783, 25696, 26264]}, "edge": {"target": [], "time": []}}, "mouseout": {"state": {"target": ["0", "0", "12", "13", "14", "12", "23", "1", "16", "15", "14", "19", "21", "32", "30", "25", "26", "27", "26", "30", "32", "6", "5", "3", "4", "6", "4", "3", "8", "11", "4", "12", "14"], "time": [1110, 3122, 3222, 3280, 4435, 4523, 5816, 5875, 7135, 7233, 7275, 7331, 10664, 12789, 13008, 15979, 16263, 17468, 17641, 18691, 19508, 19776, 19915, 20625, 21239, 24024, 24196, 24252, 24690, 25624, 25738, 26372, 33606]}, "edge": {"target": [], "time": []}}}, "displayed_time": "32.34", "trialTime": 34230, "trial_type": "mouselab-mdp", "trial_index": 17, "time_elapsed": 974223, "internal_node_id": "0.0-4.0-1.0-8.0"}}, {"uniqueid": "w25779052:a38370808", "current_trial": 18, "dateTime": 1691160319697, "trialdata": {"revealed_states": [], "clicked_states": ["14", "16", "6", "3", "11", "9", "27", "25"], "num_clicks_accrued": [0, 0, 0, 0, 0, 0, 0, 0, 0, 0, 0, 0, 0], "stateRewards": ["", -2, -2, -3, -6, -15, -11, 41, -12, -63, -76, 2, -2, -3, 8, 9, -36, -2, -18, -16, -32, -85, -17, -2, 1, 5, -16, 82, 35, -88, -1, 80, -82, -20], "withholdReward": false, "trial_id": "mdp_trial_10", "block": "test", "trialIndex": 11, "score": 58.8, "costs": -11.200000000000001, "simulationMode": [null, null, null, null, null], "rewards": [-2, 1, 5, -16, 82], "path": ["0", "0", "23", "24", "25", "26", "27"], "rt": [19295, 7, 7, 473, 14], "actions": ["left", "left", "left", "up", "up"], "actionTimes": [21309, 21786, 22407, 23433, 23979], "queries": {"click": {"state": {"target": ["14", "16", "6", "3", "11", "9", "27", "25"], "time": [4144, 6154, 8472, 10386, 12512, 14778, 16727, 18773]}, "edge": {"target": [], "time": []}}, "mouseover": {"state": {"target": ["1", "2", "15", "15", "14", "15", "16", "6", "4", "3", "3", "8", "11", "9", "8", "10", "27", "26", "25", "25", "30", "32"], "time": [2828, 3153, 3378, 3645, 3861, 4727, 5009, 7426, 8974, 9143, 9566, 10921, 11220, 13849, 15275, 15334, 15842, 17192, 17251, 17483, 20136, 20554]}, "edge": {"target": [], "time": []}}, "mouseout": {"state": {"target": ["0", "1", "2", "15", "15", "14", "15", "16", "6", "4", "3", "3", "8", "11", "9", "8", "10", "27", "27", "26", "25", "25", "30", "32"], "time": [756, 2895, 3185, 3506, 3762, 4589, 4899, 7181, 8923, 9054, 9189, 10818, 11106, 12796, 15226, 15320, 15410, 16841, 17147, 17237, 17385, 20059, 20216, 25323]}, "edge": {"target": [], "time": []}}}, "displayed_time": "24.52", "trialTime": 26509, "trial_type": "mouselab-mdp", "trial_index": 18, "time_elapsed": 1002669, "internal_node_id": "0.0-4.0-1.0-9.0"}}, {"uniqueid": "w25779052:a38370808", "current_trial": 19, "dateTime": 1691160339856, "trialdata": {"revealed_states": [], "clicked_states": ["27", "25", "32"], "num_clicks_accrued": [0, 0, 0, 0, 0, 0, 0, 0, 0, 0, 0, 0, 0], "stateRewards": ["", 1, 3, 1, -13, 52, -28, 67, -14, 3, 63, -70, -1, -4, 7, -11, -10, 47, -18, 6, 69, -9, -61, 2, 3, -6, 10, 63, -34, 40, -6, -79, -35, -32], "withholdReward": false, "trial_id": "mdp_trial_11", "block": "test", "trialIndex": 12, "score": 67.8, "costs": -4.199999999999999, "simulationMode": [null, null, null, null, null], "rewards": [2, 3, -6, 10, 63], "path": ["0", "0", "23", "24", "25", "26", "27"], "rt": [8619, 653, 196, 532, 68], "actions": ["left", "left", "left", "up", "up"], "actionTimes": [11221, 12433, 13170, 14233, 14830], "queries": {"click": {"state": {"target": ["27", "25", "32"], "time": [4339, 6339, 8350]}, "edge": {"target": [], "time": []}}, "mouseover": {"state": {"target": ["23", "24", "26", "27", "26", "25", "30", "32", "30"], "time": [3251, 3334, 3466, 3815, 4794, 5034, 6818, 6970, 9053]}, "edge": {"target": [], "time": []}}, "mouseout": {"state": {"target": ["0", "23", "24", "26", "27", "27", "26", "25", "30", "32", "30", "25", "25"], "time": [2646, 3306, 3365, 3683, 4390, 4748, 4868, 6743, 6895, 8944, 9099, 9143, 10453]}, "edge": {"target": [], "time": []}}}, "displayed_time": "16.60", "trialTime": 18441, "trial_type": "mouselab-mdp", "trial_index": 19, "time_elapsed": 1022828, "internal_node_id": "0.0-4.0-1.0-10.0"}}, {"uniqueid": "w25779052:a38370808", "current_trial": 20, "dateTime": 1691160376846, "trialdata": {"revealed_states": [], "clicked_states": ["3", "14", "25", "27", "21", "16", "6", "32", "9", "5"], "num_clicks_accrued": [0, 0, 0, 0, 0, 0, 0, 0, 0, 0, 0, 0, 0], "stateRewards": ["", -2, 1, -8, 12, -65, -79, 16, 7, -80, -17, -45, -2, 2, -5, -2, -85, 23, -4, -7, 48, 27, -76, 2, 3, 5, 2, 43, 71, -13, 7, -49, 59, -31], "withholdReward": false, "trial_id": "mdp_trial_12", "block": "test", "trialIndex": 13, "score": 41, "costs": -14.000000000000002, "simulationMode": [null, null, null, null, null], "rewards": [2, 3, 5, 2, 43], "path": ["0", "0", "23", "24", "25", "26", "27"], "rt": [24462, 396, 139, 669, 672], "actions": ["left", "left", "left", "up", "up"], "actionTimes": [26701, 27646, 28307, 29518, 30727], "queries": {"click": {"state": {"target": ["3", "14", "25", "27", "21", "16", "6", "32", "9", "5"], "time": [4434, 6764, 8747, 10740, 13150, 15414, 17745, 19806, 21923, 24209]}, "edge": {"target": [], "time": []}}, "mouseover": {"state": {"target": ["1", "2", "3", "3", "1", "18", "14", "13", "12", "23", "24", "25", "26", "27", "30", "21", "21", "19", "15", "16", "6", "25", "32", "32", "28", "10", "8", "9", "2", "1", "1", "5", "3", "10", "27", "26"], "time": [3164, 3258, 3648, 4014, 5167, 5365, 5924, 7115, 7225, 7377, 7499, 7588, 9286, 9415, 11255, 12385, 12901, 13581, 13740, 14007, 15723, 18327, 18515, 18863, 20414, 20587, 20869, 21152, 22483, 22574, 22975, 23200, 24695, 24754, 25133, 25854]}, "edge": {"target": [], "time": []}}, "mouseout": {"state": {"target": ["0", "1", "2", "3", "3", "1", "18", "14", "13", "12", "23", "24", "25", "26", "27", "30", "21", "21", "19", "15", "16", "6", "25", "32", "32", "28", "10", "8", "9", "2", "1", "1", "5", "3", "10", "27", "26", "23", "0"], "time": [2664, 3214, 3420, 3782, 4981, 5250, 5408, 7099, 7177, 7288, 7451, 7547, 9185, 9334, 11175, 11354, 12690, 13474, 13625, 13885, 15578, 18154, 18371, 18626, 20261, 20460, 20764, 20947, 22371, 22529, 22621, 23023, 24617, 24740, 24799, 25822, 25894, 33428, 33466]}, "edge": {"target": [], "time": []}}}, "displayed_time": "31.26", "trialTime": 35217, "trial_type": "mouselab-mdp", "trial_index": 20, "time_elapsed": 1059817, "internal_node_id": "0.0-4.0-1.0-11.0"}}, {"uniqueid": "w25779052:a38370808", "current_trial": 21, "dateTime": 1691160399684, "trialdata": {"revealed_states": [], "clicked_states": ["25", "14", "16", "27", "32"], "num_clicks_accrued": [0, 0, 0, 0, 0, 0, 0, 0, 0, 0, 0, 0, 0], "stateRewards": ["", 2, 3, 6, -12, -29, 12, 87, 4, 35, -30, 67, 2, 3, -5, -9, 44, 69, -8, 1, 45, -8, 28, -2, -1, -8, 11, -12, -5, 81, 9, 87, 82, 88], "withholdReward": false, "trial_id": "mdp_trial_13", "block": "test", "trialIndex": 14, "score": 73, "costs": -7, "simulationMode": [null, null, null, null, null], "rewards": [-2, -1, -8, 9, 82], "path": ["0", "0", "23", "24", "25", "30", "32"], "rt": [13560, 107, 236, 354, 99], "actions": ["left", "left", "left", "down", "down"], "actionTimes": [15400, 16037, 16817, 17715, 18328], "queries": {"click": {"state": {"target": ["25", "14", "16", "27", "32"], "time": [2896, 5148, 8082, 10103, 12066]}, "edge": {"target": [], "time": []}}, "mouseover": {"state": {"target": ["23", "24", "25", "24", "12", "13", "14", "14", "13", "1", "2", "4", "6", "16", "16", "7", "10", "27", "26", "25", "32", "21", "31", "30"], "time": [2372, 2452, 2589, 3419, 3761, 3845, 4206, 4442, 5504, 5864, 6808, 7093, 7240, 7623, 7792, 8599, 8659, 9077, 10466, 10523, 10836, 12885, 14698, 14745]}, "edge": {"target": [], "time": []}}, "mouseout": {"state": {"target": ["1", "23", "24", "25", "24", "12", "13", "14", "14", "13", "1", "2", "4", "6", "16", "16", "7", "10", "27", "26", "25", "32", "21", "31", "30", "33", "30", "23"], "time": [451, 2408, 2521, 3375, 3462, 3804, 4039, 4283, 5460, 5604, 6050, 6907, 7128, 7341, 7740, 8554, 8646, 8701, 10452, 10509, 10574, 12388, 14433, 14731, 14777, 19864, 19897, 20083]}, "edge": {"target": [], "time": []}}}, "displayed_time": "18.85", "trialTime": 20913, "trial_type": "mouselab-mdp", "trial_index": 21, "time_elapsed": 1082661, "internal_node_id": "0.0-4.0-1.0-12.0"}}, {"uniqueid": "w25779052:a38370808", "current_trial": 22, "dateTime": 1691160426188, "trialdata": {"revealed_states": [], "clicked_states": ["25", "32", "27", "16", "21"], "num_clicks_accrued": [0, 0, 0, 0, 0, 0, 0, 0, 0, 0, 0, 0, 0], "stateRewards": ["", 1, -3, 4, 13, -72, 52, 5, 5, -58, 5, 14, 2, 1, 3, -14, -86, -4, 73, 6, -58, -50, 49, 2, -3, -4, 2, 33, -41, 42, -11, 81, 45, 53], "withholdReward": false, "trial_id": "mdp_trial_14", "block": "test", "trialIndex": 15, "score": 22, "costs": -7, "simulationMode": [null, null, null, null, null], "rewards": [2, -3, -4, -11, 45], "path": ["0", "0", "23", "24", "25", "30", "32"], "rt": [14748, 156, 280, 340, 748], "actions": ["left", "left", "left", "down", "down"], "actionTimes": [16860, 17535, 18353, 19272, 20613], "queries": {"click": {"state": {"target": ["25", "32", "27", "16", "21"], "time": [3678, 6273, 8282, 11574, 13996]}, "edge": {"target": [], "time": []}}, "mouseover": {"state": {"target": ["0", "31", "25", "30", "32", "32", "30", "26", "27", "1", "14", "15", "16", "15", "14", "19", "21", "22", "0"], "time": [2609, 2771, 3072, 5398, 5480, 6055, 6647, 6850, 7163, 8849, 9534, 10759, 10976, 13300, 13394, 13477, 13693, 14735, 15122]}, "edge": {"target": [], "time": []}}, "mouseout": {"state": {"target": ["0", "0", "31", "25", "30", "32", "32", "30", "25", "26", "27", "1", "14", "15", "16", "15", "14", "19", "21", "22", "0", "0", "3", "2", "1", "0"], "time": [599, 2650, 2904, 5340, 5446, 5623, 6601, 6695, 6772, 7087, 8705, 8896, 10688, 10869, 13260, 13348, 13444, 13593, 14689, 14780, 15872, 22278, 22714, 23481, 23547, 23584]}, "edge": {"target": [], "time": []}}}, "displayed_time": "21.13", "trialTime": 24687, "trial_type": "mouselab-mdp", "trial_index": 22, "time_elapsed": 1109165, "internal_node_id": "0.0-4.0-1.0-13.0"}}, {"uniqueid": "w25779052:a38370808", "current_trial": 23, "dateTime": 1691160462549, "trialdata": {"revealed_states": [], "clicked_states": ["24", "13", "2", "3", "6", "11", "9", "5", "27", "25", "32"], "num_clicks_accrued": [0, 0, 0, 0, 0, 0, 0, 0, 0, 0, 0, 0, 0], "stateRewards": ["", 2, -4, 7, 3, 23, -42, 4, 7, -81, -33, 7, -2, -4, 5, -1, 50, -57, -14, -13, -14, 44, 55, -2, -2, 5, -2, 33, 1, 57, -13, -7, 58, 87], "withholdReward": false, "trial_id": "mdp_trial_15", "block": "test", "trialIndex": 16, "score": 30.599999999999998, "costs": -15.400000000000002, "simulationMode": [null, null, null, null, null], "rewards": [-2, -2, 5, -13, 58], "path": ["0", "0", "23", "24", "25", "30", "32"], "rt": [25779, 492, 72, 892, 113], "actions": ["left", "left", "left", "down", "down"], "actionTimes": [27935, 28959, 29559, 30983, 31631], "queries": {"click": {"state": {"target": ["24", "13", "2", "3", "6", "11", "9", "5", "27", "25", "32"], "time": [4062, 6059, 7965, 10023, 12080, 14052, 16120, 18044, 20659, 22858, 24792]}, "edge": {"target": [], "time": []}}, "mouseover": {"state": {"target": ["0", "23", "24", "0", "12", "13", "2", "3", "4", "6", "4", "8", "11", "8", "9", "5", "8", "11", "27", "26", "25", "30", "32"], "time": [2550, 2957, 3074, 4511, 4568, 4626, 6615, 9482, 10840, 11011, 12464, 12648, 12831, 14753, 15475, 16876, 19590, 20023, 20383, 21733, 22067, 23568, 24020]}, "edge": {"target": [], "time": []}}, "mouseout": {"state": {"target": ["12", "0", "0", "23", "24", "0", "12", "13", "2", "3", "4", "6", "4", "3", "8", "11", "8", "9", "5", "8", "11", "27", "26", "25", "25", "30", "32", "25", "25", "32"], "time": [169, 2198, 2873, 3024, 4434, 4555, 4614, 6201, 8064, 10094, 10885, 12419, 12567, 12609, 12793, 14605, 14899, 16437, 19183, 19992, 20055, 21621, 21898, 22975, 23481, 23761, 25142, 26764, 26952, 33923]}, "edge": {"target": [], "time": []}}}, "displayed_time": "32.16", "trialTime": 34571, "trial_type": "mouselab-mdp", "trial_index": 23, "time_elapsed": 1145526, "internal_node_id": "0.0-4.0-1.0-14.0"}}, {"uniqueid": "w25779052:a38370808", "current_trial": 24, "dateTime": 1691160489029, "trialdata": {"revealed_states": [], "clicked_states": ["13", "16", "21", "32", "27"], "num_clicks_accrued": [0, 0, 0, 0, 0, 0, 0, 0, 0, 0, 0, 0, 0], "stateRewards": ["", 2, 3, 8, 11, 25, -80, 6, -4, -56, 84, -23, -2, -4, -3, 4, -51, -9, -61, -15, -64, 67, -35, 1, -1, -7, -6, 83, 59, -15, 12, -79, 56, 41], "withholdReward": false, "trial_id": "mdp_trial_16", "block": "test", "trialIndex": 17, "score": 63, "costs": -7, "simulationMode": [null, null, null, null, null], "rewards": [1, -1, -7, -6, 83], "path": ["0", "0", "23", "24", "25", "26", "27"], "rt": [13873, 166, 223, 353, 606], "actions": ["left", "left", "left", "up", "up"], "actionTimes": [18049, 18744, 19428, 20323, 21469], "queries": {"click": {"state": {"target": ["13", "16", "21", "32", "27"], "time": [5657, 7678, 10200, 12183, 14158]}, "edge": {"target": [], "time": []}}, "mouseover": {"state": {"target": ["0", "12", "13", "14", "15", "16", "15", "14", "19", "21", "23", "25", "32", "30", "25", "26", "27", "22", "21", "19", "23", "29"], "time": [4215, 5065, 5307, 6326, 6882, 7132, 8095, 8262, 8356, 8480, 10643, 10806, 11284, 12518, 12613, 12674, 12945, 15066, 15403, 16302, 16852, 16902]}, "edge": {"target": [], "time": []}}, "mouseout": {"state": {"target": ["0", "0", "0", "12", "13", "14", "15", "16", "15", "14", "19", "21", "23", "25", "32", "30", "25", "26", "27", "22", "21", "19", "23", "29", "33", "24", "23"], "time": [1225, 1874, 4590, 5108, 6249, 6805, 6995, 7982, 8215, 8310, 8403, 10294, 10687, 10883, 12438, 12565, 12660, 12822, 14800, 15155, 15634, 16784, 16889, 16933, 23456, 23523, 23556]}, "edge": {"target": [], "time": []}}}, "displayed_time": "21.99", "trialTime": 24589, "trial_type": "mouselab-mdp", "trial_index": 24, "time_elapsed": 1172001, "internal_node_id": "0.0-4.0-1.0-15.0"}}, {"uniqueid": "w25779052:a38370808", "current_trial": 25, "dateTime": 1691160510047, "trialdata": {"revealed_states": [], "clicked_states": ["27"], "num_clicks_accrued": [0, 0, 0, 0, 0, 0, 0, 0, 0, 0, 0, 0, 0], "stateRewards": ["", -2, 1, -5, 2, -68, 80, 33, 10, 67, -59, 20, -1, -3, 3, 14, 74, -2, 24, -16, 63, 80, 46, -1, 4, 6, 12, 83, -38, -43, -4, 43, 14, -79], "withholdReward": false, "trial_id": "mdp_trial_17", "block": "test", "trialIndex": 18, "score": 102.6, "costs": -1.4, "simulationMode": [null, null, null, null, null], "rewards": [-1, 4, 6, 12, 83], "path": ["0", "0", "23", "24", "25", "26", "27"], "rt": [4292, 506, 169, 583, 24], "actions": ["left", "left", "left", "up", "up"], "actionTimes": [6557, 7645, 8373, 9495, 10040], "queries": {"click": {"state": {"target": ["27"], "time": [3562]}, "edge": {"target": [], "time": []}}, "mouseover": {"state": {"target": ["26", "29", "27", "28"], "time": [2864, 2929, 3212, 4074]}, "edge": {"target": [], "time": []}}, "mouseout": {"state": {"target": ["0", "0", "26", "29", "27", "28", "0"], "time": [625, 2307, 2896, 3012, 3977, 4127, 11585]}, "edge": {"target": [], "time": []}}}, "displayed_time": "16.27", "trialTime": 18967, "trial_type": "mouselab-mdp", "trial_index": 25, "time_elapsed": 1193010, "internal_node_id": "0.0-4.0-1.0-16.0"}}, {"uniqueid": "w25779052:a38370808", "current_trial": 26, "dateTime": 1691160533457, "trialdata": {"revealed_states": [], "clicked_states": ["17", "16", "27", "32"], "num_clicks_accrued": [0, 0, 0, 0, 0, 0, 0, 0, 0, 0, 0, 0, 0], "stateRewards": ["", -1, -3, 1, 13, -64, -29, 12, -4, -33, 50, 56, 2, -3, 4, 11, -64, -58, -55, 12, 47, 38, -25, -2, 2, 5, -15, 85, 7, 84, 10, 8, 57, 26], "withholdReward": false, "trial_id": "mdp_trial_18", "block": "test", "trialIndex": 19, "score": 69.4, "costs": -5.6, "simulationMode": [null, null, null, null, null], "rewards": [-2, 2, 5, -15, 85], "path": ["0", "0", "23", "24", "25", "26", "27"], "rt": [11116, 128, 125, 292, 37], "actions": ["left", "left", "left", "up", "up"], "actionTimes": [14742, 15424, 16095, 16921, 17498], "queries": {"click": {"state": {"target": ["17", "16", "27", "32"], "time": [5918, 8000, 9998, 12174]}, "edge": {"target": [], "time": []}}, "mouseover": {"state": {"target": ["2", "1", "0", "12", "13", "14", "15", "17", "16", "10", "27", "26", "25", "30", "32", "30", "25"], "time": [3728, 3998, 4140, 4271, 4337, 4543, 4940, 5474, 7013, 8291, 8383, 10378, 10470, 10608, 10791, 12752, 12885]}, "edge": {"target": [], "time": []}}, "mouseout": {"state": {"target": ["12", "0", "0", "2", "1", "0", "12", "13", "14", "15", "17", "16", "10", "27", "27", "26", "25", "30", "32", "30", "25", "23"], "time": [1124, 1736, 3716, 3985, 4032, 4241, 4306, 4474, 4575, 5314, 6660, 8173, 8339, 10118, 10335, 10424, 10570, 10707, 12567, 12836, 19293, 19751]}, "edge": {"target": [], "time": []}}}, "displayed_time": "18.07", "trialTime": 20872, "trial_type": "mouselab-mdp", "trial_index": 26, "time_elapsed": 1216428, "internal_node_id": "0.0-4.0-1.0-17.0"}}, {"uniqueid": "w25779052:a38370808", "current_trial": 27, "dateTime": 1691160563225, "trialdata": {"revealed_states": [], "clicked_states": ["27", "16", "21", "32", "3", "6", "11"], "num_clicks_accrued": [0, 0, 0, 0, 0, 0, 0, 0, 0, 0, 0, 0, 0], "stateRewards": ["", 2, -1, 1, 10, -52, 86, -22, -2, -14, -63, 38, 1, 3, 7, -8, 11, -32, -27, 9, -71, 40, -87, -2, -1, 5, -7, 12, 31, -57, 13, 86, -58, 29], "withholdReward": false, "trial_id": "mdp_trial_19", "block": "test", "trialIndex": 20, "score": 88.2, "costs": -9.8, "simulationMode": [null, null, null, null, null], "rewards": [2, -1, 1, 10, 86], "path": ["0", "0", "1", "2", "3", "4", "6"], "rt": [17364, 434, 8, 446, 633], "actions": ["up", "up", "up", "right", "right"], "actionTimes": [19359, 20319, 20862, 21927, 23080], "queries": {"click": {"state": {"target": ["27", "16", "21", "32", "3", "6", "11"], "time": [3334, 5994, 7958, 10472, 13184, 15234, 17188]}, "edge": {"target": [], "time": []}}, "mouseover": {"state": {"target": ["0", "12", "0", "23", "28", "27", "28", "18", "16", "21", "32", "24", "2", "3", "4", "6", "8", "11", "3", "23"], "time": [2082, 2351, 2720, 2765, 2868, 2985, 3688, 5420, 5802, 6823, 8801, 11062, 11336, 12756, 14074, 14398, 15622, 15930, 17890, 18242]}, "edge": {"target": [], "time": []}}, "mouseout": {"state": {"target": ["1", "0", "0", "12", "0", "23", "28", "27", "28", "18", "16", "21", "32", "24", "2", "3", "4", "6", "3", "8", "11", "3", "23"], "time": [50, 449, 2269, 2531, 2753, 2808, 2902, 3644, 3764, 5455, 6401, 8315, 10870, 11111, 11529, 14028, 14155, 15492, 15576, 15738, 17678, 17975, 18290]}, "edge": {"target": [], "time": []}}}, "displayed_time": "23.59", "trialTime": 27357, "trial_type": "mouselab-mdp", "trial_index": 27, "time_elapsed": 1246197, "internal_node_id": "0.0-4.0-1.0-18.0"}}, {"uniqueid": "w25779052:a38370808", "current_trial": 28, "dateTime": 1691160601347, "trialdata": {"revealed_states": [], "clicked_states": ["21", "16", "6", "11", "27", "32", "25", "3", "5", "9", "20"], "num_clicks_accrued": [0, 0, 0, 0, 0, 0, 0, 0, 0, 0, 0, 0, 0], "stateRewards": ["", 1, -1, 4, 5, -32, 18, 20, 6, -88, -74, 9, -2, 1, -2, -14, 34, -77, -38, -1, 80, -36, 73, 2, 3, -8, 10, -48, -73, -71, -11, -22, 20, 54], "withholdReward": false, "trial_id": "mdp_trial_20", "block": "test", "trialIndex": 21, "score": 60.599999999999994, "costs": -15.400000000000002, "simulationMode": [null, null, null, null, null], "rewards": [-2, 1, -2, -1, 80], "path": ["0", "0", "12", "13", "14", "19", "20"], "rt": [25683, 304, 288, 800, 874], "actions": ["right", "right", "right", "down", "right"], "actionTimes": [28613, 29451, 30265, 31601, 33002], "queries": {"click": {"state": {"target": ["21", "16", "6", "11", "27", "32", "25", "3", "5", "9", "20"], "time": [4749, 6708, 8564, 10453, 12432, 14501, 16481, 18716, 20707, 22730, 25175]}, "edge": {"target": [], "time": []}}, "mouseover": {"state": {"target": ["1", "21", "21", "19", "14", "15", "16", "6", "6", "4", "3", "8", "11", "27", "26", "25", "30", "32", "30", "25", "24", "3", "5", "9", "8", "1", "12", "13", "19", "20", "17"], "time": [3374, 4066, 4366, 5166, 5258, 5419, 5688, 7522, 8053, 8917, 9013, 9165, 9567, 11237, 12954, 13019, 13251, 13463, 15036, 15194, 16892, 17358, 19428, 21206, 23306, 23497, 23778, 23875, 24081, 24195, 25760]}, "edge": {"target": [], "time": []}}, "mouseout": {"state": {"target": ["31", "25", "0", "1", "21", "21", "19", "14", "15", "16", "6", "6", "4", "3", "8", "11", "11", "27", "26", "25", "30", "32", "30", "25", "24", "3", "5", "9", "8", "1", "12", "13", "19", "20", "17", "14", "13"], "time": [483, 616, 3331, 3412, 4107, 5083, 5213, 5339, 5535, 7141, 7649, 8868, 8965, 9100, 9413, 10573, 10914, 12904, 13006, 13069, 13375, 14896, 15113, 16843, 16941, 19003, 20997, 23222, 23379, 23583, 23827, 23962, 24130, 25346, 34454, 34536, 34588]}, "edge": {"target": [], "time": []}}}, "displayed_time": "33.53", "trialTime": 35999, "trial_type": "mouselab-mdp", "trial_index": 28, "time_elapsed": 1284324, "internal_node_id": "0.0-4.0-1.0-19.0"}}, {"uniqueid": "w25779052:a38370808", "current_trial": 29, "dateTime": 1691160625396, "trialdata": {"revealed_states": [], "clicked_states": ["33", "17", "20", "3", "6"], "num_clicks_accrued": [0, 0, 0, 0, 0, 0, 0, 0, 0, 0, 0, 0, 0], "stateRewards": ["", 2, 1, -3, 7, 46, 11, -36, 16, 71, 5, 1, 2, -2, -8, -3, -4, 6, 55, 7, 68, -54, 2, 1, 1, 6, -6, 42, -4, -84, -11, -65, 63, 25], "withholdReward": false, "trial_id": "mdp_trial_21", "block": "test", "trialIndex": 22, "score": 60, "costs": -7, "simulationMode": [null, null, null, null, null], "rewards": [2, -2, -8, 7, 68], "path": ["0", "0", "12", "13", "14", "19", "20"], "rt": [12439, 193, 149, 506, 576], "actions": ["right", "right", "right", "down", "right"], "actionTimes": [15082, 15809, 16496, 17524, 18626], "queries": {"click": {"state": {"target": ["33", "17", "20", "3", "6"], "time": [3712, 5858, 8036, 10218, 12210]}, "edge": {"target": [], "time": []}}, "mouseover": {"state": {"target": ["0", "23", "24", "33", "23", "18", "15", "17", "20", "20", "14", "13", "13", "4", "3", "4", "6", "18", "13"], "time": [2941, 3166, 3217, 3323, 4106, 4304, 4438, 4751, 6459, 6702, 8560, 8625, 8809, 9369, 9710, 10802, 11009, 14113, 14204]}, "edge": {"target": [], "time": []}}, "mouseout": {"state": {"target": ["12", "0", "0", "23", "24", "33", "23", "18", "15", "17", "20", "20", "14", "13", "13", "4", "3", "4", "6", "6", "18", "13"], "time": [136, 2706, 3131, 3203, 3250, 3975, 4153, 4355, 4558, 6274, 6506, 8072, 8611, 8679, 8931, 9496, 10756, 10849, 12751, 13986, 14165, 14249]}, "edge": {"target": [], "time": []}}}, "displayed_time": "19.16", "trialTime": 21774, "trial_type": "mouselab-mdp", "trial_index": 29, "time_elapsed": 1308370, "internal_node_id": "0.0-4.0-1.0-20.0"}}, {"uniqueid": "w25779052:a38370808", "current_trial": 30, "dateTime": 1691160652955, "trialdata": {"revealed_states": [], "clicked_states": ["20", "17", "16", "6", "21", "32"], "num_clicks_accrued": [0, 0, 0, 0, 0, 0, 0, 0, 0, 0, 0, 0, 0], "stateRewards": ["", 1, 1, 6, -14, -40, 37, 16, -13, 33, -68, 49, 2, 4, 3, 6, 55, 27, 32, 10, -65, 20, -87, 2, 1, -6, -5, -42, 12, 29, -8, 16, 76, -33], "withholdReward": false, "trial_id": "mdp_trial_22", "block": "test", "trialIndex": 23, "score": 56.6, "costs": -8.4, "simulationMode": [null, null, null, null, null], "rewards": [2, 1, -6, -8, 76], "path": ["0", "0", "23", "24", "25", "30", "32"], "rt": [15535, 137, 98, 387, 159], "actions": ["left", "left", "left", "down", "down"], "actionTimes": [19425, 20100, 20784, 21693, 22387], "queries": {"click": {"state": {"target": ["20", "17", "16", "6", "21", "32"], "time": [5103, 7090, 9111, 11263, 13497, 15875]}, "edge": {"target": [], "time": []}}, "mouseover": {"state": {"target": ["0", "12", "20", "17", "17", "16", "6", "18", "21", "21", "31", "32", "30", "25", "26", "26", "25", "30"], "time": [3940, 4424, 4781, 5892, 6359, 7728, 10219, 11902, 12126, 12454, 14338, 14755, 16354, 16815, 17798, 18327, 18420, 18471]}, "edge": {"target": [], "time": []}}, "mouseout": {"state": {"target": ["10", "1", "0", "12", "20", "17", "17", "16", "6", "18", "21", "21", "31", "32", "30", "25", "26", "26", "25", "30"], "time": [754, 1021, 4377, 4458, 5490, 6155, 7407, 9742, 11754, 11956, 12344, 13724, 14410, 16205, 16564, 17732, 18058, 18384, 18456, 18506]}, "edge": {"target": [], "time": []}}}, "displayed_time": "22.92", "trialTime": 25662, "trial_type": "mouselab-mdp", "trial_index": 30, "time_elapsed": 1335931, "internal_node_id": "0.0-4.0-1.0-21.0"}}, {"uniqueid": "w25779052:a38370808", "current_trial": 31, "dateTime": 1691160677236, "trialdata": {"revealed_states": [], "clicked_states": ["27", "32", "6", "21", "25"], "num_clicks_accrued": [0, 0, 0, 0, 0, 0, 0, 0, 0, 0, 0, 0, 0], "stateRewards": ["", 2, -3, -8, 14, -7, -51, 73, 2, 36, 36, -43, -1, 3, -4, 1, 6, 87, -65, 15, 61, -42, -83, -1, 3, -2, -7, 30, -48, 35, 13, 26, 60, 78], "withholdReward": false, "trial_id": "mdp_trial_23", "block": "test", "trialIndex": 24, "score": 66, "costs": -7, "simulationMode": [null, null, null, null, null], "rewards": [-1, 3, -2, 13, 60], "path": ["0", "0", "23", "24", "25", "30", "32"], "rt": [13216, 125, 120, 448, 30], "actions": ["left", "left", "left", "down", "down"], "actionTimes": [16075, 16664, 17318, 18304, 18894], "queries": {"click": {"state": {"target": ["27", "32", "6", "21", "25"], "time": [4337, 7014, 9081, 11490, 13579]}, "edge": {"target": [], "time": []}}, "mouseover": {"state": {"target": ["0", "23", "26", "27", "26", "25", "30", "32", "24", "10", "6", "6", "14", "19", "21", "19", "14", "13", "24", "25", "30"], "time": [3204, 3442, 3548, 3914, 4827, 4964, 6215, 6599, 7496, 7680, 8099, 8298, 10195, 10334, 10703, 12003, 12116, 12446, 12607, 12785, 14225]}, "edge": {"target": [], "time": []}}, "mouseout": {"state": {"target": ["19", "12", "1", "0", "0", "23", "26", "27", "26", "25", "30", "32", "24", "10", "6", "6", "14", "19", "21", "19", "14", "13", "24", "25", "30", "32"], "time": [576, 643, 860, 2903, 3405, 3480, 3683, 4775, 4893, 6056, 6500, 7335, 7557, 7728, 8152, 9947, 10245, 10497, 11912, 12065, 12429, 12495, 12694, 14138, 14276, 21007]}, "edge": {"target": [], "time": []}}}, "displayed_time": "19.43", "trialTime": 22069, "trial_type": "mouselab-mdp", "trial_index": 31, "time_elapsed": 1360213, "internal_node_id": "0.0-4.0-1.0-22.0"}}, {"uniqueid": "w25779052:a38370808", "current_trial": 32, "dateTime": 1691160705695, "trialdata": {"revealed_states": [], "clicked_states": ["5", "6", "21", "20", "27", "32", "33", "29", "11"], "num_clicks_accrued": [0, 0, 0, 0, 0, 0, 0, 0, 0, 0, 0, 0, 0], "stateRewards": ["", -2, 1, -7, -8, -37, -76, -87, 11, 30, -63, 80, -1, 4, 2, -1, 42, 17, 52, -3, -75, -80, -68, 2, -3, -5, -15, -48, 82, 24, -7, 5, -22, -71], "withholdReward": false, "trial_id": "mdp_trial_24", "block": "test", "trialIndex": 25, "score": 70.4, "costs": -12.600000000000001, "simulationMode": [null, null, null, null, null], "rewards": [-2, 1, -7, 11, 80], "path": ["0", "0", "1", "2", "3", "8", "11"], "rt": [19796, 54, 20, 698, 95], "actions": ["up", "up", "up", "left", "left"], "actionTimes": [22140, 22730, 23296, 24570, 25202], "queries": {"click": {"state": {"target": ["5", "6", "21", "20", "27", "32", "33", "29", "11"], "time": [3855, 5927, 7659, 9248, 11379, 13275, 15201, 17088, 18905]}, "edge": {"target": [], "time": []}}, "mouseover": {"state": {"target": ["0", "7", "4", "5", "5", "6", "21", "20", "12", "24", "26", "27", "26", "25", "30", "32", "33", "29", "27", "11", "8", "16", "17"], "time": [2638, 3002, 3078, 3127, 3419, 4388, 6810, 8434, 9987, 10047, 10306, 11072, 11773, 11835, 11895, 12029, 13724, 15820, 17335, 17710, 19532, 19832, 20002]}, "edge": {"target": [], "time": []}}, "mouseout": {"state": {"target": ["0", "0", "7", "4", "5", "5", "6", "21", "20", "12", "24", "26", "27", "27", "26", "25", "30", "32", "33", "29", "27", "11", "8", "16"], "time": [2394, 2863, 3038, 3113, 3176, 4194, 6294, 8039, 9409, 10034, 10090, 10997, 11516, 11727, 11821, 11882, 11981, 13513, 15631, 17285, 17420, 19483, 19580, 19921]}, "edge": {"target": [], "time": []}}}, "displayed_time": "25.75", "trialTime": 26328, "trial_type": "mouselab-mdp", "trial_index": 32, "time_elapsed": 1388668, "internal_node_id": "0.0-4.0-1.0-23.0"}}, {"uniqueid": "w25779052:a38370808", "current_trial": 33, "dateTime": 1691160747508, "trialdata": {"revealed_states": [], "clicked_states": ["11", "6", "21", "17", "20", "27", "32", "33", "29", "9", "5", "31", "22"], "num_clicks_accrued": [0, 0, 0, 0, 0, 0, 0, 0, 0, 0, 0, 0, 0], "stateRewards": ["", -2, -1, 3, -3, 71, -58, -21, 7, -10, -75, -37, 2, 4, -1, -12, -79, -29, -48, 3, -41, -10, -30, -1, -2, 1, -15, 13, 66, 22, -1, -42, -86, -55], "withholdReward": false, "trial_id": "mdp_trial_25", "block": "test", "trialIndex": 26, "score": 49.8, "costs": -18.2, "simulationMode": [null, null, null, null, null], "rewards": [-2, -1, 3, -3, 71], "path": ["0", "0", "1", "2", "3", "4", "5"], "rt": [28849, 690, 165, 497, 489], "actions": ["up", "up", "up", "right", "up"], "actionTimes": [33169, 34391, 35080, 36101, 37118], "queries": {"click": {"state": {"target": ["11", "6", "21", "17", "20", "27", "32", "33", "29", "9", "5", "31", "22"], "time": [5792, 7862, 9756, 11820, 13530, 16770, 18826, 20868, 22740, 24727, 26566, 28611, 30844]}, "edge": {"target": [], "time": []}}, "mouseover": {"state": {"target": ["7", "10", "11", "8", "3", "4", "6", "21", "21", "20", "17", "20", "0", "23", "25", "26", "27", "26", "32", "33", "29", "29", "11", "9", "5", "31", "31", "22", "30"], "time": [4796, 5158, 5445, 6244, 6305, 6548, 6794, 8356, 8607, 10208, 10784, 12496, 14228, 14292, 14686, 15713, 15931, 17388, 17725, 19379, 21573, 21824, 23856, 24118, 25127, 27501, 27803, 29800, 31657]}, "edge": {"target": [], "time": []}}, "mouseout": {"state": {"target": ["18", "31", "0", "0", "7", "10", "11", "8", "3", "4", "6", "21", "21", "20", "17", "20", "0", "23", "25", "26", "27", "26", "32", "33", "29", "29", "11", "9", "5", "31", "31", "22", "31", "30", "33", "30"], "time": [852, 2187, 2519, 4368, 5008, 5193, 6197, 6292, 6351, 6711, 8079, 8409, 9983, 10591, 12179, 14086, 14278, 14364, 15603, 15863, 17306, 17437, 19077, 21282, 21723, 23473, 23906, 24999, 26974, 27548, 29032, 31238, 31609, 31705, 38807, 38908]}, "edge": {"target": [], "time": []}}}, "displayed_time": "37.64", "trialTime": 39753, "trial_type": "mouselab-mdp", "trial_index": 33, "time_elapsed": 1430482, "internal_node_id": "0.0-4.0-1.0-24.0"}}, {"uniqueid": "w25779052:a38370808", "current_trial": 34, "dateTime": 1691160773732, "trialdata": {"revealed_states": [], "clicked_states": ["9", "27", "20", "21", "17"], "num_clicks_accrued": [0, 0, 0, 0, 0, 0, 0, 0, 0, 0, 0, 0, 0], "stateRewards": ["", -2, 1, -7, 9, 8, 25, 61, -7, -17, 69, -81, 1, 4, -4, -11, 16, 67, 44, 3, 6, -45, -54, -2, 3, 6, -11, -15, 32, -47, 3, -39, -6, -88], "withholdReward": false, "trial_id": "mdp_trial_26", "block": "test", "trialIndex": 27, "score": 50, "costs": -7, "simulationMode": [null, null, null, null, null], "rewards": [1, 4, -4, -11, 67], "path": ["0", "0", "12", "13", "14", "15", "17"], "rt": [13842, 129, 172, 370, 13], "actions": ["right", "right", "right", "up", "right"], "actionTimes": [17866, 18528, 19227, 20143, 20702], "queries": {"click": {"state": {"target": ["9", "27", "20", "21", "17"], "time": [5743, 8555, 10475, 12486, 14418]}, "edge": {"target": [], "time": []}}, "mouseover": {"state": {"target": ["1", "1", "2", "9", "8", "10", "10", "27", "18", "15", "14", "20", "21", "19", "17", "16"], "time": [4142, 4592, 4663, 5030, 6332, 6468, 6971, 8230, 9076, 9174, 9237, 9586, 11030, 12756, 12925, 14909]}, "edge": {"target": [], "time": []}}, "mouseout": {"state": {"target": ["12", "1", "1", "2", "9", "8", "10", "10", "27", "27", "18", "15", "14", "20", "21", "19", "17", "16", "15", "13", "22"], "time": [723, 4186, 4628, 4700, 6247, 6421, 6554, 7880, 8633, 8945, 9126, 9223, 9284, 10900, 12668, 12805, 14495, 23022, 23324, 23638, 23770]}, "edge": {"target": [], "time": []}}}, "displayed_time": "21.23", "trialTime": 23967, "trial_type": "mouselab-mdp", "trial_index": 34, "time_elapsed": 1456708, "internal_node_id": "0.0-4.0-1.0-25.0"}}, {"uniqueid": "w25779052:a38370808", "current_trial": 35, "dateTime": 1691160797034, "trialdata": {"revealed_states": [], "clicked_states": ["17", "20"], "num_clicks_accrued": [0, 0, 0, 0, 0, 0, 0, 0, 0, 0, 0, 0, 0], "stateRewards": ["", -2, 4, -5, -12, 85, -24, -18, -15, -78, -22, 26, -1, -1, 2, 14, -45, 52, -23, 7, -33, 24, -6, -2, -4, 5, -7, -16, 36, -39, 5, 71, -87, -23], "withholdReward": false, "trial_id": "mdp_trial_27", "block": "test", "trialIndex": 28, "score": 63.2, "costs": -2.8, "simulationMode": [null, null, null, null, null], "rewards": [-1, -1, 2, 14, 52], "path": ["0", "0", "12", "13", "14", "15", "17"], "rt": [5968, 535, 55, 290, 357], "actions": ["right", "right", "right", "up", "right"], "actionTimes": [10610, 11684, 12288, 13139, 14038], "queries": {"click": {"state": {"target": ["17", "20"], "time": [5998, 8242]}, "edge": {"target": [], "time": []}}, "mouseover": {"state": {"target": ["12", "17", "20", "14"], "time": [5185, 5730, 6504, 8778]}, "edge": {"target": [], "time": []}}, "mouseout": {"state": {"target": ["3", "6", "18", "13", "0", "12", "17", "17", "20", "14", "6"], "time": [1036, 1833, 1922, 1972, 4695, 5221, 6044, 6226, 8612, 8869, 15037]}, "edge": {"target": [], "time": []}}}, "displayed_time": "18.65", "trialTime": 21088, "trial_type": "mouselab-mdp", "trial_index": 35, "time_elapsed": 1480005, "internal_node_id": "0.0-4.0-1.0-26.0"}}, {"uniqueid": "w25779052:a38370808", "current_trial": 36, "dateTime": 1691160835474, "trialdata": {"revealed_states": [], "clicked_states": ["27", "16", "17", "20", "21", "32", "33", "9", "5", "6", "11"], "num_clicks_accrued": [0, 0, 0, 0, 0, 0, 0, 0, 0, 0, 0, 0, 0], "stateRewards": ["", 2, -4, -4, 13, -80, 62, 13, -11, 57, -13, -44, 1, 4, 3, -4, -29, -88, 15, 16, -58, 68, -45, -1, -3, -1, -9, -44, -86, -19, -7, -36, 59, 66], "withholdReward": false, "trial_id": "mdp_trial_28", "block": "test", "trialIndex": 29, "score": 76.6, "costs": -15.400000000000002, "simulationMode": [null, null, null, null, null], "rewards": [1, 4, 3, 16, 68], "path": ["0", "0", "12", "13", "14", "19", "21"], "rt": [25809, 133, 12, 758, 333], "actions": ["right", "right", "right", "down", "down"], "actionTimes": [28955, 29629, 30170, 31477, 32343], "queries": {"click": {"state": {"target": ["27", "16", "17", "20", "21", "32", "33", "9", "5", "6", "11"], "time": [4572, 6467, 8523, 10490, 12468, 14604, 16641, 19172, 21167, 23655, 25846]}, "edge": {"target": [], "time": []}}, "mouseover": {"state": {"target": ["0", "28", "27", "17", "16", "17", "20", "21", "32", "30", "33", "30", "25", "25", "26", "11", "9", "5", "6", "8", "11", "11", "28", "24"], "time": [3195, 4064, 4186, 5440, 5631, 6845, 9156, 10994, 14548, 15050, 15327, 17600, 18059, 18304, 18394, 18487, 18819, 20126, 22746, 24996, 25061, 25488, 26551, 27956]}, "edge": {"target": [], "time": []}}, "mouseout": {"state": {"target": ["0", "0", "28", "27", "17", "16", "17", "20", "21", "32", "30", "33", "30", "25", "25", "26", "11", "9", "5", "6", "8", "11", "11", "28", "24"], "time": [842, 3404, 4121, 4922, 5493, 6755, 8927, 10866, 14508, 14858, 15190, 17551, 17727, 18107, 18359, 18432, 18718, 19709, 22626, 24867, 25047, 25110, 26463, 26603, 34277]}, "edge": {"target": [], "time": []}}}, "displayed_time": "32.87", "trialTime": 35587, "trial_type": "mouselab-mdp", "trial_index": 36, "time_elapsed": 1518446, "internal_node_id": "0.0-4.0-1.0-27.0"}}, {"uniqueid": "w25779052:a38370808", "current_trial": 37, "dateTime": 1691160872644, "trialdata": {"revealed_states": [], "clicked_states": ["16", "21", "27", "32", "29", "9"], "num_clicks_accrued": [0, 0, 0, 0, 0, 0, 0, 0, 0, 0, 0, 0, 0], "stateRewards": ["", 1, -1, 4, -2, -75, -75, 84, -9, -60, -79, 59, 2, -4, 8, 9, -17, -82, 80, 14, -4, 49, 49, -1, 3, 6, -11, -33, 34, 55, 9, -57, 5, 59], "withholdReward": false, "trial_id": "mdp_trial_29", "block": "test", "trialIndex": 30, "score": 43.6, "costs": -8.4, "simulationMode": [null, null, null, null, null], "rewards": [-1, 3, 6, -11, 55], "path": ["0", "0", "23", "24", "25", "26", "29"], "rt": [15412, 147, 293, 438, 372], "actions": ["left", "left", "left", "up", "left"], "actionTimes": [20215, 20914, 21744, 22717, 23669], "queries": {"click": {"state": {"target": ["16", "21", "27", "32", "29", "9"], "time": [6190, 9138, 11578, 14326, 16245, 17856]}, "edge": {"target": [], "time": []}}, "mouseover": {"state": {"target": ["12", "17", "15", "16", "17", "20", "21", "21", "22", "9", "11", "27", "27", "26", "25", "30", "32", "30", "32", "30", "29", "26", "28", "9", "2", "1"], "time": [5146, 5537, 5684, 5937, 6503, 6656, 6768, 9096, 9557, 10249, 10894, 11000, 11271, 12114, 12182, 12246, 12519, 13973, 14055, 14746, 15253, 16815, 16882, 17544, 18698, 18911]}, "edge": {"target": [], "time": []}}, "mouseout": {"state": {"target": ["1", "0", "12", "17", "15", "16", "17", "20", "21", "21", "21", "22", "9", "11", "27", "27", "26", "25", "30", "32", "30", "32", "30", "29", "26", "28", "9", "2", "1", "31"], "time": [484, 5134, 5236, 5637, 5719, 6450, 6559, 6711, 6813, 9209, 9453, 9610, 10813, 10941, 11035, 12064, 12167, 12232, 12302, 13340, 14013, 14601, 14798, 16801, 16866, 17002, 18554, 18788, 18998, 27548]}, "edge": {"target": [], "time": []}}}, "displayed_time": "24.20", "trialTime": 35045, "trial_type": "mouselab-mdp", "trial_index": 37, "time_elapsed": 1555616, "internal_node_id": "0.0-4.0-1.0-28.0"}}, {"uniqueid": "w25779052:a38370808", "current_trial": 38, "dateTime": 1691160927318, "trialdata": {"revealed_states": [], "clicked_states": ["16", "20", "21", "29"], "num_clicks_accrued": [0, 0, 0, 0, 0, 0, 0, 0, 0, 0, 0, 0, 0], "stateRewards": ["", 2, -4, 4, 9, 69, 9, -75, 12, -86, 66, 25, -1, 3, 2, -13, -88, -3, 1, 4, -69, 49, -84, 2, -1, 4, 2, -18, -81, -52, -15, -69, -54, 25], "withholdReward": false, "trial_id": "mdp_trial_30", "block": "test", "trialIndex": 31, "score": 51.4, "costs": -5.6, "simulationMode": [null, null, null, null, null], "rewards": [-1, 3, 2, 4, 49], "path": ["0", "0", "12", "13", "14", "19", "21"], "rt": [32985, 1399, 479, 571, 472], "actions": ["right", "right", "right", "down", "down"], "actionTimes": [35493, 44055, 45064, 46154, 47261], "queries": {"click": {"state": {"target": ["16", "20", "21", "29"], "time": [4130, 6079, 8473, 10716]}, "edge": {"target": [], "time": []}}, "mouseover": {"state": {"target": ["12", "13", "14", "15", "16", "15", "14", "19", "21", "20", "21", "22", "26", "29", "27", "32", "9"], "time": [3110, 3172, 3225, 3559, 3859, 4467, 4571, 4636, 4819, 5377, 6621, 8781, 9133, 9386, 26465, 26578, 35072]}, "edge": {"target": [], "time": []}}, "mouseout": {"state": {"target": ["0", "12", "13", "14", "15", "16", "15", "14", "19", "21", "20", "21", "22", "26", "29", "29", "29", "27", "32", "9", "21", "23", "1", "18", "14", "13", "15"], "time": [2553, 3156, 3213, 3375, 3625, 4410, 4522, 4622, 4691, 5197, 6420, 8527, 8823, 9221, 10742, 14554, 26452, 26566, 35060, 35484, 42580, 49243, 49448, 49532, 50682, 51230, 51403]}, "edge": {"target": [], "time": []}}}, "displayed_time": "47.79", "trialTime": 52058, "trial_type": "mouselab-mdp", "trial_index": 38, "time_elapsed": 1610290, "internal_node_id": "0.0-4.0-1.0-29.0"}}, {"uniqueid": "w25779052:a38370808", "current_trial": 39, "dateTime": 1691160951915, "trialdata": {"revealed_states": [], "clicked_states": ["17", "16", "27", "32"], "num_clicks_accrued": [0, 0, 0, 0, 0, 0, 0, 0, 0, 0, 0, 0, 0], "stateRewards": ["", 1, 2, 8, -2, 23, -69, -18, -16, 54, -21, 71, -1, -4, 7, 11, 43, -6, 88, 6, -55, 72, 43, 1, -3, -2, -1, 68, -31, -54, 4, -8, 25, -2], "withholdReward": false, "trial_id": "mdp_trial_31", "block": "test", "trialIndex": 32, "score": 57.4, "costs": -5.6, "simulationMode": [null, null, null, null, null], "rewards": [1, -3, -2, -1, 68], "path": ["0", "0", "23", "24", "25", "26", "27"], "rt": [12383, 256, 239, 457, 11], "actions": ["left", "left", "left", "up", "up"], "actionTimes": [15794, 16507, 17295, 18283, 18833], "queries": {"click": {"state": {"target": ["17", "16", "27", "32"], "time": [5289, 9495, 11197, 13187]}, "edge": {"target": [], "time": []}}, "mouseover": {"state": {"target": ["17", "20", "21", "19", "14", "15", "16", "27", "32"], "time": [4476, 5954, 6226, 7293, 7372, 7460, 7743, 10826, 12064]}, "edge": {"target": [], "time": []}}, "mouseout": {"state": {"target": ["17", "17", "15", "12", "0", "17", "17", "20", "21", "19", "14", "15", "16", "27", "27", "32", "30", "31", "31"], "time": [222, 719, 773, 1254, 3498, 5334, 5862, 6004, 7259, 7331, 7411, 7498, 10047, 11301, 11773, 14079, 20716, 20789, 21465]}, "edge": {"target": [], "time": []}}}, "displayed_time": "19.40", "trialTime": 22243, "trial_type": "mouselab-mdp", "trial_index": 39, "time_elapsed": 1634891, "internal_node_id": "0.0-4.0-1.0-30.0"}}, {"uniqueid": "w25779052:a38370808", "current_trial": 40, "dateTime": 1691160972844, "trialdata": {"revealed_states": [], "clicked_states": ["17"], "num_clicks_accrued": [0, 0, 0, 0, 0, 0, 0, 0, 0, 0, 0, 0, 0], "stateRewards": ["", 1, 4, 5, 8, -55, -11, 8, 16, -37, 77, -22, -2, 3, -8, -10, 45, 87, -67, 4, 17, -33, -22, -1, -3, 7, 6, -39, -85, 75, -1, 7, -48, 45], "withholdReward": false, "trial_id": "mdp_trial_32", "block": "test", "trialIndex": 33, "score": 68.6, "costs": -1.4, "simulationMode": [null, null, null, null, null], "rewards": [-2, 3, -8, -10, 87], "path": ["0", "0", "12", "13", "14", "15", "17"], "rt": [5490, 160, 56, 235, 404], "actions": ["right", "right", "right", "up", "right"], "actionTimes": [8265, 8963, 9564, 10357, 11300], "queries": {"click": {"state": {"target": ["17"], "time": [5149]}, "edge": {"target": [], "time": []}}, "mouseover": {"state": {"target": ["1", "18", "15", "17", "16"], "time": [4221, 4433, 4489, 4820, 5754]}, "edge": {"target": [], "time": []}}, "mouseout": {"state": {"target": ["0", "1", "18", "15", "17", "16", "5", "5", "4", "6"], "time": [2902, 4366, 4476, 4809, 5412, 12980, 13031, 13421, 14770, 14959]}, "edge": {"target": [], "time": []}}}, "displayed_time": "16.78", "trialTime": 18402, "trial_type": "mouselab-mdp", "trial_index": 40, "time_elapsed": 1655816, "internal_node_id": "0.0-4.0-1.0-31.0"}}, {"uniqueid": "w25779052:a38370808", "current_trial": 41, "dateTime": 1691160994288, "trialdata": {"revealed_states": [], "clicked_states": ["9", "5"], "num_clicks_accrued": [0, 0, 0, 0, 0, 0, 0, 0, 0, 0, 0, 0, 0], "stateRewards": ["", 1, 1, 7, -11, 80, -20, -53, -14, 3, 31, 27, 2, -1, -8, -10, 33, 41, 86, 9, 78, -37, -13, -1, -2, -6, -8, -80, 75, 4, -16, -49, -74, 24], "withholdReward": false, "trial_id": "mdp_trial_33", "block": "test", "trialIndex": 34, "score": 75.2, "costs": -2.8, "simulationMode": [null, null, null, null, null], "rewards": [1, 1, 7, -11, 80], "path": ["0", "0", "1", "2", "3", "4", "5"], "rt": [6931, 341, 273, 514, 272], "actions": ["up", "up", "up", "right", "up"], "actionTimes": [10696, 11586, 12386, 13427, 14233], "queries": {"click": {"state": {"target": ["9", "5"], "time": [5669, 7616]}, "edge": {"target": [], "time": []}}, "mouseover": {"state": {"target": ["2", "10", "8", "9", "5", "5", "17"], "time": [3859, 3937, 4543, 5307, 6285, 6576, 8425]}, "edge": {"target": [], "time": []}}, "mouseout": {"state": {"target": ["15", "12", "0", "2", "10", "8", "9", "9", "5", "5", "17", "17", "20", "21"], "time": [804, 1138, 1618, 3920, 4482, 4591, 5860, 6236, 6370, 8045, 15997, 16225, 18397, 18499]}, "edge": {"target": [], "time": []}}}, "displayed_time": "17.77", "trialTime": 19059, "trial_type": "mouselab-mdp", "trial_index": 41, "time_elapsed": 1677265, "internal_node_id": "0.0-4.0-1.0-32.0"}}, {"uniqueid": "w25779052:a38370808", "current_trial": 42, "dateTime": 1691161025929, "trialdata": {"revealed_states": [], "clicked_states": ["5", "20", "17", "11", "27", "32", "33", "29"], "num_clicks_accrued": [0, 0, 0, 0, 0, 0, 0, 0, 0, 0, 0, 0, 0], "stateRewards": ["", 1, 3, -2, 15, 51, 15, -19, 11, 67, -45, -73, 2, 4, -2, -13, 36, 9, -28, 10, -30, 31, 16, 1, 2, -1, -16, 14, -22, 36, -1, 88, -5, 45], "withholdReward": false, "trial_id": "mdp_trial_34", "block": "test", "trialIndex": 35, "score": 56.8, "costs": -11.200000000000001, "simulationMode": [null, null, null, null, null], "rewards": [1, 3, -2, 15, 51], "path": ["0", "0", "1", "2", "3", "4", "5"], "rt": [18965, 249, 111, 597, 134], "actions": ["up", "up", "up", "right", "up"], "actionTimes": [23292, 24069, 24681, 25815, 26483], "queries": {"click": {"state": {"target": ["5", "20", "17", "11", "27", "32", "33", "29"], "time": [6066, 7963, 9880, 11831, 13863, 15896, 17881, 19918]}, "edge": {"target": [], "time": []}}, "mouseover": {"state": {"target": ["1", "4", "5", "6", "15", "20", "20", "17", "8", "11", "28", "24", "27", "26", "25", "30", "32", "33", "29", "26", "25"], "time": [4903, 5139, 5471, 6307, 6545, 6897, 7052, 8381, 10535, 10774, 12456, 12636, 13245, 14485, 14554, 14696, 15200, 16494, 18385, 21225, 22110]}, "edge": {"target": [], "time": []}}, "mouseout": {"state": {"target": ["1", "1", "0", "1", "4", "5", "5", "6", "15", "20", "20", "17", "8", "11", "28", "24", "27", "27", "26", "25", "30", "32", "33", "29", "26", "25", "26", "28"], "time": [466, 672, 4389, 4975, 5263, 6099, 6253, 6371, 6637, 6947, 8210, 10239, 10650, 12322, 12514, 12759, 13898, 14445, 14541, 14605, 14829, 16302, 18214, 19958, 21279, 24059, 27940, 28105]}, "edge": {"target": [], "time": []}}}, "displayed_time": "27.02", "trialTime": 29195, "trial_type": "mouselab-mdp", "trial_index": 42, "time_elapsed": 1708901, "internal_node_id": "0.0-4.0-1.0-33.0"}}, {"uniqueid": "w25779052:a38370808", "current_trial": 43, "dateTime": 1691161053585, "trialdata": {"revealed_states": [], "clicked_states": ["5", "20", "17", "16", "18", "22", "31"], "num_clicks_accrued": [0, 0, 0, 0, 0, 0, 0, 0, 0, 0, 0, 0, 0], "stateRewards": ["", -2, -4, 2, 10, -17, 18, 73, 11, -32, 23, -13, -2, -4, 7, 12, -25, 66, -23, 15, 40, -76, -9, 1, 2, -7, -5, -20, 24, 3, -5, 16, -73, 70], "withholdReward": false, "trial_id": "mdp_trial_35", "block": "test", "trialIndex": 36, "score": 69.2, "costs": -9.8, "simulationMode": [null, null, null, null, null], "rewards": [-2, -4, 7, 12, 66], "path": ["0", "0", "12", "13", "14", "15", "17"], "rt": [16924, 13, 169, 371, 350], "actions": ["right", "right", "right", "up", "right"], "actionTimes": [19820, 20378, 21138, 22038, 22948], "queries": {"click": {"state": {"target": ["5", "20", "17", "16", "18", "22", "31"], "time": [4455, 6512, 8445, 10691, 12825, 15022, 17181]}, "edge": {"target": [], "time": []}}, "mouseover": {"state": {"target": ["12", "7", "4", "5", "15", "20", "17", "15", "16", "18", "13", "22", "31", "24", "28"], "time": [2973, 3724, 3978, 4225, 5184, 5454, 7077, 9102, 9295, 11335, 13660, 14663, 15977, 18014, 18163]}, "edge": {"target": [], "time": []}}, "mouseout": {"state": {"target": ["17", "17", "15", "18", "0", "12", "7", "4", "5", "5", "15", "20", "17", "15", "16", "16", "18", "13", "22", "31", "24"], "time": [59, 853, 907, 955, 2959, 3107, 3791, 4074, 4617, 4967, 5239, 6774, 9056, 9157, 10800, 11163, 13603, 14579, 15600, 17859, 18070]}, "edge": {"target": [], "time": []}}}, "displayed_time": "23.49", "trialTime": 25532, "trial_type": "mouselab-mdp", "trial_index": 43, "time_elapsed": 1736557, "internal_node_id": "0.0-4.0-1.0-34.0"}}, {"uniqueid": "w25779052:a38370808", "current_trial": 44, "dateTime": 1691161082013, "trialdata": {"revealed_states": [], "clicked_states": ["17", "16", "21", "6", "9", "32"], "num_clicks_accrued": [0, 0, 0, 0, 0, 0, 0, 0, 0, 0, 0, 0, 0], "stateRewards": ["", -2, 3, 3, -14, 62, 36, 49, 16, 11, 17, -84, 2, -1, 6, 2, -82, -73, 49, -6, -87, 48, 50, -1, -2, -1, -16, -11, 37, -44, 4, 55, 73, -10], "withholdReward": false, "trial_id": "mdp_trial_36", "block": "test", "trialIndex": 37, "score": 64.6, "costs": -8.4, "simulationMode": [null, null, null, null, null], "rewards": [-1, -2, -1, 4, 73], "path": ["0", "0", "23", "24", "25", "30", "32"], "rt": [15660, 351, 408, 434, 307], "actions": ["left", "left", "left", "down", "down"], "actionTimes": [19324, 20253, 21154, 22153, 22978], "queries": {"click": {"state": {"target": ["17", "16", "21", "6", "9", "32"], "time": [5268, 7209, 9171, 11151, 13226, 15686]}, "edge": {"target": [], "time": []}}, "mouseover": {"state": {"target": ["0", "12", "15", "17", "16", "14", "19", "21", "6", "4", "5", "9", "11", "32", "32", "30", "25", "26", "27"], "time": [3888, 4352, 4817, 4983, 6033, 7567, 7634, 7741, 10366, 11595, 11978, 12263, 13841, 14989, 15372, 16075, 16145, 16215, 16447]}, "edge": {"target": [], "time": []}}, "mouseout": {"state": {"target": ["27", "28", "0", "0", "12", "15", "17", "16", "14", "19", "21", "16", "6", "4", "5", "9", "11", "32", "32", "30", "25", "26", "27"], "time": [745, 877, 3740, 4302, 4646, 4869, 6023, 7487, 7620, 7689, 9388, 9845, 11581, 11648, 12036, 13643, 14576, 15053, 15981, 16132, 16201, 16269, 24470]}, "edge": {"target": [], "time": []}}}, "displayed_time": "23.50", "trialTime": 25952, "trial_type": "mouselab-mdp", "trial_index": 44, "time_elapsed": 1764989, "internal_node_id": "0.0-4.0-1.0-35.0"}}, {"uniqueid": "w25779052:a38370808", "current_trial": 45, "dateTime": 1691161107346, "trialdata": {"revealed_states": [], "clicked_states": ["11", "32", "21", "16", "17", "20", "6"], "num_clicks_accrued": [0, 0, 0, 0, 0, 0, 0, 0, 0, 0, 0, 0, 0], "stateRewards": ["", 1, -3, -1, 9, -34, -40, 22, -7, 45, 53, -11, 2, 4, 5, 15, 21, 37, -49, -3, 80, -28, -34, 1, -3, 1, 1, -40, -6, -5, -16, -85, -86, 59], "withholdReward": false, "trial_id": "mdp_trial_37", "block": "test", "trialIndex": 38, "score": 78.2, "costs": -9.8, "simulationMode": [null, null, null, null, null], "rewards": [2, 4, 5, -3, 80], "path": ["0", "0", "12", "13", "14", "19", "20"], "rt": [14566, 125, 202, 543, 422], "actions": ["right", "right", "right", "down", "right"], "actionTimes": [16983, 17648, 18379, 19452, 20403], "queries": {"click": {"state": {"target": ["11", "32", "21", "16", "17", "20", "6"], "time": [3562, 5547, 7508, 9423, 11062, 13107, 15113]}, "edge": {"target": [], "time": []}}, "mouseover": {"state": {"target": ["10", "8", "11", "28", "24", "32", "21", "19", "14", "15", "16", "17", "17", "20", "15", "6"], "time": [2598, 2994, 3247, 4093, 4160, 4678, 6573, 7916, 8026, 8203, 8602, 9936, 10251, 11948, 13501, 13921]}, "edge": {"target": [], "time": []}}, "mouseout": {"state": {"target": ["4", "7", "0", "10", "8", "11", "28", "24", "32", "21", "19", "14", "15", "16", "17", "17", "20", "15", "6"], "time": [308, 410, 2473, 2681, 3116, 4034, 4146, 4215, 5858, 7862, 7969, 8078, 8386, 9839, 10104, 11722, 13314, 13557, 22524]}, "edge": {"target": [], "time": []}}}, "displayed_time": "20.94", "trialTime": 23258, "trial_type": "mouselab-mdp", "trial_index": 45, "time_elapsed": 1790319, "internal_node_id": "0.0-4.0-1.0-36.0"}}, {"uniqueid": "w25779052:a38370808", "current_trial": 46, "dateTime": 1691161153239, "trialdata": {"revealed_states": [], "clicked_states": ["17", "20", "27", "6", "32", "29", "33", "11", "21", "5", "9", "10", "7", "22", "18"], "num_clicks_accrued": [0, 0, 0, 0, 0, 0, 0, 0, 0, 0, 0, 0, 0], "stateRewards": ["", 2, 4, -3, 16, -58, 30, -35, 11, -60, 47, 27, -2, -1, -7, -16, 23, -70, 68, -10, -65, -43, -34, -2, 1, 7, 9, -63, 34, -31, -8, -12, -86, 59], "withholdReward": false, "trial_id": "mdp_trial_38", "block": "test", "trialIndex": 39, "score": 21, "costs": -20.999999999999996, "simulationMode": [null, null, null, null, null], "rewards": [-2, -1, -7, -16, 68], "path": ["0", "0", "12", "13", "14", "15", "18"], "rt": [34833, 281, 180, 662, 448], "actions": ["right", "right", "right", "up", "left"], "actionTimes": [37149, 37969, 38688, 39867, 40841], "queries": {"click": {"state": {"target": ["17", "20", "27", "6", "32", "29", "33", "11", "21", "5", "9", "10", "7", "22", "18"], "time": [3589, 5570, 7486, 9446, 12086, 14040, 15970, 18554, 20681, 22649, 24796, 26744, 28718, 32117, 34160]}, "edge": {"target": [], "time": []}}, "mouseover": {"state": {"target": ["18", "17", "17", "20", "1", "27", "4", "6", "23", "32", "30", "25", "29", "33", "26", "11", "10", "22", "21", "19", "7", "4", "5", "9", "8", "10", "2", "7", "1", "1", "13", "13", "22", "13", "18"], "time": [2837, 3005, 3304, 4369, 6023, 6353, 8173, 8604, 10037, 10475, 12533, 12606, 13019, 15105, 16305, 16660, 19376, 19720, 19792, 21116, 21391, 21474, 21644, 24281, 25623, 25734, 27112, 27574, 30120, 30737, 30920, 31185, 31459, 33241, 33461]}, "edge": {"target": [], "time": []}}, "mouseout": {"state": {"target": ["0", "18", "17", "17", "20", "1", "27", "4", "6", "6", "23", "32", "30", "25", "29", "33", "26", "11", "10", "22", "21", "19", "7", "4", "5", "9", "8", "10", "2", "7", "1", "1", "13", "13", "22", "13", "18", "18"], "time": [2368, 2904, 3048, 4358, 5878, 6083, 7876, 8427, 9529, 9818, 10091, 12434, 12591, 12708, 14442, 16162, 16365, 19276, 19436, 19777, 20992, 21260, 21461, 21582, 22745, 25570, 25722, 27017, 27352, 29778, 30174, 30779, 31035, 31419, 33186, 33326, 34243, 34703]}, "edge": {"target": [], "time": []}}}, "displayed_time": "41.37", "trialTime": 43612, "trial_type": "mouselab-mdp", "trial_index": 46, "time_elapsed": 1836210, "internal_node_id": "0.0-4.0-1.0-37.0"}}, {"uniqueid": "w25779052:a38370808", "current_trial": 47, "dateTime": 1691161176313, "trialdata": {"revealed_states": [], "clicked_states": ["29", "27", "17", "21", "6"], "num_clicks_accrued": [0, 0, 0, 0, 0, 0, 0, 0, 0, 0, 0, 0, 0], "stateRewards": ["", -1, 3, 1, -7, 56, 76, 57, 3, 11, -9, 14, 1, -2, 2, 8, -77, -3, 79, -5, 88, 24, -66, -2, -1, 7, -7, -30, 14, -76, 11, -36, 28, -6], "withholdReward": false, "trial_id": "mdp_trial_39", "block": "test", "trialIndex": 40, "score": 65, "costs": -7, "simulationMode": [null, null, null, null, null], "rewards": [-1, 3, 1, -7, 76], "path": ["0", "0", "1", "2", "3", "4", "6"], "rt": [12416, 144, 94, 486, 675], "actions": ["up", "up", "up", "right", "right"], "actionTimes": [14704, 15391, 16010, 17048, 18253], "queries": {"click": {"state": {"target": ["29", "27", "17", "21", "6"], "time": [3720, 5739, 7691, 9640, 11595]}, "edge": {"target": [], "time": []}}, "mouseover": {"state": {"target": ["23", "24", "25", "29", "27", "10", "17", "20", "21", "14", "15", "16", "6", "4", "3", "8", "9"], "time": [2909, 2973, 3060, 3394, 4496, 6102, 6586, 8195, 8462, 10069, 10138, 10205, 10346, 12063, 12178, 12272, 13365]}, "edge": {"target": [], "time": []}}, "mouseout": {"state": {"target": ["0", "23", "24", "25", "29", "27", "10", "17", "20", "21", "14", "15", "16", "6", "4", "3", "8", "9", "3"], "time": [2339, 2960, 3014, 3276, 3807, 6037, 6156, 8051, 8358, 9756, 10124, 10190, 10332, 12045, 12122, 12261, 12533, 13777, 19536]}, "edge": {"target": [], "time": []}}}, "displayed_time": "18.78", "trialTime": 20614, "trial_type": "mouselab-mdp", "trial_index": 47, "time_elapsed": 1859289, "internal_node_id": "0.0-4.0-1.0-38.0"}}, {"uniqueid": "w25779052:a38370808", "current_trial": 48, "dateTime": 1691161196918, "trialdata": {"revealed_states": [], "clicked_states": ["16", "6", "21"], "num_clicks_accrued": [0, 0, 0, 0, 0, 0, 0, 0, 0, 0, 0, 0, 0], "stateRewards": ["", -2, 2, 3, -7, 76, 63, 21, 15, 35, -8, -44, 1, 1, -2, -12, 23, 24, 76, -9, 46, 66, -49, -2, -1, 7, 12, 40, -71, -45, -6, 38, -49, 46], "withholdReward": false, "trial_id": "mdp_trial_40", "block": "test", "trialIndex": 41, "score": 54.8, "costs": -4.199999999999999, "simulationMode": [null, null, null, null, null], "rewards": [-2, 2, 3, -7, 63], "path": ["0", "0", "1", "2", "3", "4", "6"], "rt": [8195, 1164, 190, 548, 112], "actions": ["up", "up", "up", "right", "right"], "actionTimes": [10811, 12491, 13208, 14274, 14926], "queries": {"click": {"state": {"target": ["16", "6", "21"], "time": [3997, 6031, 8023]}, "edge": {"target": [], "time": []}}, "mouseover": {"state": {"target": ["0", "12", "18", "15", "16", "6", "19", "21", "22", "12", "1"], "time": [2939, 3234, 3330, 3422, 3641, 4606, 6664, 6976, 8657, 8810, 9337]}, "edge": {"target": [], "time": []}}, "mouseout": {"state": {"target": ["0", "0", "12", "18", "15", "16", "6", "19", "21", "22", "12", "1", "1", "12"], "time": [2674, 3194, 3278, 3383, 3464, 4077, 6441, 6761, 8561, 8711, 8908, 9458, 16595, 17881]}, "edge": {"target": [], "time": []}}}, "displayed_time": "16.62", "trialTime": 18326, "trial_type": "mouselab-mdp", "trial_index": 48, "time_elapsed": 1879890, "internal_node_id": "0.0-4.0-1.0-39.0"}}, {"uniqueid": "w25779052:a38370808", "current_trial": 49, "dateTime": 1691161246254, "trialdata": {"rt": 48519, "response": {"Q0": "$-2 to $2", "Q1": "$-16 to $16", "Q2": "$-88 to $88", "Q3": "The cost was always $1.4.", "Q4": "Very motivated"}, "question_order": [0, 1, 2, 3, 4], "trial_id": "final_quiz_control", "trial_type": "survey-multi-choice", "trial_index": 49, "time_elapsed": 1929229, "internal_node_id": "0.0-4.0-2.0"}}, {"uniqueid": "w25779052:a38370808", "current_trial": 50, "dateTime": 1691161472645, "trialdata": {"rt": 225608, "response": {"Q0": "After a few tries I realised the nodes furthest from the centre usually had the most amount of money so I only used the node inspector to view those node and not the ones closer to the centre.", "Q1": "Yes, over time I learned to use the node inspector less (only viewed a few nodes) as it decreased my total", "Q2": "It wasn't difficult. "}, "trial_id": "self_report_control", "trial_type": "survey-text", "trial_index": 50, "time_elapsed": 2155623, "internal_node_id": "0.0-4.0-3.0"}}, {"uniqueid": "w25779052:a38370808", "current_trial": 51, "dateTime": 1691161513862, "trialdata": {"rt": 41050, "response": {"gender": "female", "age": "21", "colorblind": "0", "effort": "0"}, "trial_type": "survey-html-form", "trial_index": 51, "time_elapsed": 2196840, "internal_node_id": "0.0-4.0-4.0"}}, {"uniqueid": "w25779052:a38370808", "current_trial": 52, "dateTime": 1691161541372, "trialdata": {"rt": 27450, "response": {"Q0": "No.", "Q1": "No.", "Q2": ""}, "trial_type": "survey-text", "trial_index": 52, "time_elapsed": 2224349, "internal_node_id": "0.0-4.0-5.0"}}, {"uniqueid": "w25779052:a38370808", "current_trial": 53, "dateTime": 1691161547435, "trialdata": {"rt": 5978, "stimulus": "Press 'Finish HIT' in order to reach the completion code. Once the data has been saved, you will receive the code either in this window or in the original browser window where you started the experiment.\n", "response": 0, "trial_type": "html-button-response", "trial_index": 53, "time_elapsed": 2230412, "internal_node_id": "0.0-5.0"}}, {"uniqueid": "w25779052:a38370808", "current_trial": 54, "dateTime": 1691161548512, "trialdata": {"success": true, "trial_type": "fullscreen", "trial_index": 54, "time_elapsed": 2231489, "internal_node_id": "0.0-6.0"}}], "questiondata": {"params": {"CODE": "C6DMOQA6", "MIN_TIME": 14, "inspectCost": 1, "startTime": "Fri Aug 04 2023 16:28:32 GMT+0200 (South Africa Standard Time)", "bonusRate": 0.002, "variance": "1_2_4_8_44", "branching": "31123"}, "final_score": 2504.4}, "eventdata": [{"eventtype": "initialized", "value": null, "timestamp": 1691159310912, "interval": 0}, {"eventtype": "window_resize", "value": [1024, 694], "timestamp": 1691159310912, "interval": 0}, {"eventtype": "window_resize", "value": [1024, 694], "timestamp": 1691159311638, "interval": 726}, {"eventtype": "window_resize", "value": [1366, 768], "timestamp": 1691159325132, "interval": 13494}], "useragent": "Mozilla/5.0 (Windows NT 10.0; Win64; x64) AppleWebKit/537.36 (KHTML, like Gecko) Chrome/115.0.0.0 Safari/537.36", "mode": "live", "id": "w25779052:a38370808", "status": "user data saved", "Beginhit": "2023-08-04 14:28:23.882461", "Beginexp": "2023-08-04 14:28:45.900974", "Endhit": "2023-08-04 15:06:12.99583", "psiturkStatus": 3, "browser": "<redacted>", "platform": "windows", "language": "en-ZA"}