{"condition": 0, "counterbalance": 0, "assignmentId": "a40856041", "workerId": "w65179925", "hitId": "h96376528", "currenttrial": 55, "bonus": 0, "data": [{"uniqueid": "w65179925:a40856041", "current_trial": 0, "dateTime": 1693564652699, "trialdata": {"success": true, "trial_type": "fullscreen", "trial_index": 0, "time_elapsed": 7573, "internal_node_id": "0.0-0.0"}}, {"uniqueid": "w65179925:a40856041", "current_trial": 1, "dateTime": 1693564677940, "trialdata": {"view_history": [{"page_index": 0, "viewing_time": 25234}], "rt": 25235, "trial_id": "exp_instructions_control", "trial_type": "instructions", "trial_index": 1, "time_elapsed": 32814, "internal_node_id": "0.0-1.0"}}, {"uniqueid": "w65179925:a40856041", "current_trial": 2, "dateTime": 1693564839477, "trialdata": {"view_history": [{"page_index": 0, "viewing_time": 38537}, {"page_index": 1, "viewing_time": 31292}, {"page_index": 2, "viewing_time": 44604}, {"page_index": 3, "viewing_time": 47100}], "rt": 161533, "trial_id": "mouselab_instructions_1_control", "trial_type": "instructions", "trial_index": 2, "time_elapsed": 194351, "internal_node_id": "0.0-2.0-1.0"}}, {"uniqueid": "w65179925:a40856041", "current_trial": 3, "dateTime": 1693564860576, "trialdata": {"revealed_states": [], "clicked_states": ["1", "3", "8", "9", "2"], "num_clicks_accrued": [0, 0, 0, 0, 0, 0, 0, 0, 0, 0, 0, 0, 0], "stateRewards": ["", 10, -10, -10, -10, -10, -10, -10, 10, 10, 10, 10, 10, 10, -10, 10, 10, 10, -10, -10, 10, 10, -10, -10, -10, -10, 10, -10, -10, -10, -10, -10, -10, 10], "withholdReward": false, "trial_id": "practice_1", "block": "test", "trialIndex": 0, "score": 11, "costs": -2.5, "simulationMode": [null, null, null, null, null], "rewards": [10, -10, -10, 10, 10], "path": ["0", "0", "1", "2", "3", "8", "9"], "rt": [10529, 114, 2, 580, 966], "actions": ["up", "up", "up", "left", "up"], "actionTimes": [13339, 13968, 14470, 15564, 17033], "queries": {"click": {"state": {"target": ["1", "3", "8", "9", "2"], "time": [5510, 6553, 8031, 9236, 10674]}, "edge": {"target": [], "time": []}}, "mouseover": {"state": {"target": ["1", "2", "2", "3", "8", "9", "8", "9", "2", "5", "3"], "time": [5201, 5701, 5934, 6268, 6786, 7350, 7784, 8352, 10469, 11550, 12167]}, "edge": {"target": [], "time": []}}, "mouseout": {"state": {"target": ["0", "0", "1", "2", "2", "3", "3", "8", "9", "8", "9", "9", "3", "2", "2", "5", "3", "2"], "time": [616, 4888, 5667, 5751, 6219, 6716, 6767, 7283, 7667, 8168, 9356, 9767, 9903, 10770, 10966, 12066, 12301, 16848]}, "edge": {"target": [], "time": []}}}, "displayed_time": "17.55", "trialTime": 20151, "trial_type": "mouselab-mdp", "trial_index": 3, "time_elapsed": 215449, "internal_node_id": "0.0-2.0-2.0-0.0"}}, {"uniqueid": "w65179925:a40856041", "current_trial": 4, "dateTime": 1693564878367, "trialdata": {"revealed_states": [], "clicked_states": ["23", "1", "12"], "num_clicks_accrued": [0, 0, 0, 0, 0, 0, 0, 0, 0, 0, 0, 0, 0], "stateRewards": ["", 10, -10, 10, 10, -10, -10, -10, 10, -10, 10, 10, -10, 10, 10, 10, 10, 10, 10, -10, 10, -10, 10, -10, 10, 10, -10, -10, -10, -10, -10, -10, 10, 10], "withholdReward": false, "trial_id": "practice_2", "block": "test", "trialIndex": 1, "score": 32, "costs": -1.5, "simulationMode": [null, null, null, null, null], "rewards": [10, -10, 10, 10, 10], "path": ["0", "0", "1", "2", "3", "8", "11"], "rt": [6670, 4829, 61, 165, 132], "actions": ["up", "up", "up", "left", "left"], "actionTimes": [8016, 13342, 13905, 14575, 15210], "queries": {"click": {"state": {"target": ["23", "1", "12"], "time": [2799, 4337, 5673]}, "edge": {"target": [], "time": []}}, "mouseover": {"state": {"target": ["23", "1", "12", "2"], "time": [2159, 3278, 4745, 6346]}, "edge": {"target": [], "time": []}}, "mouseout": {"state": {"target": ["23", "1", "12", "2", "2", "3", "2", "1", "0"], "time": [3045, 4662, 5978, 6694, 11709, 12025, 16374, 16491, 16558]}, "edge": {"target": [], "time": []}}}, "displayed_time": "15.71", "trialTime": 17588, "trial_type": "mouselab-mdp", "trial_index": 4, "time_elapsed": 233240, "internal_node_id": "0.0-2.0-2.0-1.0"}}, {"uniqueid": "w65179925:a40856041", "current_trial": 5, "dateTime": 1693564903729, "trialdata": {"view_history": [{"page_index": 0, "viewing_time": 19394}, {"page_index": 1, "viewing_time": 5964}], "rt": 25359, "trial_id": "mouselab_instructions_2_control", "trial_type": "instructions", "trial_index": 5, "time_elapsed": 258603, "internal_node_id": "0.0-2.0-3.0"}}, {"uniqueid": "w65179925:a40856041", "current_trial": 6, "dateTime": 1693564924666, "trialdata": {"rt": 20932, "response": {"Q0": "The cost for clicking on nodes may vary between nodes.", "Q1": "The better I perform the higher my bonus will be.", "Q2": "No, the amount of cash at each node of the web may be different each time.", "Q3": "To get the highest total score.", "Q4": "Only before moving the spider.", "Q5": "3 seconds"}, "question_order": [0, 1, 2, 3, 4, 5], "correct": {"Q0": "The cost for clicking on nodes may vary between nodes.", "Q1": "The better I perform the higher my bonus will be.", "Q2": "No, the amount of cash at each node of the web may be different each time.", "Q3": "To get the highest total score.", "Q4": "Only before moving the spider.", "Q5": "3 seconds"}, "trial_id": "mouselab_quiz_control", "trial_type": "survey-multi-choice", "trial_index": 6, "time_elapsed": 279540, "internal_node_id": "0.0-2.0-4.0"}}, {"uniqueid": "w65179925:a40856041", "current_trial": 7, "dateTime": 1693564930329, "trialdata": {"rt": 5657, "response": {"Q0": "No"}, "question_order": [0], "trial_id": "repeat_check", "trial_type": "survey-multi-choice", "trial_index": 7, "time_elapsed": 285203, "internal_node_id": "0.0-4.0-0.0"}}, {"uniqueid": "w65179925:a40856041", "current_trial": 8, "dateTime": 1693564939548, "trialdata": {"rt": 9212, "stimulus": "\n<h1> Get ready to start the game! </h1>\n\nThank you for reading the instructions. Get ready start with the 40 rounds of this game.\n<br><br>\nIf you need to take a break, feel free to take one after the end of a round, before continuing to the next one.\n<br><br>\nRemember, the more money the spider gets, the bigger your bonus will be!\n<br><br>\n<div style='text-align: center;'>Press <code>space</code> to begin.</div>\n\n<br><br>\n(If, at any point, the <code>space</code> key does not take you to the next page, click once on the text and try again.)", "response": " ", "trial_id": "mdp_ready", "trial_type": "html-keyboard-response", "trial_index": 8, "time_elapsed": 294422, "internal_node_id": "0.0-6.0-0.0"}}, {"uniqueid": "w65179925:a40856041", "current_trial": 9, "dateTime": 1693564973993, "trialdata": {"revealed_states": [], "clicked_states": ["1", "12", "23", "24", "25", "2", "13", "3", "4", "8", "11", "9", "10"], "num_clicks_accrued": [0, 0, 0, 0, 0, 0, 0, 0, 0, 0, 0, 0, 0], "stateRewards": ["", 1, 4, 5, -5, 58, -80, 75, 6, 25, -39, 46, 2, -2, 4, 2, 59, 31, -22, -12, -61, 15, 72, 1, -2, -7, 8, 77, 76, -23, -7, 71, -15, -3], "withholdReward": false, "trial_id": "mdp_trial_1", "block": "test", "trialIndex": 2, "score": 43.8, "costs": -18.2, "simulationMode": [null, null, null, null, null], "rewards": [1, 4, 5, 6, 46], "path": ["0", "0", "1", "2", "3", "8", "11"], "rt": [27736, 185, 111, 203, 98], "actions": ["up", "up", "up", "left", "left"], "actionTimes": [29481, 30184, 30809, 31520, 32114], "queries": {"click": {"state": {"target": ["1", "12", "23", "24", "25", "2", "13", "3", "4", "8", "11", "9", "10"], "time": [2428, 4428, 6114, 7885, 9491, 11073, 13072, 15675, 17471, 19054, 20747, 22811, 26019]}, "edge": {"target": [], "time": []}}, "mouseover": {"state": {"target": ["1", "2", "12", "12", "0", "12", "0", "23", "24", "23", "23", "23", "24", "24", "24", "25", "1", "2", "18", "14", "13", "14", "1", "3", "4", "8", "11", "9", "10", "8", "10"], "time": [2085, 2651, 3184, 3467, 3901, 4268, 4736, 4768, 4800, 5083, 5401, 5966, 6499, 7599, 7699, 8199, 9883, 10100, 11582, 11649, 11765, 13498, 15283, 15449, 16099, 18065, 20614, 21899, 23434, 24250, 25796]}, "edge": {"target": [], "time": []}}, "mouseout": {"state": {"target": ["0", "1", "2", "12", "12", "0", "12", "0", "23", "24", "23", "23", "23", "24", "24", "24", "25", "1", "2", "18", "14", "13", "14", "1", "2", "3", "3", "4", "3", "8", "11", "8", "9", "8", "10", "8", "11", "10"], "time": [1917, 2505, 3134, 3201, 3851, 4150, 4734, 4751, 4783, 5051, 5117, 5784, 6466, 7282, 7633, 8166, 9800, 9900, 11515, 11599, 11732, 13449, 14832, 15314, 15399, 15698, 16081, 17782, 18017, 20198, 21600, 21783, 23066, 23199, 24149, 24365, 25565, 26114]}, "edge": {"target": [], "time": []}}}, "displayed_time": "32.63", "trialTime": 34258, "trial_type": "mouselab-mdp", "trial_index": 9, "time_elapsed": 328866, "internal_node_id": "0.0-6.0-1.0-0.0"}}, {"uniqueid": "w65179925:a40856041", "current_trial": 10, "dateTime": 1693565002827, "trialdata": {"revealed_states": [], "clicked_states": ["1", "12", "23", "13", "14", "15", "16", "18", "17"], "num_clicks_accrued": [0, 0, 0, 0, 0, 0, 0, 0, 0, 0, 0, 0, 0], "stateRewards": ["", -1, -2, 8, -6, -79, -6, 87, 9, -5, -66, -38, 2, 2, 5, -6, -82, 74, 85, -8, 67, -30, -15, 1, -2, -2, -2, 87, 64, 49, 7, 2, -38, -9], "withholdReward": false, "trial_id": "mdp_trial_2", "block": "test", "trialIndex": 3, "score": 75.4, "costs": -12.600000000000001, "simulationMode": [null, null, null, null, null], "rewards": [2, 2, 5, -6, 85], "path": ["0", "0", "12", "13", "14", "15", "18"], "rt": [20952, 63, 120, 863, 215], "actions": ["right", "right", "right", "up", "left"], "actionTimes": [22764, 23319, 23958, 25334, 26069], "queries": {"click": {"state": {"target": ["1", "12", "23", "13", "14", "15", "16", "18", "17"], "time": [3340, 4945, 6807, 9317, 11218, 13148, 15918, 18148, 20160]}, "edge": {"target": [], "time": []}}, "mouseover": {"state": {"target": ["1", "12", "12", "0", "23", "0", "13", "14", "13", "14", "14", "15", "16", "16", "18", "15", "17"], "time": [2640, 3705, 4705, 5305, 5572, 8770, 8807, 8839, 9072, 9723, 9939, 12272, 13590, 13857, 16290, 18522, 18856]}, "edge": {"target": [], "time": []}}, "mouseout": {"state": {"target": ["2", "1", "12", "0", "1", "12", "12", "0", "23", "23", "0", "12", "13", "14", "13", "14", "14", "15", "16", "16", "18", "15"], "time": [687, 1038, 1172, 2266, 3589, 4389, 5289, 5372, 7672, 8756, 8789, 8805, 8822, 9022, 9690, 9757, 12205, 13505, 13640, 16206, 18489, 18573]}, "edge": {"target": [], "time": []}}}, "displayed_time": "26.59", "trialTime": 28650, "trial_type": "mouselab-mdp", "trial_index": 10, "time_elapsed": 357700, "internal_node_id": "0.0-6.0-1.0-1.0"}}, {"uniqueid": "w65179925:a40856041", "current_trial": 11, "dateTime": 1693565024840, "trialdata": {"revealed_states": [], "clicked_states": [], "num_clicks_accrued": [0, 0, 0, 0, 0, 0, 0, 0, 0, 0, 0, 0, 0], "stateRewards": ["", 1, 4, -4, 14, 35, 51, 19, -13, 54, 78, -74, -2, -1, -3, 13, -11, -42, -73, -15, -24, -3, -69, 2, -1, 5, 16, -27, 73, 58, 9, -60, 5, -60], "withholdReward": false, "trial_id": "mdp_trial_3", "block": "test", "trialIndex": 4, "score": 66, "costs": 0, "simulationMode": [null, null, null, null, null], "rewards": [1, 4, -4, -13, 78], "path": ["0", "0", "1", "2", "3", "8", "10"], "rt": [1379, 500, 51, 708, 89], "actions": ["up", "up", "up", "left", "down"], "actionTimes": [3730, 4750, 5317, 6557, 7155], "queries": {"click": {"state": {"target": [], "time": []}, "edge": {"target": [], "time": []}}, "mouseover": {"state": {"target": [], "time": []}, "edge": {"target": [], "time": []}}, "mouseout": {"state": {"target": ["17", "13", "12"], "time": [1014, 1381, 1498]}, "edge": {"target": [], "time": []}}}, "displayed_time": "16.35", "trialTime": 21823, "trial_type": "mouselab-mdp", "trial_index": 11, "time_elapsed": 379713, "internal_node_id": "0.0-6.0-1.0-2.0"}}, {"uniqueid": "w65179925:a40856041", "current_trial": 12, "dateTime": 1693565052236, "trialdata": {"revealed_states": [], "clicked_states": [], "num_clicks_accrued": [0, 0, 0, 0, 0, 0, 0, 0, 0, 0, 0, 0, 0], "stateRewards": ["", -1, -3, -7, -7, -76, 30, -49, 11, -70, 56, 2, 1, 4, -3, -14, -59, -83, -25, -9, -21, -67, -73, -2, 4, 4, -9, -11, -32, 60, 9, -87, 22, -64], "withholdReward": false, "trial_id": "mdp_trial_4", "block": "test", "trialIndex": 5, "score": -49, "costs": 0, "simulationMode": [null, null, null, null, null], "rewards": [-2, 4, 4, 9, -64], "path": ["0", "0", "23", "24", "25", "30", "33"], "rt": [1961, 149, 120, 148, 237], "actions": ["left", "left", "left", "down", "left"], "actionTimes": [4797, 5453, 6092, 6753, 7508], "queries": {"click": {"state": {"target": [], "time": []}, "edge": {"target": [], "time": []}}, "mouseover": {"state": {"target": [], "time": []}, "edge": {"target": [], "time": []}}, "mouseout": {"state": {"target": [], "time": []}, "edge": {"target": [], "time": []}}}, "displayed_time": "16.84", "trialTime": 27211, "trial_type": "mouselab-mdp", "trial_index": 12, "time_elapsed": 407110, "internal_node_id": "0.0-6.0-1.0-3.0"}}, {"uniqueid": "w65179925:a40856041", "current_trial": 13, "dateTime": 1693565072681, "trialdata": {"revealed_states": [], "clicked_states": [], "num_clicks_accrued": [0, 0, 0, 0, 0, 0, 0, 0, 0, 0, 0, 0, 0], "stateRewards": ["", -1, -1, 4, -16, -75, 81, -51, -7, -84, 73, -30, -2, 1, -3, -16, -77, 33, 14, 1, 45, 87, -66, 2, 2, -5, -7, -19, -17, 79, -3, 8, 49, 47], "withholdReward": false, "trial_id": "mdp_trial_5", "block": "test", "trialIndex": 6, "score": -65, "costs": 0, "simulationMode": [null, null, null, null, null], "rewards": [-1, -1, 4, -16, -51], "path": ["0", "0", "1", "2", "3", "4", "7"], "rt": [1142, 84, 1141, 3, 223], "actions": ["up", "up", "up", "right", "down"], "actionTimes": [2373, 2975, 4632, 5145, 5881], "queries": {"click": {"state": {"target": [], "time": []}, "edge": {"target": [], "time": []}}, "mouseover": {"state": {"target": [], "time": []}, "edge": {"target": [], "time": []}}, "mouseout": {"state": {"target": [], "time": []}, "edge": {"target": [], "time": []}}}, "displayed_time": "15.23", "trialTime": 20210, "trial_type": "mouselab-mdp", "trial_index": 13, "time_elapsed": 427554, "internal_node_id": "0.0-6.0-1.0-4.0"}}, {"uniqueid": "w65179925:a40856041", "current_trial": 14, "dateTime": 1693565091071, "trialdata": {"revealed_states": [], "clicked_states": [], "num_clicks_accrued": [0, 0, 0, 0, 0, 0, 0, 0, 0, 0, 0, 0, 0], "stateRewards": ["", -2, -1, -4, -15, -14, -67, 32, -3, -59, 63, 31, 2, -1, -7, -15, 71, -66, -27, -3, -54, -39, 72, 2, 1, 1, -13, 77, -40, 35, -9, 35, 75, 57], "withholdReward": false, "trial_id": "mdp_trial_6", "block": "test", "trialIndex": 7, "score": 10, "costs": 0, "simulationMode": [null, null, null, null, null], "rewards": [-2, -1, -4, -15, 32], "path": ["0", "0", "1", "2", "3", "4", "7"], "rt": [2228, 106, 633, 78, 127], "actions": ["up", "up", "up", "right", "down"], "actionTimes": [4542, 5169, 6313, 6908, 7555], "queries": {"click": {"state": {"target": [], "time": []}, "edge": {"target": [], "time": []}}, "mouseover": {"state": {"target": [], "time": []}, "edge": {"target": [], "time": []}}, "mouseout": {"state": {"target": [], "time": []}, "edge": {"target": [], "time": []}}}, "displayed_time": "16.32", "trialTime": 18155, "trial_type": "mouselab-mdp", "trial_index": 14, "time_elapsed": 445944, "internal_node_id": "0.0-6.0-1.0-5.0"}}, {"uniqueid": "w65179925:a40856041", "current_trial": 15, "dateTime": 1693565113112, "trialdata": {"revealed_states": [], "clicked_states": [], "num_clicks_accrued": [0, 0, 0, 0, 0, 0, 0, 0, 0, 0, 0, 0, 0], "stateRewards": ["", 2, -3, 5, -14, -63, -9, -24, -11, -54, -43, 68, 2, -2, -4, 7, -64, 30, 47, 12, -74, 11, 86, 1, -3, 3, 10, -71, -42, -52, -1, -29, -16, 69], "withholdReward": false, "trial_id": "mdp_trial_7", "block": "test", "trialIndex": 8, "score": -29, "costs": 0, "simulationMode": [null, null, null, null, null], "rewards": [1, -3, 3, -1, -29], "path": ["0", "0", "23", "24", "25", "30", "31"], "rt": [1193, 76, 122, 527, 358], "actions": ["left", "left", "left", "down", "right"], "actionTimes": [7413, 7996, 8609, 9648, 10495], "queries": {"click": {"state": {"target": [], "time": []}, "edge": {"target": [], "time": []}}, "mouseover": {"state": {"target": [], "time": []}, "edge": {"target": [], "time": []}}, "mouseout": {"state": {"target": [], "time": []}, "edge": {"target": [], "time": []}}}, "displayed_time": "20.22", "trialTime": 21806, "trial_type": "mouselab-mdp", "trial_index": 15, "time_elapsed": 467985, "internal_node_id": "0.0-6.0-1.0-6.0"}}, {"uniqueid": "w65179925:a40856041", "current_trial": 16, "dateTime": 1693565133972, "trialdata": {"revealed_states": [], "clicked_states": ["1"], "num_clicks_accrued": [0, 0, 0, 0, 0, 0, 0, 0, 0, 0, 0, 0, 0], "stateRewards": ["", 1, -3, -4, -11, -56, 61, -47, -16, -28, -9, 69, -2, -3, -4, -8, 40, -86, 59, -4, 80, 27, 54, -1, 3, -1, 8, 67, 23, 50, 6, 83, -43, -29], "withholdReward": false, "trial_id": "mdp_trial_8", "block": "test", "trialIndex": 9, "score": 30.6, "costs": -1.4, "simulationMode": [null, null, null, null, null], "rewards": [-1, 3, -1, 8, 23], "path": ["0", "0", "23", "24", "25", "26", "28"], "rt": [7895, 227, 6, 443, 98], "actions": ["left", "left", "left", "up", "right"], "actionTimes": [12205, 12951, 13461, 14433, 15037], "queries": {"click": {"state": {"target": ["1"], "time": [5171]}, "edge": {"target": [], "time": []}}, "mouseover": {"state": {"target": ["1", "12", "12", "13", "12", "13"], "time": [4950, 5606, 5890, 7456, 10190, 11089]}, "edge": {"target": [], "time": []}}, "mouseout": {"state": {"target": ["0", "0", "12", "0", "1", "12", "12", "13", "12", "13"], "time": [3020, 3606, 3789, 4723, 5524, 5657, 7389, 10106, 11039, 11121]}, "edge": {"target": [], "time": []}}}, "displayed_time": "18.31", "trialTime": 20620, "trial_type": "mouselab-mdp", "trial_index": 16, "time_elapsed": 488845, "internal_node_id": "0.0-6.0-1.0-7.0"}}, {"uniqueid": "w65179925:a40856041", "current_trial": 17, "dateTime": 1693565162066, "trialdata": {"revealed_states": [], "clicked_states": ["1", "2", "3", "4", "7", "6", "5"], "num_clicks_accrued": [0, 0, 0, 0, 0, 0, 0, 0, 0, 0, 0, 0, 0], "stateRewards": ["", 2, 3, -6, -5, -3, 55, 40, 11, 61, 11, 51, 2, -4, -6, 9, -25, 29, -15, -6, 7, -77, -2, -2, -4, 1, 14, -43, -1, 56, -12, -54, 41, -74], "withholdReward": false, "trial_id": "mdp_trial_9", "block": "test", "trialIndex": 10, "score": 39.2, "costs": -9.8, "simulationMode": [null, null, null, null, null], "rewards": [2, 3, -6, -5, 55], "path": ["0", "0", "1", "2", "3", "4", "6"], "rt": [18153, 1, 690, 72, 97], "actions": ["up", "up", "up", "right", "right"], "actionTimes": [20392, 20905, 22105, 22686, 23278], "queries": {"click": {"state": {"target": ["1", "2", "3", "4", "7", "6", "5"], "time": [3002, 4957, 6889, 9214, 11376, 15169, 17105]}, "edge": {"target": [], "time": []}}, "mouseover": {"state": {"target": ["1", "2", "3", "4", "7", "6", "6", "6", "5", "5"], "time": [2731, 3332, 5583, 8998, 9782, 11715, 14579, 14848, 15498, 15847]}, "edge": {"target": [], "time": []}}, "mouseout": {"state": {"target": ["14", "13", "12", "0", "1", "2", "3", "4", "7", "6", "6", "6", "5", "5"], "time": [1548, 1580, 1748, 2665, 3076, 5132, 8849, 9715, 11632, 14065, 14631, 15414, 15514, 19029]}, "edge": {"target": [], "time": []}}}, "displayed_time": "23.80", "trialTime": 27841, "trial_type": "mouselab-mdp", "trial_index": 17, "time_elapsed": 516939, "internal_node_id": "0.0-6.0-1.0-8.0"}}, {"uniqueid": "w65179925:a40856041", "current_trial": 18, "dateTime": 1693565197218, "trialdata": {"revealed_states": [], "clicked_states": ["23", "1", "12", "13", "14", "15", "19", "20", "21", "22", "18", "16", "17"], "num_clicks_accrued": [0, 0, 0, 0, 0, 0, 0, 0, 0, 0, 0, 0, 0], "stateRewards": ["", -2, -3, 1, -7, 39, -67, 16, 5, -20, 73, 66, -1, 4, 5, -3, 23, -68, -87, -8, 3, -3, 17, 1, -4, -2, -13, -32, 34, 61, -5, -11, -18, 12], "withholdReward": false, "trial_id": "mdp_trial_10", "block": "test", "trialIndex": 11, "score": 9.8, "costs": -18.2, "simulationMode": [null, null, null, null, null], "rewards": [-1, 4, 5, -3, 23], "path": ["0", "0", "12", "13", "14", "15", "16"], "rt": [27745, 2, 500, 538, 48], "actions": ["right", "right", "right", "up", "up"], "actionTimes": [30173, 30683, 31714, 32767, 33327], "queries": {"click": {"state": {"target": ["23", "1", "12", "13", "14", "15", "19", "20", "21", "22", "18", "16", "17"], "time": [3950, 5770, 7703, 9531, 11411, 13327, 15194, 17051, 18943, 21201, 22954, 24959, 26818]}, "edge": {"target": [], "time": []}}, "mouseover": {"state": {"target": ["23", "1", "12", "13", "14", "15", "16", "19", "20", "21", "22", "13", "18", "16", "17"], "time": [3514, 4513, 6229, 8113, 9897, 12181, 14180, 14781, 16463, 17312, 19214, 21846, 22095, 23729, 25297]}, "edge": {"target": [], "time": []}}, "mouseout": {"state": {"target": ["6", "4", "1", "0", "0", "23", "1", "12", "13", "14", "15", "16", "15", "14", "19", "20", "21", "22", "13", "18", "16", "17"], "time": [1096, 1230, 1530, 1578, 2831, 4247, 6163, 8063, 9830, 12081, 13764, 14530, 14614, 14680, 15980, 17262, 19114, 21712, 21929, 23428, 25197, 28862]}, "edge": {"target": [], "time": []}}}, "displayed_time": "33.86", "trialTime": 34911, "trial_type": "mouselab-mdp", "trial_index": 18, "time_elapsed": 552091, "internal_node_id": "0.0-6.0-1.0-9.0"}}, {"uniqueid": "w65179925:a40856041", "current_trial": 19, "dateTime": 1693565232689, "trialdata": {"revealed_states": [], "clicked_states": [], "num_clicks_accrued": [0, 0, 0, 0, 0, 0, 0, 0, 0, 0, 0, 0, 0], "stateRewards": ["", -1, 3, 2, 9, 41, 4, -46, -12, -54, -87, -25, 2, 3, -1, 11, -77, 12, -33, -9, -32, 35, 72, 1, 3, -7, 4, 37, 65, -73, 6, 77, -43, 8], "withholdReward": false, "trial_id": "mdp_trial_11", "block": "test", "trialIndex": 12, "score": -33, "costs": 0, "simulationMode": [null, null, null, null, null], "rewards": [-1, 3, 2, 9, -46], "path": ["0", "0", "1", "2", "3", "4", "7"], "rt": [1224, 22, 52, 4, 61], "actions": ["up", "up", "up", "right", "down"], "actionTimes": [3295, 3830, 4377, 4912, 5502], "queries": {"click": {"state": {"target": [], "time": []}, "edge": {"target": [], "time": []}}, "mouseover": {"state": {"target": ["22", "19"], "time": [2207, 2274]}, "edge": {"target": [], "time": []}}, "mouseout": {"state": {"target": ["12", "0", "23", "0", "22"], "time": [1223, 1373, 1657, 2122, 2241]}, "edge": {"target": [], "time": []}}}, "displayed_time": "16.07", "trialTime": 35243, "trial_type": "mouselab-mdp", "trial_index": 19, "time_elapsed": 587562, "internal_node_id": "0.0-6.0-1.0-10.0"}}, {"uniqueid": "w65179925:a40856041", "current_trial": 20, "dateTime": 1693565249748, "trialdata": {"revealed_states": [], "clicked_states": [], "num_clicks_accrued": [0, 0, 0, 0, 0, 0, 0, 0, 0, 0, 0, 0, 0], "stateRewards": ["", 2, 3, 8, 11, 25, -80, 6, -4, -56, 84, -23, -2, -4, -3, 4, -51, -9, -61, -15, -64, 67, -35, 1, -1, -7, -6, 83, 59, -15, 12, -79, 56, 41], "withholdReward": false, "trial_id": "mdp_trial_12", "block": "test", "trialIndex": 13, "score": 93, "costs": 0, "simulationMode": [null, null, null, null, null], "rewards": [2, 3, 8, -4, 84], "path": ["0", "0", "1", "2", "3", "8", "10"], "rt": [1157, 48, 2, 528, 74], "actions": ["up", "up", "up", "left", "down"], "actionTimes": [2580, 3140, 3677, 4720, 5301], "queries": {"click": {"state": {"target": [], "time": []}, "edge": {"target": [], "time": []}}, "mouseover": {"state": {"target": ["0"], "time": [1430]}, "edge": {"target": [], "time": []}}, "mouseout": {"state": {"target": ["19", "13", "2", "10", "0", "0"], "time": [471, 506, 539, 657, 1124, 1508]}, "edge": {"target": [], "time": []}}}, "displayed_time": "15.43", "trialTime": 16806, "trial_type": "mouselab-mdp", "trial_index": 20, "time_elapsed": 604621, "internal_node_id": "0.0-6.0-1.0-11.0"}}, {"uniqueid": "w65179925:a40856041", "current_trial": 21, "dateTime": 1693565267291, "trialdata": {"revealed_states": [], "clicked_states": [], "num_clicks_accrued": [0, 0, 0, 0, 0, 0, 0, 0, 0, 0, 0, 0, 0], "stateRewards": ["", -1, 2, -2, 13, -56, -28, 10, 14, 53, -80, -29, 1, -3, -3, -14, 14, 9, -40, -9, 18, 18, 48, 1, 1, 1, -9, 64, -39, -9, 7, -52, -78, 7], "withholdReward": false, "trial_id": "mdp_trial_13", "block": "test", "trialIndex": 14, "score": 66, "costs": 0, "simulationMode": [null, null, null, null, null], "rewards": [-1, 2, -2, 14, 53], "path": ["0", "0", "1", "2", "3", "8", "9"], "rt": [859, 23, 7, 38, 145], "actions": ["up", "up", "up", "left", "up"], "actionTimes": [2716, 3250, 3752, 4315, 4991], "queries": {"click": {"state": {"target": [], "time": []}, "edge": {"target": [], "time": []}}, "mouseover": {"state": {"target": ["0", "12"], "time": [1881, 1959]}, "edge": {"target": [], "time": []}}, "mouseout": {"state": {"target": ["0", "0", "0", "12", "22", "19", "20"], "time": [1147, 1499, 1909, 15560, 15591, 15625, 15641]}, "edge": {"target": [], "time": []}}}, "displayed_time": "15.86", "trialTime": 17269, "trial_type": "mouselab-mdp", "trial_index": 21, "time_elapsed": 622164, "internal_node_id": "0.0-6.0-1.0-12.0"}}, {"uniqueid": "w65179925:a40856041", "current_trial": 22, "dateTime": 1693565287302, "trialdata": {"revealed_states": [], "clicked_states": [], "num_clicks_accrued": [0, 0, 0, 0, 0, 0, 0, 0, 0, 0, 0, 0, 0], "stateRewards": ["", -1, -3, -3, 1, -38, 2, -53, -2, -1, -81, 70, -1, 1, -5, -9, 46, 15, 35, -1, -22, 38, 59, -2, 4, -8, 13, 1, -83, -43, 4, 76, 13, 48], "withholdReward": false, "trial_id": "mdp_trial_14", "block": "test", "trialIndex": 15, "score": -90, "costs": 0, "simulationMode": [null, null, null, null, null], "rewards": [-1, -3, -3, -2, -81], "path": ["0", "0", "1", "2", "3", "8", "10"], "rt": [1310, 63, 2, 82, 242], "actions": ["up", "up", "up", "left", "down"], "actionTimes": [4998, 5577, 6081, 6679, 7437], "queries": {"click": {"state": {"target": [], "time": []}, "edge": {"target": [], "time": []}}, "mouseover": {"state": {"target": [], "time": []}, "edge": {"target": [], "time": []}}, "mouseout": {"state": {"target": ["1"], "time": [2911]}, "edge": {"target": [], "time": []}}}, "displayed_time": "17.69", "trialTime": 19749, "trial_type": "mouselab-mdp", "trial_index": 22, "time_elapsed": 642176, "internal_node_id": "0.0-6.0-1.0-13.0"}}, {"uniqueid": "w65179925:a40856041", "current_trial": 23, "dateTime": 1693565304467, "trialdata": {"revealed_states": [], "clicked_states": [], "num_clicks_accrued": [0, 0, 0, 0, 0, 0, 0, 0, 0, 0, 0, 0, 0], "stateRewards": ["", 1, -3, -1, 9, -34, -40, 22, -7, 45, 53, -11, 2, 4, 5, 15, 21, 37, -49, -3, 80, -28, -34, 1, -3, 1, 1, -40, -6, -5, -16, -85, -86, 59], "withholdReward": false, "trial_id": "mdp_trial_15", "block": "test", "trialIndex": 16, "score": 43, "costs": 0, "simulationMode": [null, null, null, null, null], "rewards": [1, -3, -1, -7, 53], "path": ["0", "0", "1", "2", "3", "8", "10"], "rt": [1140, 293, 118, 63, 81], "actions": ["up", "up", "up", "left", "down"], "actionTimes": [2763, 3551, 4177, 4736, 5339], "queries": {"click": {"state": {"target": [], "time": []}, "edge": {"target": [], "time": []}}, "mouseover": {"state": {"target": [], "time": []}, "edge": {"target": [], "time": []}}, "mouseout": {"state": {"target": ["0", "7", "3", "2", "0", "0"], "time": [458, 505, 856, 939, 1073, 1723]}, "edge": {"target": [], "time": []}}}, "displayed_time": "15.63", "trialTime": 16859, "trial_type": "mouselab-mdp", "trial_index": 23, "time_elapsed": 659340, "internal_node_id": "0.0-6.0-1.0-14.0"}}, {"uniqueid": "w65179925:a40856041", "current_trial": 24, "dateTime": 1693565321936, "trialdata": {"revealed_states": [], "clicked_states": [], "num_clicks_accrued": [0, 0, 0, 0, 0, 0, 0, 0, 0, 0, 0, 0, 0], "stateRewards": ["", -2, 1, -7, -8, -37, -76, -87, 11, 30, -63, 80, -1, 4, 2, -1, 42, 17, 52, -3, -75, -80, -68, 2, -3, -5, -15, -48, 82, 24, -7, 5, -22, -71], "withholdReward": false, "trial_id": "mdp_trial_16", "block": "test", "trialIndex": 17, "score": -60, "costs": 0, "simulationMode": [null, null, null, null, null], "rewards": [-2, 1, -7, 11, -63], "path": ["0", "0", "1", "2", "3", "8", "10"], "rt": [976, 344, 213, 59, 140], "actions": ["up", "up", "up", "left", "down"], "actionTimes": [3410, 4263, 4982, 5561, 6208], "queries": {"click": {"state": {"target": [], "time": []}, "edge": {"target": [], "time": []}}, "mouseover": {"state": {"target": [], "time": []}, "edge": {"target": [], "time": []}}, "mouseout": {"state": {"target": ["0"], "time": [2501]}, "edge": {"target": [], "time": []}}}, "displayed_time": "16.44", "trialTime": 17175, "trial_type": "mouselab-mdp", "trial_index": 24, "time_elapsed": 676809, "internal_node_id": "0.0-6.0-1.0-15.0"}}, {"uniqueid": "w65179925:a40856041", "current_trial": 25, "dateTime": 1693565344684, "trialdata": {"revealed_states": [], "clicked_states": [], "num_clicks_accrued": [0, 0, 0, 0, 0, 0, 0, 0, 0, 0, 0, 0, 0], "stateRewards": ["", -1, 3, 1, -11, -22, -36, 19, -5, -70, -52, 50, -2, -4, 4, -2, -41, -83, 29, -2, 22, 10, -6, -2, 3, -2, 14, 54, 44, 77, -9, -65, -37, -40], "withholdReward": false, "trial_id": "mdp_trial_17", "block": "test", "trialIndex": 18, "score": -54, "costs": 0, "simulationMode": [null, null, null, null, null], "rewards": [-1, 3, 1, -5, -52], "path": ["0", "0", "1", "2", "3", "8", "10"], "rt": [1363, 322, 1143, 47, 124], "actions": ["up", "up", "up", "left", "down"], "actionTimes": [8242, 9084, 10739, 11294, 11937], "queries": {"click": {"state": {"target": [], "time": []}, "edge": {"target": [], "time": []}}, "mouseover": {"state": {"target": [], "time": []}, "edge": {"target": [], "time": []}}, "mouseout": {"state": {"target": ["0", "0", "0"], "time": [1762, 3003, 5511]}, "edge": {"target": [], "time": []}}}, "displayed_time": "20.88", "trialTime": 22468, "trial_type": "mouselab-mdp", "trial_index": 25, "time_elapsed": 699558, "internal_node_id": "0.0-6.0-1.0-16.0"}}, {"uniqueid": "w65179925:a40856041", "current_trial": 26, "dateTime": 1693565361902, "trialdata": {"revealed_states": [], "clicked_states": [], "num_clicks_accrued": [0, 0, 0, 0, 0, 0, 0, 0, 0, 0, 0, 0, 0], "stateRewards": ["", -2, -3, -7, 7, -54, -69, -4, -14, -77, 22, 40, -2, -1, 5, 6, -35, 50, -60, 10, -28, 75, 57, 1, -4, -2, 2, 68, 34, -18, 12, 3, -21, -43], "withholdReward": false, "trial_id": "mdp_trial_18", "block": "test", "trialIndex": 19, "score": -4, "costs": 0, "simulationMode": [null, null, null, null, null], "rewards": [-2, -3, -7, -14, 22], "path": ["0", "0", "1", "2", "3", "8", "10"], "rt": [1053, 273, 63, 23, 334], "actions": ["up", "up", "up", "left", "down"], "actionTimes": [2294, 3060, 3633, 4160, 5004], "queries": {"click": {"state": {"target": [], "time": []}, "edge": {"target": [], "time": []}}, "mouseover": {"state": {"target": [], "time": []}, "edge": {"target": [], "time": []}}, "mouseout": {"state": {"target": ["0"], "time": [885]}, "edge": {"target": [], "time": []}}}, "displayed_time": "15.24", "trialTime": 16928, "trial_type": "mouselab-mdp", "trial_index": 26, "time_elapsed": 716776, "internal_node_id": "0.0-6.0-1.0-17.0"}}, {"uniqueid": "w65179925:a40856041", "current_trial": 27, "dateTime": 1693565380534, "trialdata": {"revealed_states": [], "clicked_states": [], "num_clicks_accrued": [0, 0, 0, 0, 0, 0, 0, 0, 0, 0, 0, 0, 0], "stateRewards": ["", 1, 2, -3, -5, 66, -50, -47, -5, 1, 28, -27, 1, 1, -1, -6, 37, -25, 56, 1, -82, -66, -40, -1, -4, -7, 15, -61, -23, 26, 10, 14, -56, 29], "withholdReward": false, "trial_id": "mdp_trial_19", "block": "test", "trialIndex": 20, "score": 23, "costs": 0, "simulationMode": [null, null, null, null, null], "rewards": [1, 2, -3, -5, 28], "path": ["0", "0", "1", "2", "3", "8", "10"], "rt": [1056, 302, 146, 151, 97], "actions": ["up", "up", "up", "left", "down"], "actionTimes": [4964, 5765, 6410, 7081, 7677], "queries": {"click": {"state": {"target": [], "time": []}, "edge": {"target": [], "time": []}}, "mouseover": {"state": {"target": [], "time": []}, "edge": {"target": [], "time": []}}, "mouseout": {"state": {"target": [], "time": []}, "edge": {"target": [], "time": []}}}, "displayed_time": "17.91", "trialTime": 18337, "trial_type": "mouselab-mdp", "trial_index": 27, "time_elapsed": 735407, "internal_node_id": "0.0-6.0-1.0-18.0"}}, {"uniqueid": "w65179925:a40856041", "current_trial": 28, "dateTime": 1693565398383, "trialdata": {"revealed_states": [], "clicked_states": [], "num_clicks_accrued": [0, 0, 0, 0, 0, 0, 0, 0, 0, 0, 0, 0, 0], "stateRewards": ["", -2, 2, -5, -6, 10, -66, -58, -10, -11, -63, -70, -1, -4, -5, 7, 66, -64, -43, -3, 45, -37, 4, -2, -2, -6, -4, -30, 33, 43, 15, -32, -65, -59], "withholdReward": false, "trial_id": "mdp_trial_20", "block": "test", "trialIndex": 21, "score": -69, "costs": 0, "simulationMode": [null, null, null, null, null], "rewards": [-2, 2, -5, -6, -58], "path": ["0", "0", "1", "2", "3", "4", "7"], "rt": [942, 591, 140, 200, 220], "actions": ["up", "up", "up", "right", "down"], "actionTimes": [3095, 4200, 4850, 5542, 6280], "queries": {"click": {"state": {"target": [], "time": []}, "edge": {"target": [], "time": []}}, "mouseover": {"state": {"target": [], "time": []}, "edge": {"target": [], "time": []}}, "mouseout": {"state": {"target": [], "time": []}, "edge": {"target": [], "time": []}}}, "displayed_time": "16.16", "trialTime": 17550, "trial_type": "mouselab-mdp", "trial_index": 28, "time_elapsed": 753257, "internal_node_id": "0.0-6.0-1.0-19.0"}}, {"uniqueid": "w65179925:a40856041", "current_trial": 29, "dateTime": 1693565414860, "trialdata": {"revealed_states": [], "clicked_states": [], "num_clicks_accrued": [0, 0, 0, 0, 0, 0, 0, 0, 0, 0, 0, 0, 0], "stateRewards": ["", 2, 3, -3, 4, 72, -28, 34, -12, 57, -64, -15, 2, 1, -4, -15, 2, 49, 31, -1, -42, -58, 31, -2, 1, -2, -13, -75, -19, -22, -6, 61, 10, -56], "withholdReward": false, "trial_id": "mdp_trial_21", "block": "test", "trialIndex": 22, "score": 29, "costs": 0, "simulationMode": [null, null, null, null, null], "rewards": [2, 1, -4, -1, 31], "path": ["0", "0", "12", "13", "14", "19", "22"], "rt": [934, 527, 119, 56, 81], "actions": ["right", "right", "right", "down", "left"], "actionTimes": [2096, 3133, 3758, 4328, 4937], "queries": {"click": {"state": {"target": [], "time": []}, "edge": {"target": [], "time": []}}, "mouseover": {"state": {"target": [], "time": []}, "edge": {"target": [], "time": []}}, "mouseout": {"state": {"target": [], "time": []}, "edge": {"target": [], "time": []}}}, "displayed_time": "15.16", "trialTime": 16173, "trial_type": "mouselab-mdp", "trial_index": 29, "time_elapsed": 769733, "internal_node_id": "0.0-6.0-1.0-20.0"}}, {"uniqueid": "w65179925:a40856041", "current_trial": 30, "dateTime": 1693565432183, "trialdata": {"revealed_states": [], "clicked_states": [], "num_clicks_accrued": [0, 0, 0, 0, 0, 0, 0, 0, 0, 0, 0, 0, 0], "stateRewards": ["", -2, 2, -5, 1, 42, -63, -58, -6, 2, 16, 81, -2, 4, 7, -10, 33, 3, -33, -2, -52, -84, -27, 2, -3, -3, 15, -74, -14, -5, -5, -84, 79, -31], "withholdReward": false, "trial_id": "mdp_trial_22", "block": "test", "trialIndex": 23, "score": 32, "costs": 0, "simulationMode": [null, null, null, null, null], "rewards": [-2, 4, 7, -10, 33], "path": ["0", "0", "12", "13", "14", "15", "16"], "rt": [1299, 53, 111, 681, 513], "actions": ["right", "right", "right", "up", "up"], "actionTimes": [3106, 3674, 4315, 5501, 6533], "queries": {"click": {"state": {"target": [], "time": []}, "edge": {"target": [], "time": []}}, "mouseover": {"state": {"target": [], "time": []}, "edge": {"target": [], "time": []}}, "mouseout": {"state": {"target": [], "time": []}, "edge": {"target": [], "time": []}}}, "displayed_time": "15.81", "trialTime": 17011, "trial_type": "mouselab-mdp", "trial_index": 30, "time_elapsed": 787056, "internal_node_id": "0.0-6.0-1.0-21.0"}}, {"uniqueid": "w65179925:a40856041", "current_trial": 31, "dateTime": 1693565449023, "trialdata": {"revealed_states": [], "clicked_states": [], "num_clicks_accrued": [0, 0, 0, 0, 0, 0, 0, 0, 0, 0, 0, 0, 0], "stateRewards": ["", 2, 4, -3, 16, -58, 30, -35, 11, -60, 47, 27, -2, -1, -7, -16, 23, -70, 68, -10, -65, -43, -34, -2, 1, 7, 9, -63, 34, -31, -8, -12, -86, 59], "withholdReward": false, "trial_id": "mdp_trial_23", "block": "test", "trialIndex": 24, "score": -88, "costs": 0, "simulationMode": [null, null, null, null, null], "rewards": [-2, 1, 7, -8, -86], "path": ["0", "0", "23", "24", "25", "30", "32"], "rt": [949, 322, 131, 218, 185], "actions": ["left", "left", "left", "down", "down"], "actionTimes": [2343, 3184, 3827, 4563, 5263], "queries": {"click": {"state": {"target": [], "time": []}, "edge": {"target": [], "time": []}}, "mouseover": {"state": {"target": [], "time": []}, "edge": {"target": [], "time": []}}, "mouseout": {"state": {"target": [], "time": []}, "edge": {"target": [], "time": []}}}, "displayed_time": "15.40", "trialTime": 16512, "trial_type": "mouselab-mdp", "trial_index": 31, "time_elapsed": 803897, "internal_node_id": "0.0-6.0-1.0-22.0"}}, {"uniqueid": "w65179925:a40856041", "current_trial": 32, "dateTime": 1693565471679, "trialdata": {"revealed_states": [], "clicked_states": ["9", "11", "10"], "num_clicks_accrued": [0, 0, 0, 0, 0, 0, 0, 0, 0, 0, 0, 0, 0], "stateRewards": ["", -1, -3, -7, -4, -85, -70, 79, 8, 84, -66, 42, 2, -2, -3, -16, -54, -66, 68, -3, 21, -14, 7, -2, -1, -3, -8, 75, 80, 86, -7, -84, 73, -16], "withholdReward": false, "trial_id": "mdp_trial_24", "block": "test", "trialIndex": 25, "score": 76.8, "costs": -4.199999999999999, "simulationMode": [null, null, null, null, null], "rewards": [-1, -3, -7, 8, 84], "path": ["0", "0", "1", "2", "3", "8", "9"], "rt": [9806, 2, 40, 276, 29], "actions": ["up", "up", "up", "left", "up"], "actionTimes": [14255, 14779, 15351, 16136, 16672], "queries": {"click": {"state": {"target": ["9", "11", "10"], "time": [7371, 9274, 11160]}, "edge": {"target": [], "time": []}}, "mouseover": {"state": {"target": ["1", "2", "3", "9", "11", "10", "2"], "time": [6360, 6393, 6560, 6942, 7910, 9796, 11461]}, "edge": {"target": [], "time": []}}, "mouseout": {"state": {"target": ["0", "1", "2", "3", "9", "11", "10", "2", "18"], "time": [6294, 6376, 6442, 6592, 7648, 9594, 11427, 11477, 21992]}, "edge": {"target": [], "time": []}}}, "displayed_time": "18.45", "trialTime": 22350, "trial_type": "mouselab-mdp", "trial_index": 32, "time_elapsed": 826552, "internal_node_id": "0.0-6.0-1.0-23.0"}}, {"uniqueid": "w65179925:a40856041", "current_trial": 33, "dateTime": 1693565492077, "trialdata": {"revealed_states": [], "clicked_states": ["32", "33", "25", "27", "29"], "num_clicks_accrued": [0, 0, 0, 0, 0, 0, 0, 0, 0, 0, 0, 0, 0], "stateRewards": ["", -2, 2, 5, -14, -56, 64, 84, -5, 52, 39, 85, -2, 1, 7, 8, 21, 29, -78, -9, -10, -69, 10, -2, -1, -7, 15, 72, 20, 41, -2, 52, 80, 22], "withholdReward": false, "trial_id": "mdp_trial_25", "block": "test", "trialIndex": 26, "score": 61, "costs": -7, "simulationMode": [null, null, null, null, null], "rewards": [-2, -1, -7, -2, 80], "path": ["0", "0", "23", "24", "25", "30", "32"], "rt": [11270, 172, 82, 284, 140], "actions": ["left", "left", "left", "down", "down"], "actionTimes": [12452, 13138, 13732, 14533, 15192], "queries": {"click": {"state": {"target": ["32", "33", "25", "27", "29"], "time": [2670, 4396, 6295, 8094, 10002]}, "edge": {"target": [], "time": []}}, "mouseover": {"state": {"target": ["23", "24", "30", "32", "33", "25", "23", "28", "27", "29"], "time": [1732, 1781, 1848, 2433, 2983, 4917, 7450, 7533, 7805, 8600]}, "edge": {"target": [], "time": []}}, "mouseout": {"state": {"target": ["22", "0", "23", "24", "30", "32", "33", "25", "23", "28", "27", "29", "25"], "time": [532, 1700, 1765, 1814, 1882, 2899, 4684, 6850, 7499, 7584, 8384, 10349, 10432]}, "edge": {"target": [], "time": []}}}, "displayed_time": "15.70", "trialTime": 20090, "trial_type": "mouselab-mdp", "trial_index": 33, "time_elapsed": 846950, "internal_node_id": "0.0-6.0-1.0-24.0"}}, {"uniqueid": "w65179925:a40856041", "current_trial": 34, "dateTime": 1693565509752, "trialdata": {"revealed_states": [], "clicked_states": ["21", "20", "17"], "num_clicks_accrued": [0, 0, 0, 0, 0, 0, 0, 0, 0, 0, 0, 0, 0], "stateRewards": ["", 1, 4, -8, -13, -13, -87, -77, -10, -44, 54, 42, 2, -3, -4, 12, -9, -80, 52, 9, 84, -2, -65, 1, -4, -5, -6, 8, 80, 32, 13, -59, -5, -13], "withholdReward": false, "trial_id": "mdp_trial_26", "block": "test", "trialIndex": 27, "score": 83.8, "costs": -4.199999999999999, "simulationMode": [null, null, null, null, null], "rewards": [2, -3, -4, 9, 84], "path": ["0", "0", "12", "13", "14", "19", "20"], "rt": [6297, 15, 83, 188, 122], "actions": ["right", "right", "right", "down", "right"], "actionTimes": [8138, 8671, 9258, 9945, 10578], "queries": {"click": {"state": {"target": ["21", "20", "17"], "time": [2687, 4498, 6223]}, "edge": {"target": [], "time": []}}, "mouseover": {"state": {"target": ["12", "22", "21", "20", "17"], "time": [1904, 2021, 2473, 2989, 5306]}, "edge": {"target": [], "time": []}}, "mouseout": {"state": {"target": ["0", "12", "22", "21", "20", "17"], "time": [1322, 1937, 2104, 2908, 4856, 6806]}, "edge": {"target": [], "time": []}}}, "displayed_time": "15.84", "trialTime": 17356, "trial_type": "mouselab-mdp", "trial_index": 34, "time_elapsed": 864626, "internal_node_id": "0.0-6.0-1.0-25.0"}}, {"uniqueid": "w65179925:a40856041", "current_trial": 35, "dateTime": 1693565528402, "trialdata": {"revealed_states": [], "clicked_states": ["9", "5", "6", "7", "10"], "num_clicks_accrued": [0, 0, 0, 0, 0, 0, 0, 0, 0, 0, 0, 0, 0], "stateRewards": ["", -2, -3, 4, 1, 33, -53, 15, 9, -12, 61, -6, -2, 4, 6, -11, 47, -43, -7, -11, 46, 23, -28, -1, -1, 3, -10, 11, 76, -76, 10, 18, -38, 87], "withholdReward": false, "trial_id": "mdp_trial_27", "block": "test", "trialIndex": 28, "score": 62, "costs": -7, "simulationMode": [null, null, null, null, null], "rewards": [-2, -3, 4, 9, 61], "path": ["0", "0", "1", "2", "3", "8", "10"], "rt": [11482, 237, 718, 76, 119], "actions": ["up", "up", "up", "left", "down"], "actionTimes": [13428, 14176, 15411, 15998, 16626], "queries": {"click": {"state": {"target": ["9", "5", "6", "7", "10"], "time": [2652, 4446, 6423, 8435, 10359]}, "edge": {"target": [], "time": []}}, "mouseover": {"state": {"target": ["1", "9", "5", "6", "7", "2", "10", "27"], "time": [2055, 2422, 3122, 4789, 6871, 9006, 9189, 11621]}, "edge": {"target": [], "time": []}}, "mouseout": {"state": {"target": ["14", "13", "12", "1", "9", "5", "5", "6", "7", "2", "10"], "time": [1122, 1171, 1337, 2072, 2906, 4544, 4723, 6621, 8905, 9089, 10621]}, "edge": {"target": [], "time": []}}}, "displayed_time": "17.14", "trialTime": 18306, "trial_type": "mouselab-mdp", "trial_index": 35, "time_elapsed": 883275, "internal_node_id": "0.0-6.0-1.0-26.0"}}, {"uniqueid": "w65179925:a40856041", "current_trial": 36, "dateTime": 1693565545979, "trialdata": {"revealed_states": [], "clicked_states": ["27", "29", "28"], "num_clicks_accrued": [0, 0, 0, 0, 0, 0, 0, 0, 0, 0, 0, 0, 0], "stateRewards": ["", 2, -4, -8, -15, 71, -43, -41, 7, -17, 20, 67, -1, -1, -4, 6, 37, -24, -47, 9, 34, 57, 45, 1, 2, -4, -5, -23, 88, -5, 13, -40, 43, 44], "withholdReward": false, "trial_id": "mdp_trial_28", "block": "test", "trialIndex": 29, "score": 77.8, "costs": -4.199999999999999, "simulationMode": [null, null, null, null, null], "rewards": [1, 2, -4, -5, 88], "path": ["0", "0", "23", "24", "25", "26", "28"], "rt": [8755, 33, 110, 950, 61], "actions": ["left", "left", "left", "up", "right"], "actionTimes": [10692, 11241, 11869, 13325, 13902], "queries": {"click": {"state": {"target": ["27", "29", "28"], "time": [2988, 4824, 7369]}, "edge": {"target": [], "time": []}}, "mouseover": {"state": {"target": ["23", "24", "26", "27", "27", "29", "33", "28", "24", "31"], "time": [2158, 2275, 2375, 2440, 2682, 3459, 5259, 7108, 7624, 7707]}, "edge": {"target": [], "time": []}}, "mouseout": {"state": {"target": ["27", "28", "23", "0", "23", "24", "26", "27", "27", "29", "33", "28", "24"], "time": [1123, 1207, 1256, 2108, 2241, 2342, 2406, 2509, 3209, 5108, 6824, 7590, 7657]}, "edge": {"target": [], "time": []}}}, "displayed_time": "15.94", "trialTime": 17186, "trial_type": "mouselab-mdp", "trial_index": 36, "time_elapsed": 900852, "internal_node_id": "0.0-6.0-1.0-27.0"}}, {"uniqueid": "w65179925:a40856041", "current_trial": 37, "dateTime": 1693565566403, "trialdata": {"revealed_states": [], "clicked_states": ["9", "11", "10", "7", "6", "5"], "num_clicks_accrued": [0, 0, 0, 0, 0, 0, 0, 0, 0, 0, 0, 0, 0], "stateRewards": ["", 1, 1, -3, 7, 49, 78, 26, -5, 26, 48, -43, -1, -3, 2, -5, 4, -1, -60, 10, -35, 51, 81, -2, 1, -7, -5, -39, -86, -54, 4, -3, 74, 77], "withholdReward": false, "trial_id": "mdp_trial_29", "block": "test", "trialIndex": 30, "score": 75.6, "costs": -8.4, "simulationMode": [null, null, null, null, null], "rewards": [1, 1, -3, 7, 78], "path": ["0", "0", "1", "2", "3", "4", "6"], "rt": [13893, 78, 490, 35, 62], "actions": ["up", "up", "up", "right", "right"], "actionTimes": [15799, 16408, 17437, 17981, 18559], "queries": {"click": {"state": {"target": ["9", "11", "10", "7", "6", "5"], "time": [2544, 5058, 7166, 9539, 11421, 13287]}, "edge": {"target": [], "time": []}}, "mouseover": {"state": {"target": ["10", "11", "9", "11", "10", "11", "11", "10", "7", "6", "5"], "time": [2013, 2097, 2314, 2948, 3664, 3864, 4696, 5380, 7730, 9880, 11797]}, "edge": {"target": [], "time": []}}, "mouseout": {"state": {"target": ["31", "24", "10", "10", "0", "10", "11", "9", "11", "10", "11", "11", "10", "7", "6", "5", "6"], "time": [730, 779, 913, 1162, 1917, 2047, 2115, 2798, 3497, 3798, 4414, 5263, 7563, 9814, 11547, 13564, 13646]}, "edge": {"target": [], "time": []}}}, "displayed_time": "19.06", "trialTime": 20051, "trial_type": "mouselab-mdp", "trial_index": 37, "time_elapsed": 921277, "internal_node_id": "0.0-6.0-1.0-28.0"}}, {"uniqueid": "w65179925:a40856041", "current_trial": 38, "dateTime": 1693565587396, "trialdata": {"revealed_states": [], "clicked_states": ["16", "18", "17", "20", "21", "22"], "num_clicks_accrued": [0, 0, 0, 0, 0, 0, 0, 0, 0, 0, 0, 0, 0], "stateRewards": ["", -2, 3, 8, -9, 59, 41, -50, -1, 82, 66, 33, 2, -2, 7, 8, 1, -38, 12, -16, 24, -37, 67, 1, 4, -2, 5, 35, -83, 28, 8, -27, 69, -64], "withholdReward": false, "trial_id": "mdp_trial_30", "block": "test", "trialIndex": 31, "score": 49.6, "costs": -8.4, "simulationMode": [null, null, null, null, null], "rewards": [2, -2, 7, -16, 67], "path": ["0", "0", "12", "13", "14", "19", "22"], "rt": [13881, 113, 609, 147, 133], "actions": ["right", "right", "right", "down", "left"], "actionTimes": [15520, 16149, 17279, 17934, 18586], "queries": {"click": {"state": {"target": ["16", "18", "17", "20", "21", "22"], "time": [2738, 4888, 6751, 9019, 10831, 12703]}, "edge": {"target": [], "time": []}}, "mouseover": {"state": {"target": ["12", "15", "16", "18", "15", "18", "15", "17", "20", "21", "21", "22", "19"], "time": [1986, 2119, 2237, 3020, 4388, 4652, 5086, 5169, 7237, 9335, 9785, 11137, 14785]}, "edge": {"target": [], "time": []}}, "mouseout": {"state": {"target": ["12", "0", "12", "15", "16", "18", "15", "18", "15", "17", "20", "21", "21", "22", "19", "19"], "time": [986, 1937, 2020, 2152, 2969, 4301, 4604, 5052, 5136, 7037, 9310, 9652, 11059, 14769, 14818, 19902]}, "edge": {"target": [], "time": []}}}, "displayed_time": "19.10", "trialTime": 20585, "trial_type": "mouselab-mdp", "trial_index": 38, "time_elapsed": 942269, "internal_node_id": "0.0-6.0-1.0-29.0"}}, {"uniqueid": "w65179925:a40856041", "current_trial": 39, "dateTime": 1693565608307, "trialdata": {"revealed_states": [], "clicked_states": ["27", "29", "28", "33", "32", "31"], "num_clicks_accrued": [0, 0, 0, 0, 0, 0, 0, 0, 0, 0, 0, 0, 0], "stateRewards": ["", 2, -2, -3, 10, -4, -1, -11, -8, -9, -36, -78, 2, 1, 7, -7, 44, -1, -31, -1, 26, 47, 83, 2, -4, -4, -6, -52, -76, -81, -1, -59, 45, 67], "withholdReward": false, "trial_id": "mdp_trial_31", "block": "test", "trialIndex": 32, "score": 51.6, "costs": -8.4, "simulationMode": [null, null, null, null, null], "rewards": [2, -4, -4, -1, 67], "path": ["0", "0", "23", "24", "25", "30", "33"], "rt": [14674, 188, 80, 164, 153], "actions": ["left", "left", "left", "down", "left"], "actionTimes": [16226, 16913, 17505, 18172, 18844], "queries": {"click": {"state": {"target": ["27", "29", "28", "33", "32", "31"], "time": [2805, 4600, 7242, 9826, 11669, 13547]}, "edge": {"target": [], "time": []}}, "mouseover": {"state": {"target": ["23", "27", "29", "26", "28", "25", "33", "32", "31", "31"], "time": [1825, 2391, 3092, 4892, 4926, 9372, 9574, 10190, 12158, 12724]}, "edge": {"target": [], "time": []}}, "mouseout": {"state": {"target": ["18", "23", "0", "23", "27", "29", "26", "28", "25", "33", "32", "31", "31"], "time": [741, 1124, 1809, 1842, 3026, 4860, 4910, 9341, 9423, 10124, 11992, 12325, 13742]}, "edge": {"target": [], "time": []}}}, "displayed_time": "19.36", "trialTime": 20501, "trial_type": "mouselab-mdp", "trial_index": 39, "time_elapsed": 963180, "internal_node_id": "0.0-6.0-1.0-30.0"}}, {"uniqueid": "w65179925:a40856041", "current_trial": 40, "dateTime": 1693565638357, "trialdata": {"revealed_states": [], "clicked_states": ["9", "11", "10", "7", "6", "5", "16", "17", "18", "22", "21"], "num_clicks_accrued": [0, 0, 0, 0, 0, 0, 0, 0, 0, 0, 0, 0, 0], "stateRewards": ["", 1, -2, -3, 14, -42, -87, -37, -11, -50, 33, -44, -2, 4, -7, 13, 48, -75, -66, 12, 23, -2, 82, 1, -4, 3, 12, 51, -15, -26, -11, -52, -29, 82], "withholdReward": false, "trial_id": "mdp_trial_32", "block": "test", "trialIndex": 33, "score": 73.6, "costs": -15.400000000000002, "simulationMode": [null, null, null, null, null], "rewards": [-2, 4, -7, 12, 82], "path": ["0", "0", "12", "13", "14", "19", "22"], "rt": [22803, 4, 225, 114, 172], "actions": ["right", "right", "right", "down", "left"], "actionTimes": [24424, 24938, 25690, 26318, 26988], "queries": {"click": {"state": {"target": ["9", "11", "10", "7", "6", "5", "16", "17", "18", "22", "21"], "time": [2365, 4105, 5973, 7974, 9841, 12032, 14817, 16636, 18608, 20676, 22572]}, "edge": {"target": [], "time": []}}, "mouseover": {"state": {"target": ["11", "8", "9", "11", "11", "10", "2", "7", "6", "5", "16", "17", "15", "18", "13", "22", "21"], "time": [1833, 2084, 2200, 2669, 3651, 4667, 6300, 6367, 8368, 10117, 12601, 15416, 16999, 17114, 18966, 19249, 21199]}, "edge": {"target": [], "time": []}}, "mouseout": {"state": {"target": ["23", "0", "11", "8", "9", "11", "11", "10", "2", "7", "6", "5", "5", "6", "16", "17", "15", "18", "13", "22"], "time": [967, 1650, 2017, 2116, 2601, 3401, 4467, 6266, 6350, 8268, 9984, 12107, 12300, 12450, 15300, 16932, 17048, 18900, 19033, 20933]}, "edge": {"target": [], "time": []}}}, "displayed_time": "27.48", "trialTime": 29579, "trial_type": "mouselab-mdp", "trial_index": 40, "time_elapsed": 993230, "internal_node_id": "0.0-6.0-1.0-31.0"}}, {"uniqueid": "w65179925:a40856041", "current_trial": 41, "dateTime": 1693565655444, "trialdata": {"revealed_states": [], "clicked_states": ["32", "33", "31"], "num_clicks_accrued": [0, 0, 0, 0, 0, 0, 0, 0, 0, 0, 0, 0, 0], "stateRewards": ["", 1, 3, -2, 15, 51, 15, -19, 11, 67, -45, -73, 2, 4, -2, -13, 36, 9, -28, 10, -30, 31, 16, 1, 2, -1, -16, 14, -22, 36, -1, 88, -5, 45], "withholdReward": false, "trial_id": "mdp_trial_33", "block": "test", "trialIndex": 34, "score": 84.8, "costs": -4.199999999999999, "simulationMode": [null, null, null, null, null], "rewards": [1, 2, -1, -1, 88], "path": ["0", "0", "23", "24", "25", "30", "31"], "rt": [7797, 8, 37, 79, 78], "actions": ["left", "left", "left", "down", "right"], "actionTimes": [9462, 9986, 10549, 11158, 11756], "queries": {"click": {"state": {"target": ["32", "33", "31"], "time": [2614, 4754, 6727]}, "edge": {"target": [], "time": []}}, "mouseover": {"state": {"target": ["23", "31", "30", "32", "33", "30", "31"], "time": [2046, 2112, 2162, 2361, 2945, 4963, 5196]}, "edge": {"target": [], "time": []}}, "mouseout": {"state": {"target": ["21", "0", "23", "31", "30", "32", "33", "30", "31"], "time": [766, 1678, 2062, 2130, 2194, 2794, 4946, 4997, 13428]}, "edge": {"target": [], "time": []}}}, "displayed_time": "15.67", "trialTime": 16580, "trial_type": "mouselab-mdp", "trial_index": 41, "time_elapsed": 1010318, "internal_node_id": "0.0-6.0-1.0-32.0"}}, {"uniqueid": "w65179925:a40856041", "current_trial": 42, "dateTime": 1693565672110, "trialdata": {"revealed_states": [], "clicked_states": ["27", "29", "28"], "num_clicks_accrued": [0, 0, 0, 0, 0, 0, 0, 0, 0, 0, 0, 0, 0], "stateRewards": ["", -1, -3, 3, 5, 56, 39, 50, -1, -80, 33, -46, 1, -2, -6, -8, 87, 48, 54, -11, -20, -64, -54, -2, 3, -7, -3, 12, 88, 35, -16, -46, -70, -3], "withholdReward": false, "trial_id": "mdp_trial_34", "block": "test", "trialIndex": 35, "score": 74.8, "costs": -4.199999999999999, "simulationMode": [null, null, null, null, null], "rewards": [-2, 3, -7, -3, 88], "path": ["0", "0", "23", "24", "25", "26", "28"], "rt": [8031, 368, 105, 59, 104], "actions": ["left", "left", "left", "up", "right"], "actionTimes": [9462, 10336, 10956, 11532, 12139], "queries": {"click": {"state": {"target": ["27", "29", "28"], "time": [2323, 4543, 6753]}, "edge": {"target": [], "time": []}}, "mouseover": {"state": {"target": ["27", "29", "26", "28", "1"], "time": [2118, 2771, 4834, 4884, 8699]}, "edge": {"target": [], "time": []}}, "mouseout": {"state": {"target": ["0", "27", "29", "26", "28", "1"], "time": [1084, 2636, 4802, 4867, 8667, 8732]}, "edge": {"target": [], "time": []}}}, "displayed_time": "15.44", "trialTime": 16186, "trial_type": "mouselab-mdp", "trial_index": 42, "time_elapsed": 1026983, "internal_node_id": "0.0-6.0-1.0-33.0"}}, {"uniqueid": "w65179925:a40856041", "current_trial": 43, "dateTime": 1693565705869, "trialdata": {"revealed_states": [], "clicked_states": ["11", "10", "9", "5", "6", "7", "18", "16", "17", "20", "21", "22"], "num_clicks_accrued": [0, 0, 0, 0, 0, 0, 0, 0, 0, 0, 0, 0, 0], "stateRewards": ["", -2, 2, -2, -7, -50, -62, -45, 7, 36, -24, -72, -1, -1, 8, -1, -67, 20, -52, 2, 35, -50, 80, -1, 1, 6, -6, -70, 6, 88, 8, -47, 74, -19], "withholdReward": false, "trial_id": "mdp_trial_35", "block": "test", "trialIndex": 36, "score": 71.2, "costs": -16.8, "simulationMode": [null, null, null, null, null], "rewards": [-1, -1, 8, 2, 80], "path": ["0", "0", "12", "13", "14", "19", "22"], "rt": [27550, 148, 3, 251, 96], "actions": ["right", "right", "right", "down", "left"], "actionTimes": [29251, 29915, 30437, 31201, 31813], "queries": {"click": {"state": {"target": ["11", "10", "9", "5", "6", "7", "18", "16", "17", "20", "21", "22"], "time": [2766, 4602, 7406, 10057, 11938, 13800, 15618, 17485, 20505, 22509, 24377, 26333]}, "edge": {"target": [], "time": []}}, "mouseover": {"state": {"target": ["11", "10", "8", "9", "5", "5", "6", "7", "7", "18", "15", "16", "17", "20", "17", "20", "21", "21", "22", "31"], "time": [2500, 3234, 4867, 4919, 7918, 8117, 10500, 12200, 12467, 14224, 15900, 16016, 17850, 19766, 20283, 20883, 22800, 23084, 24650, 27083]}, "edge": {"target": [], "time": []}}, "mouseout": {"state": {"target": ["0", "11", "10", "8", "9", "5", "5", "6", "7", "7", "18", "15", "16", "17", "20", "17", "20", "21", "21", "22"], "time": [2151, 3118, 4833, 4900, 7834, 7951, 10316, 12150, 12217, 14183, 15850, 15933, 17683, 19700, 20182, 20716, 22751, 22817, 24550, 26634]}, "edge": {"target": [], "time": []}}}, "displayed_time": "32.35", "trialTime": 33311, "trial_type": "mouselab-mdp", "trial_index": 43, "time_elapsed": 1060742, "internal_node_id": "0.0-6.0-1.0-34.0"}}, {"uniqueid": "w65179925:a40856041", "current_trial": 44, "dateTime": 1693565737060, "trialdata": {"revealed_states": [], "clicked_states": ["31", "32", "27", "29", "28", "11", "10", "9", "5", "6", "7"], "num_clicks_accrued": [0, 0, 0, 0, 0, 0, 0, 0, 0, 0, 0, 0, 0], "stateRewards": ["", -1, 1, 8, -3, -24, 11, -65, -6, -77, 48, 44, -2, 1, -2, -7, -55, -35, 33, 8, -28, 19, -53, -1, -1, -5, -5, -70, 10, 44, 8, -58, -70, 51], "withholdReward": false, "trial_id": "mdp_trial_36", "block": "test", "trialIndex": 37, "score": 34.599999999999994, "costs": -15.400000000000002, "simulationMode": [null, null, null, null, null], "rewards": [-1, 1, 8, -6, 48], "path": ["0", "0", "1", "2", "3", "8", "10"], "rt": [24649, 203, 497, 70, 281], "actions": ["up", "up", "up", "left", "down"], "actionTimes": [26403, 27116, 28132, 28714, 29494], "queries": {"click": {"state": {"target": ["31", "32", "27", "29", "28", "11", "10", "9", "5", "6", "7"], "time": [2993, 4957, 7362, 9254, 11329, 13900, 15862, 17854, 19869, 21785, 23708]}, "edge": {"target": [], "time": []}}, "mouseover": {"state": {"target": ["0", "23", "24", "31", "32", "33", "27", "33", "26", "27", "29", "26", "28", "11", "10", "8", "9", "5", "6", "7"], "time": [2114, 2163, 2196, 2696, 3547, 5230, 5430, 6246, 7062, 7111, 7997, 9616, 9651, 13662, 14229, 16078, 16162, 18680, 20263, 22278]}, "edge": {"target": [], "time": []}}, "mouseout": {"state": {"target": ["31", "0", "0", "23", "24", "31", "32", "33", "27", "33", "26", "27", "29", "26", "28", "11", "11", "10", "8", "9", "5", "6"], "time": [1079, 1395, 2130, 2179, 2263, 3381, 5146, 5280, 5830, 6996, 7094, 7780, 9596, 9640, 13312, 13976, 14162, 16061, 16112, 18497, 20113, 22061]}, "edge": {"target": [], "time": []}}}, "displayed_time": "30.01", "trialTime": 30767, "trial_type": "mouselab-mdp", "trial_index": 44, "time_elapsed": 1091933, "internal_node_id": "0.0-6.0-1.0-35.0"}}, {"uniqueid": "w65179925:a40856041", "current_trial": 45, "dateTime": 1693565770976, "trialdata": {"revealed_states": [], "clicked_states": ["11", "10", "9", "5", "6", "7", "27", "29", "28", "21", "22", "20"], "num_clicks_accrued": [0, 0, 0, 0, 0, 0, 0, 0, 0, 0, 0, 0, 0], "stateRewards": ["", 1, 4, 7, -16, -84, -6, -46, -12, -7, -49, -26, -1, 2, -4, 2, 22, 37, -64, 1, 88, -13, -10, 1, -4, -2, 5, 2, -10, -34, 9, 66, 55, 38], "withholdReward": false, "trial_id": "mdp_trial_37", "block": "test", "trialIndex": 38, "score": 69.2, "costs": -16.8, "simulationMode": [null, null, null, null, null], "rewards": [-1, 2, -4, 1, 88], "path": ["0", "0", "12", "13", "14", "19", "20"], "rt": [26179, 182, 657, 87, 124], "actions": ["right", "right", "right", "down", "right"], "actionTimes": [27965, 28657, 29833, 30429, 31066], "queries": {"click": {"state": {"target": ["11", "10", "9", "5", "6", "7", "27", "29", "28", "21", "22", "20"], "time": [3084, 4987, 6880, 9164, 11279, 13171, 15162, 16999, 18964, 21248, 23124, 25012]}, "edge": {"target": [], "time": []}}, "mouseover": {"state": {"target": ["11", "10", "10", "8", "9", "5", "6", "7", "27", "29", "26", "28", "24", "23", "0", "21", "22", "19", "20", "17"], "time": [2743, 3394, 3626, 5227, 5360, 8975, 9494, 11826, 14959, 15626, 17294, 17360, 20476, 20590, 20667, 21076, 21743, 23343, 23425, 25441]}, "edge": {"target": [], "time": []}}, "mouseout": {"state": {"target": ["7", "0", "11", "10", "10", "8", "9", "5", "6", "7", "27", "29", "26", "28", "24", "23", "0", "21", "22", "19", "20"], "time": [925, 2360, 3327, 3410, 5128, 5294, 8760, 9426, 11609, 14443, 15459, 17293, 17326, 20375, 20558, 20665, 20690, 21254, 23310, 23392, 25341]}, "edge": {"target": [], "time": []}}}, "displayed_time": "31.57", "trialTime": 33465, "trial_type": "mouselab-mdp", "trial_index": 45, "time_elapsed": 1125849, "internal_node_id": "0.0-6.0-1.0-36.0"}}, {"uniqueid": "w65179925:a40856041", "current_trial": 46, "dateTime": 1693565791760, "trialdata": {"revealed_states": [], "clicked_states": ["31", "32", "33", "29", "27", "28"], "num_clicks_accrued": [0, 0, 0, 0, 0, 0, 0, 0, 0, 0, 0, 0, 0], "stateRewards": ["", 2, -1, -1, 7, 11, -40, -22, -2, 69, 37, 8, -2, 4, -8, -12, -2, -72, -3, -12, 17, 63, 12, 1, 3, -7, 6, 25, 61, 61, -9, 28, -17, 27], "withholdReward": false, "trial_id": "mdp_trial_38", "block": "test", "trialIndex": 39, "score": 55.6, "costs": -8.4, "simulationMode": [null, null, null, null, null], "rewards": [1, 3, -7, 6, 61], "path": ["0", "0", "23", "24", "25", "26", "28"], "rt": [14028, 67, 583, 564, 83], "actions": ["left", "left", "left", "up", "right"], "actionTimes": [15687, 16289, 17388, 18469, 19071], "queries": {"click": {"state": {"target": ["31", "32", "33", "29", "27", "28"], "time": [3122, 4989, 6908, 9193, 11141, 13025]}, "edge": {"target": [], "time": []}}, "mouseover": {"state": {"target": ["32", "31", "32", "33", "29", "27", "28"], "time": [2472, 2837, 3439, 5305, 7539, 9488, 11688]}, "edge": {"target": [], "time": []}}, "mouseout": {"state": {"target": ["17", "15", "12", "32", "31", "32", "33", "29", "27", "28"], "time": [857, 904, 1120, 2572, 3356, 5205, 7222, 9405, 11438, 13388]}, "edge": {"target": [], "time": []}}}, "displayed_time": "19.59", "trialTime": 20364, "trial_type": "mouselab-mdp", "trial_index": 46, "time_elapsed": 1146633, "internal_node_id": "0.0-6.0-1.0-37.0"}}, {"uniqueid": "w65179925:a40856041", "current_trial": 47, "dateTime": 1693565809385, "trialdata": {"revealed_states": [], "clicked_states": ["31", "32"], "num_clicks_accrued": [0, 0, 0, 0, 0, 0, 0, 0, 0, 0, 0, 0, 0], "stateRewards": ["", 1, 1, -2, 7, -31, -6, 76, 1, -36, -16, -53, 2, 1, 7, 13, -47, -10, 47, -7, 72, 46, -56, -2, -2, -2, 11, -80, 44, 38, 16, 67, 85, -78], "withholdReward": false, "trial_id": "mdp_trial_39", "block": "test", "trialIndex": 40, "score": 92.2, "costs": -2.8, "simulationMode": [null, null, null, null, null], "rewards": [-2, -2, -2, 16, 85], "path": ["0", "0", "23", "24", "25", "30", "32"], "rt": [5566, 189, 50, 300, 86], "actions": ["left", "left", "left", "down", "down"], "actionTimes": [7531, 8228, 8788, 9620, 10207], "queries": {"click": {"state": {"target": ["31", "32"], "time": [2991, 4927]}, "edge": {"target": [], "time": []}}, "mouseover": {"state": {"target": ["0", "23", "31", "32", "32"], "time": [2388, 2435, 2819, 3320, 3770]}, "edge": {"target": [], "time": []}}, "mouseout": {"state": {"target": ["0", "23", "31", "32", "32", "2", "1", "13", "19", "21"], "time": [2403, 2535, 3237, 3437, 5236, 15053, 15103, 15186, 15236, 15287]}, "edge": {"target": [], "time": []}}}, "displayed_time": "15.97", "trialTime": 17288, "trial_type": "mouselab-mdp", "trial_index": 47, "time_elapsed": 1164259, "internal_node_id": "0.0-6.0-1.0-38.0"}}, {"uniqueid": "w65179925:a40856041", "current_trial": 48, "dateTime": 1693565849814, "trialdata": {"revealed_states": [], "clicked_states": ["31", "32", "33", "21", "20", "22", "28", "27", "29", "10", "11", "9", "5", "6", "7"], "num_clicks_accrued": [0, 0, 0, 0, 0, 0, 0, 0, 0, 0, 0, 0, 0], "stateRewards": ["", 2, 4, -5, 7, 81, 35, 6, 11, 14, -72, 42, -1, 2, 3, -7, -77, -44, -40, -15, -85, 51, -32, -2, -1, -5, 7, -74, 47, 52, 16, -49, 48, -46], "withholdReward": false, "trial_id": "mdp_trial_40", "block": "test", "trialIndex": 41, "score": 68, "costs": -20.999999999999996, "simulationMode": [null, null, null, null, null], "rewards": [2, 4, -5, 7, 81], "path": ["0", "0", "1", "2", "3", "4", "5"], "rt": [34316, 93, 395, 66, 58], "actions": ["up", "up", "up", "right", "up"], "actionTimes": [35814, 36425, 37311, 37897, 38478], "queries": {"click": {"state": {"target": ["31", "32", "33", "21", "20", "22", "28", "27", "29", "10", "11", "9", "5", "6", "7"], "time": [2408, 4322, 6663, 8796, 10709, 12612, 15242, 17184, 19116, 22177, 24325, 26161, 29171, 30996, 32913]}, "edge": {"target": [], "time": []}}, "mouseover": {"state": {"target": ["0", "31", "32", "33", "21", "20", "20", "19", "22", "22", "12", "0", "23", "24", "28", "26", "27", "29", "26", "28", "11", "10", "11", "9", "5", "6", "5", "6", "7"], "time": [1588, 1999, 2823, 4549, 7733, 9167, 9400, 10966, 11050, 11616, 14615, 14633, 14664, 14714, 14915, 15556, 15831, 17764, 19831, 20648, 21565, 21948, 23798, 24616, 26632, 28362, 28997, 29398, 31831]}, "edge": {"target": [], "time": []}}, "mouseout": {"state": {"target": ["0", "0", "31", "32", "33", "21", "20", "20", "19", "22", "22", "12", "0", "23", "24", "28", "26", "27", "29", "26", "28", "11", "10", "11", "9", "5", "6", "5", "6", "7"], "time": [1181, 1849, 2683, 4481, 7117, 9083, 9183, 10949, 11017, 11100, 14548, 14632, 14663, 14698, 14747, 15515, 15591, 17548, 19748, 19864, 20997, 21798, 22215, 24499, 26382, 28331, 28913, 29347, 31358, 33215]}, "edge": {"target": [], "time": []}}}, "displayed_time": "38.98", "trialTime": 40080, "trial_type": "mouselab-mdp", "trial_index": 48, "time_elapsed": 1204687, "internal_node_id": "0.0-6.0-1.0-39.0"}}, {"uniqueid": "w65179925:a40856041", "current_trial": 49, "dateTime": 1693565870886, "trialdata": {"rt": 21067, "response": {"Q0": "$-16 to 16", "Q1": "$-16 to $16", "Q2": "$-88 to $88", "Q3": "The cost was always $1.4.", "Q4": "Slightly motivated"}, "question_order": [0, 1, 2, 3, 4], "trial_id": "final_quiz_control", "trial_type": "survey-multi-choice", "trial_index": 49, "time_elapsed": 1225760, "internal_node_id": "0.0-6.0-2.0"}}, {"uniqueid": "w65179925:a40856041", "current_trial": 50, "dateTime": 1693565954266, "trialdata": {"rt": 83367, "response": {"Q0": "I started randomly guessing, clicking on all buttons, then decided not to use the inspection mode. However, I realised the best way was to find out the values of the last step.", "Q1": "I started randomly guessing, clicking on all buttons, then decided not to use the inspection mode as it was costing me 1.40 a go. However, I realised the best way was to find out the values of the last step.", "Q2": "It was easy enough to improve."}, "trial_id": "self_report_control", "trial_type": "survey-text", "trial_index": 50, "time_elapsed": 1309140, "internal_node_id": "0.0-6.0-3.0"}}, {"uniqueid": "w65179925:a40856041", "current_trial": 51, "dateTime": 1693565965460, "trialdata": {"rt": 11186, "response": {"gender": "female", "age": "34", "colorblind": "0", "effort": "0"}, "trial_type": "survey-html-form", "trial_index": 51, "time_elapsed": 1320334, "internal_node_id": "0.0-6.0-4.0"}}, {"uniqueid": "w65179925:a40856041", "current_trial": 52, "dateTime": 1693565977030, "trialdata": {"rt": 11564, "response": {"Q0": "no", "Q1": "no", "Q2": "no"}, "trial_type": "survey-text", "trial_index": 52, "time_elapsed": 1331904, "internal_node_id": "0.0-6.0-5.0"}}, {"uniqueid": "w65179925:a40856041", "current_trial": 53, "dateTime": 1693566000338, "trialdata": {"rt": 23302, "stimulus": "<h1>Completion Code Instructions (1/2)</h1>\n<br><br><br><br>\nYou have reached the end of the experiment! The completion code consists of two parts: (1) a code with 2 characters (2) a code with 6 characters. On this page, you will receive the second part of the code. The first part of the completion code will be on the next page.\n<br><br>\nThe second part of your completion code is: <b>EWEK22</b>\n<br><br>\nPlease note this down. Then, press 'Finish HIT' in order to find the first part of your completion code. Once the data has been saved, you will receive this code either in this window or in the original browser window where you started the experiment.\n", "response": 0, "trial_type": "html-button-response", "trial_index": 53, "time_elapsed": 1355212, "internal_node_id": "0.0-6.0-6.0"}}, {"uniqueid": "w65179925:a40856041", "current_trial": 54, "dateTime": 1693566001344, "trialdata": {"success": true, "trial_type": "fullscreen", "trial_index": 54, "time_elapsed": 1356218, "internal_node_id": "0.0-7.0"}}], "questiondata": {"params": {"CODE": "C6DMOQA6", "MIN_TIME": 14, "inspectCost": 1, "startTime": "Fri Sep 01 2023 11:37:21 GMT+0100 (British Summer Time)", "bonusRate": 0.002, "variance": "1_2_4_8_44", "branching": "31123"}, "final_score": 1182}, "eventdata": [{"eventtype": "initialized", "value": null, "timestamp": 1693564640965, "interval": 0}, {"eventtype": "window_resize", "value": [1028, 744], "timestamp": 1693564640965, "interval": 0}, {"eventtype": "window_resize", "value": [1536, 758], "timestamp": 1693564641314, "interval": 349}, {"eventtype": "window_resize", "value": [1536, 864], "timestamp": 1693564651904, "interval": 10590}, {"eventtype": "window_resize", "value": [1536, 758], "timestamp": 1693566000590, "interval": 1348686}], "useragent": "Mozilla/5.0 (Windows NT 10.0; Win64; x64) AppleWebKit/537.36 (KHTML, like Gecko) Chrome/115.0.0.0 Safari/537.36", "mode": "live", "id": "w65179925:a40856041", "status": "user data saved", "Beginhit": "2023-09-01 10:37:15.461103", "Beginexp": "2023-09-01 10:37:33.416034", "Endhit": "2023-09-01 11:00:02.851844", "psiturkStatus": 3, "browser": "<redacted>", "platform": "windows", "language": "en-GB"}