{"condition": 1, "counterbalance": 0, "assignmentId": "a61689744", "workerId": "w88582211", "hitId": "h35525650", "currenttrial": 56, "bonus": 0, "data": [{"uniqueid": "w88582211:a61689744", "current_trial": 0, "dateTime": 1691159691832, "trialdata": {"success": true, "trial_type": "fullscreen", "trial_index": 0, "time_elapsed": 11753, "internal_node_id": "0.0-0.0"}}, {"uniqueid": "w88582211:a61689744", "current_trial": 1, "dateTime": 1691159742081, "trialdata": {"view_history": [{"page_index": 0, "viewing_time": 50227}], "rt": 50231, "trial_id": "exp_instructions_misaligned", "trial_type": "instructions", "trial_index": 1, "time_elapsed": 62002, "internal_node_id": "0.0-1.0"}}, {"uniqueid": "w88582211:a61689744", "current_trial": 2, "dateTime": 1691159745275, "trialdata": {"success": true, "trial_type": "fullscreen", "trial_index": 2, "time_elapsed": 65197, "internal_node_id": "0.0-2.0-0.0"}}, {"uniqueid": "w88582211:a61689744", "current_trial": 3, "dateTime": 1691160164537, "trialdata": {"view_history": [{"page_index": 0, "viewing_time": 113655}, {"page_index": 1, "viewing_time": 202565}, {"page_index": 0, "viewing_time": 28427}, {"page_index": 1, "viewing_time": 16718}, {"page_index": 2, "viewing_time": 8596}, {"page_index": 3, "viewing_time": 49250}], "rt": 419233, "trial_id": "mouselab_instructions_1_misaligned", "trial_type": "instructions", "trial_index": 3, "time_elapsed": 484449, "internal_node_id": "0.0-2.0-1.0"}}, {"uniqueid": "w88582211:a61689744", "current_trial": 4, "dateTime": 1691160191420, "trialdata": {"revealed_states": [], "clicked_states": ["12", "23"], "num_clicks_accrued": [0, 0, 0, 0, 0, 0, 0, 0, 0, 0, 0, 0, 0], "stateRewards": ["", -10, 10, -10, -10, -10, 10, -10, -10, -10, 10, 10, 10, -10, 10, -10, 10, 10, -10, -10, 10, 10, 10, -10, 10, 10, 10, -10, -10, -10, -10, -10, -10, 10], "withholdReward": false, "trial_id": "practice_1", "block": "test", "trialIndex": 0, "score": 12.5, "costs": -1, "simulationMode": [null, null, null, null, null], "rewards": [10, -10, 10, -10, 10], "path": ["0", "0", "12", "13", "14", "15", "16"], "rt": [9619, 1199, 1509, 1663, 290], "actions": ["right", "right", "right", "up", "up"], "actionTimes": [15167, 16907, 18920, 21101, 21914], "queries": {"click": {"state": {"target": ["12", "23"], "time": [9333, 12042]}, "edge": {"target": [], "time": []}}, "mouseover": {"state": {"target": ["12", "23"], "time": [8873, 10970]}, "edge": {"target": [], "time": []}}, "mouseout": {"state": {"target": ["0", "12", "23"], "time": [4136, 10704, 24357]}, "edge": {"target": [], "time": []}}}, "displayed_time": "22.42", "trialTime": 25674, "trial_type": "mouselab-mdp", "trial_index": 4, "time_elapsed": 511339, "internal_node_id": "0.0-2.0-2.0-0.0"}}, {"uniqueid": "w88582211:a61689744", "current_trial": 5, "dateTime": 1691160218328, "trialdata": {"revealed_states": [], "clicked_states": ["23", "1", "12"], "num_clicks_accrued": [0, 0, 0, 0, 0, 0, 0, 0, 0, 0, 0, 0, 0], "stateRewards": ["", -10, 10, -10, -10, -10, -10, -10, 10, 10, -10, -10, -10, -10, -10, 10, 10, -10, -10, -10, -10, -10, 10, 10, 10, 10, 10, -10, 10, -10, 10, -10, -10, 10], "withholdReward": false, "trial_id": "practice_2", "block": "test", "trialIndex": 1, "score": 52, "costs": -1.5, "simulationMode": [null, null, null, null, null], "rewards": [10, 10, 10, 10, 10], "path": ["0", "0", "23", "24", "25", "26", "28"], "rt": [12417, 735, 655, 1332, 416], "actions": ["left", "left", "left", "up", "right"], "actionTimes": [15809, 17053, 18207, 20050, 20966], "queries": {"click": {"state": {"target": ["23", "1", "12"], "time": [7665, 10426, 12349]}, "edge": {"target": [], "time": []}}, "mouseover": {"state": {"target": ["23", "0", "12", "12", "1", "12"], "time": [6384, 8783, 8849, 9337, 9515, 11782]}, "edge": {"target": [], "time": []}}, "mouseout": {"state": {"target": ["23", "0", "23", "0", "12", "12", "1", "12", "12"], "time": [2417, 6300, 8757, 8818, 9053, 9399, 11702, 12533, 13333]}, "edge": {"target": [], "time": []}}}, "displayed_time": "21.48", "trialTime": 26221, "trial_type": "mouselab-mdp", "trial_index": 5, "time_elapsed": 538248, "internal_node_id": "0.0-2.0-2.0-1.0"}}, {"uniqueid": "w88582211:a61689744", "current_trial": 6, "dateTime": 1691160254529, "trialdata": {"view_history": [{"page_index": 0, "viewing_time": 19215}, {"page_index": 1, "viewing_time": 16965}], "rt": 36182, "trial_id": "mouselab_instructions_2_misaligned", "trial_type": "instructions", "trial_index": 6, "time_elapsed": 574451, "internal_node_id": "0.0-2.0-3.0"}}, {"uniqueid": "w88582211:a61689744", "current_trial": 7, "dateTime": 1691160302724, "trialdata": {"rt": 48168, "response": {"Q0": "The cost for clicking on nodes may vary between nodes.", "Q1": "The better I perform the higher my bonus will be.", "Q2": "No, the amount of cash at each node of the web may be different each time.", "Q3": "To get the highest total score.", "Q4": "Only before moving the spider.", "Q5": "3 seconds"}, "question_order": [0, 1, 2, 3, 4, 5], "correct": {"Q0": "The cost for clicking on nodes may vary between nodes.", "Q1": "The better I perform the higher my bonus will be.", "Q2": "No, the amount of cash at each node of the web may be different each time.", "Q3": "To get the highest total score.", "Q4": "Only before moving the spider.", "Q5": "3 seconds"}, "trial_id": "mouselab_quiz_misaligned", "trial_type": "survey-multi-choice", "trial_index": 7, "time_elapsed": 622645, "internal_node_id": "0.0-2.0-4.0"}}, {"uniqueid": "w88582211:a61689744", "current_trial": 8, "dateTime": 1691160325620, "trialdata": {"rt": 22841, "stimulus": "\n<h1> Get ready to start the game! </h1>\n\nThank you for reading the instructions. Get ready start with the 40 rounds of this game.\n<br><br>\nIf you need to take a break, feel free to take one after the end of a round, before continuing to the next one.\n<br><br>\nRemember, the more money the spider gets, the bigger your bonus will be!\n<br><br>\n<div style='text-align: center;'>Press <code>space</code> to begin.</div>\n\n<br><br>\n(If, at any point, the <code>space</code> key does not take you to the next page, click once on the text and try again.)", "response": " ", "trial_id": "mdp_ready", "trial_type": "html-keyboard-response", "trial_index": 8, "time_elapsed": 645542, "internal_node_id": "0.0-4.0-0.0"}}, {"uniqueid": "w88582211:a61689744", "current_trial": 9, "dateTime": 1691160346910, "trialdata": {"revealed_states": [], "clicked_states": ["1"], "num_clicks_accrued": [0, 0, 0, 0, 0, 0, 0, 0, 0, 0, 0, 0, 0], "stateRewards": ["", 1, 1, -6, -2, 7, 77, 3, 16, -16, 66, 31, -1, 3, -8, -6, 33, -50, -48, 7, -60, -66, 36, 2, -3, 3, -7, -12, -61, -79, -4, 8, 74, -70], "withholdReward": false, "trial_id": "mdp_trial_1", "block": "test", "trialIndex": 2, "score": 71.25, "costs": 0.25, "simulationMode": [null, null, null, null, null], "rewards": [1, 1, -6, -2, 77], "path": ["0", "0", "1", "2", "3", "4", "6"], "rt": [4689, 876, 1044, 990, 164], "actions": ["up", "up", "up", "right", "right"], "actionTimes": [9035, 10432, 11999, 13495, 14184], "queries": {"click": {"state": {"target": ["1"], "time": [7019]}, "edge": {"target": [], "time": []}}, "mouseover": {"state": {"target": ["1"], "time": [6548]}, "edge": {"target": [], "time": []}}, "mouseout": {"state": {"target": ["12", "0", "1"], "time": [2202, 6319, 17264]}, "edge": {"target": [], "time": []}}}, "displayed_time": "18.36", "trialTime": 20650, "trial_type": "mouselab-mdp", "trial_index": 9, "time_elapsed": 666831, "internal_node_id": "0.0-4.0-1.0-0.0"}}, {"uniqueid": "w88582211:a61689744", "current_trial": 10, "dateTime": 1691160367587, "trialdata": {"revealed_states": [], "clicked_states": [], "num_clicks_accrued": [0, 0, 0, 0, 0, 0, 0, 0, 0, 0, 0, 0, 0], "stateRewards": ["", 2, 3, 6, -5, -74, -53, 17, -12, 46, 44, 18, -2, 4, 1, -8, 22, -23, -49, 9, -45, 55, 81, 1, -1, -7, -16, -83, -71, -45, 2, 51, 82, 61], "withholdReward": false, "trial_id": "mdp_trial_2", "block": "test", "trialIndex": 3, "score": -68, "costs": 0, "simulationMode": [null, null, null, null, null], "rewards": [1, -1, -7, -16, -45], "path": ["0", "0", "23", "24", "25", "26", "29"], "rt": [1357, 3611, 487, 2291, 649], "actions": ["left", "left", "left", "up", "left"], "actionTimes": [3796, 7922, 8920, 11732, 12905], "queries": {"click": {"state": {"target": [], "time": []}, "edge": {"target": [], "time": []}}, "mouseover": {"state": {"target": [], "time": []}, "edge": {"target": [], "time": []}}, "mouseout": {"state": {"target": ["1", "0", "23"], "time": [1368, 5991, 15486]}, "edge": {"target": [], "time": []}}}, "displayed_time": "16.44", "trialTime": 20034, "trial_type": "mouselab-mdp", "trial_index": 10, "time_elapsed": 687507, "internal_node_id": "0.0-4.0-1.0-1.0"}}, {"uniqueid": "w88582211:a61689744", "current_trial": 11, "dateTime": 1691160389559, "trialdata": {"revealed_states": [], "clicked_states": ["1"], "num_clicks_accrued": [0, 0, 0, 0, 0, 0, 0, 0, 0, 0, 0, 0, 0], "stateRewards": ["", -2, 2, -5, -6, 10, -66, -58, -10, -11, -63, -70, -1, -4, -5, 7, 66, -64, -43, -3, 45, -37, 4, -2, -2, -6, -4, -30, 33, 43, 15, -32, -65, -59], "withholdReward": false, "trial_id": "mdp_trial_3", "block": "test", "trialIndex": 4, "score": -84.75, "costs": 0.25, "simulationMode": [null, null, null, null, null], "rewards": [-2, 2, -5, -10, -70], "path": ["0", "0", "1", "2", "3", "8", "11"], "rt": [3691, 323, 370, 1790, 45], "actions": ["up", "up", "up", "left", "left"], "actionTimes": [6757, 7605, 8484, 10804, 11375], "queries": {"click": {"state": {"target": ["1"], "time": [5435]}, "edge": {"target": [], "time": []}}, "mouseover": {"state": {"target": ["1"], "time": [4998]}, "edge": {"target": [], "time": []}}, "mouseout": {"state": {"target": ["23", "0", "12", "0", "1"], "time": [1044, 1075, 1371, 4765, 12983]}, "edge": {"target": [], "time": []}}}, "displayed_time": "17.08", "trialTime": 21292, "trial_type": "mouselab-mdp", "trial_index": 11, "time_elapsed": 709479, "internal_node_id": "0.0-4.0-1.0-2.0"}}, {"uniqueid": "w88582211:a61689744", "current_trial": 12, "dateTime": 1691160408706, "trialdata": {"revealed_states": [], "clicked_states": [], "num_clicks_accrued": [0, 0, 0, 0, 0, 0, 0, 0, 0, 0, 0, 0, 0], "stateRewards": ["", -2, -4, 4, -11, -63, -60, -7, 2, -14, 81, -43, -1, -1, -5, 7, 10, 69, 40, 8, -83, 52, 60, 1, 2, 5, -5, 16, 64, 14, -3, 29, 7, -51], "withholdReward": false, "trial_id": "mdp_trial_4", "block": "test", "trialIndex": 5, "score": 61, "costs": 0, "simulationMode": [null, null, null, null, null], "rewards": [-1, -1, -5, 8, 60], "path": ["0", "0", "12", "13", "14", "19", "22"], "rt": [6391, 111, 94, 627, 636], "actions": ["right", "right", "right", "down", "left"], "actionTimes": [8815, 9450, 10065, 11215, 12372], "queries": {"click": {"state": {"target": [], "time": []}, "edge": {"target": [], "time": []}}, "mouseover": {"state": {"target": ["12"], "time": [5536]}, "edge": {"target": [], "time": []}}, "mouseout": {"state": {"target": ["1", "12"], "time": [1427, 13823]}, "edge": {"target": [], "time": []}}}, "displayed_time": "16.43", "trialTime": 18352, "trial_type": "mouselab-mdp", "trial_index": 12, "time_elapsed": 728626, "internal_node_id": "0.0-4.0-1.0-3.0"}}, {"uniqueid": "w88582211:a61689744", "current_trial": 13, "dateTime": 1691160430556, "trialdata": {"revealed_states": [], "clicked_states": ["1"], "num_clicks_accrued": [0, 0, 0, 0, 0, 0, 0, 0, 0, 0, 0, 0, 0], "stateRewards": ["", 2, -1, 1, 10, -52, 86, -22, -2, -14, -63, 38, 1, 3, 7, -8, 11, -32, -27, 9, -71, 40, -87, -2, -1, 5, -7, 12, 31, -57, 13, 86, -58, 29], "withholdReward": false, "trial_id": "mdp_trial_5", "block": "test", "trialIndex": 6, "score": -62.75, "costs": 0.25, "simulationMode": [null, null, null, null, null], "rewards": [2, -1, 1, -2, -63], "path": ["0", "0", "1", "2", "3", "8", "10"], "rt": [3915, 4, 541, 817, 501], "actions": ["up", "up", "up", "left", "down"], "actionTimes": [7141, 7643, 8712, 10056, 11109], "queries": {"click": {"state": {"target": ["1"], "time": [5810]}, "edge": {"target": [], "time": []}}, "mouseover": {"state": {"target": ["0", "1", "1", "13"], "time": [3311, 5155, 5535, 6606]}, "edge": {"target": [], "time": []}}, "mouseout": {"state": {"target": ["12", "0", "1", "1"], "time": [2252, 5103, 5224, 6010]}, "edge": {"target": [], "time": []}}}, "displayed_time": "17.23", "trialTime": 21027, "trial_type": "mouselab-mdp", "trial_index": 13, "time_elapsed": 750476, "internal_node_id": "0.0-4.0-1.0-4.0"}}, {"uniqueid": "w88582211:a61689744", "current_trial": 14, "dateTime": 1691160454277, "trialdata": {"revealed_states": [], "clicked_states": [], "num_clicks_accrued": [0, 0, 0, 0, 0, 0, 0, 0, 0, 0, 0, 0, 0], "stateRewards": ["", -2, 2, -2, -7, -50, -62, -45, 7, 36, -24, -72, -1, -1, 8, -1, -67, 20, -52, 2, 35, -50, 80, -1, 1, 6, -6, -70, 6, 88, 8, -47, 74, -19], "withholdReward": false, "trial_id": "mdp_trial_6", "block": "test", "trialIndex": 7, "score": -5, "costs": 0, "simulationMode": [null, null, null, null, null], "rewards": [-1, 1, 6, 8, -19], "path": ["0", "0", "23", "24", "25", "30", "33"], "rt": [8107, 231, 124, 541, 697], "actions": ["left", "left", "left", "down", "left"], "actionTimes": [14592, 15350, 15993, 17059, 18282], "queries": {"click": {"state": {"target": [], "time": []}, "edge": {"target": [], "time": []}}, "mouseover": {"state": {"target": ["1", "18", "13", "12", "23", "1", "2", "1", "12", "23"], "time": [7703, 7867, 8000, 8350, 8784, 9951, 10018, 10421, 10984, 12396]}, "edge": {"target": [], "time": []}}, "mouseout": {"state": {"target": ["12", "0", "0", "1", "18", "13", "12", "23", "1", "2", "1", "12", "23"], "time": [5293, 5528, 5666, 7733, 7886, 8167, 8483, 9181, 10000, 10397, 10498, 11987, 19643]}, "edge": {"target": [], "time": []}}}, "displayed_time": "20.49", "trialTime": 22867, "trial_type": "mouselab-mdp", "trial_index": 14, "time_elapsed": 774197, "internal_node_id": "0.0-4.0-1.0-5.0"}}, {"uniqueid": "w88582211:a61689744", "current_trial": 15, "dateTime": 1691160475471, "trialdata": {"revealed_states": [], "clicked_states": ["12"], "num_clicks_accrued": [0, 0, 0, 0, 0, 0, 0, 0, 0, 0, 0, 0, 0], "stateRewards": ["", -2, 4, -7, -3, -76, 39, -28, 10, 14, 12, 60, 2, -3, 6, -10, 88, -34, -41, -3, 72, -13, -56, 1, 3, 2, 8, -51, 23, -57, 1, 14, -46, -16], "withholdReward": false, "trial_id": "mdp_trial_7", "block": "test", "trialIndex": 8, "score": 83.25, "costs": 0.25, "simulationMode": [null, null, null, null, null], "rewards": [2, -3, 6, -10, 88], "path": ["0", "0", "12", "13", "14", "15", "16"], "rt": [3243, 307, 892, 607, 493], "actions": ["right", "right", "right", "up", "up"], "actionTimes": [6326, 7157, 8574, 9690, 10708], "queries": {"click": {"state": {"target": ["12"], "time": [5404]}, "edge": {"target": [], "time": []}}, "mouseover": {"state": {"target": ["12", "12"], "time": [4563, 4991]}, "edge": {"target": [], "time": []}}, "mouseout": {"state": {"target": ["23", "12", "12", "12", "12"], "time": [922, 1266, 4720, 5593, 14038]}, "edge": {"target": [], "time": []}}}, "displayed_time": "17.09", "trialTime": 20214, "trial_type": "mouselab-mdp", "trial_index": 15, "time_elapsed": 795391, "internal_node_id": "0.0-4.0-1.0-6.0"}}, {"uniqueid": "w88582211:a61689744", "current_trial": 16, "dateTime": 1691160498633, "trialdata": {"revealed_states": [], "clicked_states": ["1"], "num_clicks_accrued": [0, 0, 0, 0, 0, 0, 0, 0, 0, 0, 0, 0, 0], "stateRewards": ["", 2, 3, 8, 11, 25, -80, 6, -4, -56, 84, -23, -2, -4, -3, 4, -51, -9, -61, -15, -64, 67, -35, 1, -1, -7, -6, 83, 59, -15, 12, -79, 56, 41], "withholdReward": false, "trial_id": "mdp_trial_8", "block": "test", "trialIndex": 9, "score": -46.75, "costs": 0.25, "simulationMode": [null, null, null, null, null], "rewards": [2, 3, 8, -4, -56], "path": ["0", "0", "1", "2", "3", "8", "9"], "rt": [2796, 75, 203, 1570, 506], "actions": ["up", "up", "up", "left", "up"], "actionTimes": [5059, 5660, 6387, 8473, 9490], "queries": {"click": {"state": {"target": ["1"], "time": [3912]}, "edge": {"target": [], "time": []}}, "mouseover": {"state": {"target": ["1"], "time": [3461]}, "edge": {"target": [], "time": []}}, "mouseout": {"state": {"target": ["12", "0", "1"], "time": [1159, 2441, 10279]}, "edge": {"target": [], "time": []}}}, "displayed_time": "16.27", "trialTime": 22254, "trial_type": "mouselab-mdp", "trial_index": 16, "time_elapsed": 818553, "internal_node_id": "0.0-4.0-1.0-7.0"}}, {"uniqueid": "w88582211:a61689744", "current_trial": 17, "dateTime": 1691160519953, "trialdata": {"revealed_states": [], "clicked_states": [], "num_clicks_accrued": [0, 0, 0, 0, 0, 0, 0, 0, 0, 0, 0, 0, 0], "stateRewards": ["", 2, -1, 5, 6, 10, 86, 55, 10, -45, 63, -71, 1, -2, 5, -8, -50, -72, 36, 15, 61, 12, 33, -1, -4, 6, 5, 79, -56, -21, -16, -87, 60, -81], "withholdReward": false, "trial_id": "mdp_trial_9", "block": "test", "trialIndex": 10, "score": 79, "costs": 0, "simulationMode": [null, null, null, null, null], "rewards": [2, -1, 5, 10, 63], "path": ["0", "0", "1", "2", "3", "8", "10"], "rt": [3453, 37, 64, 386, 1148], "actions": ["up", "up", "up", "left", "down"], "actionTimes": [5912, 6466, 7061, 7982, 9653], "queries": {"click": {"state": {"target": [], "time": []}, "edge": {"target": [], "time": []}}, "mouseover": {"state": {"target": [], "time": []}, "edge": {"target": [], "time": []}}, "mouseout": {"state": {"target": ["1", "0"], "time": [1205, 11322]}, "edge": {"target": [], "time": []}}}, "displayed_time": "16.47", "trialTime": 20427, "trial_type": "mouselab-mdp", "trial_index": 17, "time_elapsed": 839873, "internal_node_id": "0.0-4.0-1.0-8.0"}}, {"uniqueid": "w88582211:a61689744", "current_trial": 18, "dateTime": 1691160540300, "trialdata": {"revealed_states": [], "clicked_states": ["12"], "num_clicks_accrued": [0, 0, 0, 0, 0, 0, 0, 0, 0, 0, 0, 0, 0], "stateRewards": ["", -1, -4, -6, -15, 21, -67, -63, 9, 51, 69, -14, -1, 3, 8, -8, 39, 72, 63, 15, 19, 47, 15, 1, 4, 5, 16, -18, 34, 35, -14, -80, 40, 1], "withholdReward": false, "trial_id": "mdp_trial_10", "block": "test", "trialIndex": 11, "score": 41.25, "costs": 0.25, "simulationMode": [null, null, null, null, null], "rewards": [-1, 3, 8, -8, 39], "path": ["0", "0", "12", "13", "14", "15", "16"], "rt": [3117, 391, 394, 364, 9], "actions": ["right", "right", "right", "up", "up"], "actionTimes": [4661, 5575, 6512, 7397, 7925], "queries": {"click": {"state": {"target": ["12"], "time": [3650]}, "edge": {"target": [], "time": []}}, "mouseover": {"state": {"target": ["12"], "time": [3347]}, "edge": {"target": [], "time": []}}, "mouseout": {"state": {"target": ["0", "12"], "time": [3282, 9629]}, "edge": {"target": [], "time": []}}}, "displayed_time": "15.55", "trialTime": 19352, "trial_type": "mouselab-mdp", "trial_index": 18, "time_elapsed": 860220, "internal_node_id": "0.0-4.0-1.0-9.0"}}, {"uniqueid": "w88582211:a61689744", "current_trial": 19, "dateTime": 1691160560554, "trialdata": {"revealed_states": [], "clicked_states": [], "num_clicks_accrued": [0, 0, 0, 0, 0, 0, 0, 0, 0, 0, 0, 0, 0], "stateRewards": ["", -2, 3, -1, 2, -72, 63, 20, -1, 62, -66, 39, -2, 3, -6, 14, 22, 47, 1, 8, -49, -1, -41, 2, 2, -6, -16, -64, -60, -34, 16, 54, 22, -7], "withholdReward": false, "trial_id": "mdp_trial_11", "block": "test", "trialIndex": 12, "score": 31, "costs": 0, "simulationMode": [null, null, null, null, null], "rewards": [-2, 3, -6, 14, 22], "path": ["0", "0", "12", "13", "14", "15", "16"], "rt": [5716, 165, 3585, 663, 1312], "actions": ["right", "right", "right", "up", "up"], "actionTimes": [8289, 8976, 13078, 14256, 16153], "queries": {"click": {"state": {"target": [], "time": []}, "edge": {"target": [], "time": []}}, "mouseover": {"state": {"target": ["12"], "time": [4154]}, "edge": {"target": [], "time": []}}, "mouseout": {"state": {"target": ["12", "0", "12"], "time": [1573, 3878, 18344]}, "edge": {"target": [], "time": []}}}, "displayed_time": "16.66", "trialTime": 19256, "trial_type": "mouselab-mdp", "trial_index": 19, "time_elapsed": 880473, "internal_node_id": "0.0-4.0-1.0-10.0"}}, {"uniqueid": "w88582211:a61689744", "current_trial": 20, "dateTime": 1691160595149, "trialdata": {"revealed_states": [], "clicked_states": ["23"], "num_clicks_accrued": [0, 0, 0, 0, 0, 0, 0, 0, 0, 0, 0, 0, 0], "stateRewards": ["", 2, -1, -2, -5, -47, -57, -33, -11, 31, -18, -72, -2, 1, -4, -8, -46, -53, -50, 15, -85, -9, 39, -2, -2, 1, 14, -1, -8, 53, -12, -41, -74, 62], "withholdReward": false, "trial_id": "mdp_trial_12", "block": "test", "trialIndex": 13, "score": -55.75, "costs": 0.25, "simulationMode": [null, null, null, null, null], "rewards": [-2, -2, 1, -12, -41], "path": ["0", "0", "23", "24", "25", "30", "31"], "rt": [2996, 241, 332, 882, 310], "actions": ["left", "left", "left", "down", "right"], "actionTimes": [7184, 7968, 8809, 10223, 11051], "queries": {"click": {"state": {"target": ["23"], "time": [6138]}, "edge": {"target": [], "time": []}}, "mouseover": {"state": {"target": ["23"], "time": [5793]}, "edge": {"target": [], "time": []}}, "mouseout": {"state": {"target": ["12", "23"], "time": [2987, 14600]}, "edge": {"target": [], "time": []}}}, "displayed_time": "18.21", "trialTime": 33158, "trial_type": "mouselab-mdp", "trial_index": 20, "time_elapsed": 915069, "internal_node_id": "0.0-4.0-1.0-11.0"}}, {"uniqueid": "w88582211:a61689744", "current_trial": 21, "dateTime": 1691160616309, "trialdata": {"revealed_states": [], "clicked_states": ["1"], "num_clicks_accrued": [0, 0, 0, 0, 0, 0, 0, 0, 0, 0, 0, 0, 0], "stateRewards": ["", -1, 1, -5, -6, -78, 47, -13, 12, 48, -88, 20, 2, -3, -2, 13, -20, 37, -57, 14, -38, 30, 31, -2, -2, 8, 2, -23, 78, 28, 12, -74, -88, 8], "withholdReward": false, "trial_id": "mdp_trial_13", "block": "test", "trialIndex": 14, "score": 36.25, "costs": 0.25, "simulationMode": [null, null, null, null, null], "rewards": [-1, 1, -5, -6, 47], "path": ["0", "0", "1", "2", "3", "4", "6"], "rt": [2699, 66, 380, 324, 132], "actions": ["up", "up", "up", "right", "right"], "actionTimes": [4408, 5006, 5920, 6763, 7475], "queries": {"click": {"state": {"target": ["1"], "time": [3561]}, "edge": {"target": [], "time": []}}, "mouseover": {"state": {"target": ["1"], "time": [2631]}, "edge": {"target": [], "time": []}}, "mouseout": {"state": {"target": ["0", "1"], "time": [2290, 8918]}, "edge": {"target": [], "time": []}}}, "displayed_time": "15.71", "trialTime": 20043, "trial_type": "mouselab-mdp", "trial_index": 21, "time_elapsed": 936229, "internal_node_id": "0.0-4.0-1.0-12.0"}}, {"uniqueid": "w88582211:a61689744", "current_trial": 22, "dateTime": 1691160640242, "trialdata": {"revealed_states": [], "clicked_states": ["23"], "num_clicks_accrued": [0, 0, 0, 0, 0, 0, 0, 0, 0, 0, 0, 0, 0], "stateRewards": ["", -2, -4, 6, 14, -34, 49, 36, -8, -3, 32, -4, 1, -2, 1, -8, -20, -71, -57, -7, -86, -62, -16, -2, -3, -5, 11, 23, -21, 53, 5, -5, 85, 73], "withholdReward": false, "trial_id": "mdp_trial_14", "block": "test", "trialIndex": 15, "score": -9.75, "costs": 0.25, "simulationMode": [null, null, null, null, null], "rewards": [-2, -3, -5, 5, -5], "path": ["0", "0", "23", "24", "25", "30", "31"], "rt": [2601, 93, 165, 1154, 243], "actions": ["left", "left", "left", "down", "right"], "actionTimes": [5241, 5851, 6567, 8246, 9015], "queries": {"click": {"state": {"target": ["23"], "time": [4204]}, "edge": {"target": [], "time": []}}, "mouseover": {"state": {"target": ["23"], "time": [3787]}, "edge": {"target": [], "time": []}}, "mouseout": {"state": {"target": ["5", "1", "0", "23"], "time": [1006, 1318, 3678, 12020]}, "edge": {"target": [], "time": []}}}, "displayed_time": "16.65", "trialTime": 22366, "trial_type": "mouselab-mdp", "trial_index": 22, "time_elapsed": 960161, "internal_node_id": "0.0-4.0-1.0-13.0"}}, {"uniqueid": "w88582211:a61689744", "current_trial": 23, "dateTime": 1691160667210, "trialdata": {"revealed_states": [], "clicked_states": ["1"], "num_clicks_accrued": [0, 0, 0, 0, 0, 0, 0, 0, 0, 0, 0, 0, 0], "stateRewards": ["", -1, -4, -1, -5, -28, -23, -15, -15, -38, 59, -87, 2, 2, -5, 9, -55, -39, -71, -6, 85, -85, -11, -1, -2, 5, -10, 1, 25, 41, -4, 69, -35, 86], "withholdReward": false, "trial_id": "mdp_trial_15", "block": "test", "trialIndex": 16, "score": -58.75, "costs": 0.25, "simulationMode": [null, null, null, null, null], "rewards": [-1, -4, -1, -15, -38], "path": ["0", "0", "1", "2", "3", "8", "9"], "rt": [3611, 167, 235, 232, 208], "actions": ["up", "up", "up", "left", "up"], "actionTimes": [13643, 14324, 15073, 15830, 16554], "queries": {"click": {"state": {"target": ["1"], "time": [12564]}, "edge": {"target": [], "time": []}}, "mouseover": {"state": {"target": ["1"], "time": [12091]}, "edge": {"target": [], "time": []}}, "mouseout": {"state": {"target": ["23", "1"], "time": [8467, 18462]}, "edge": {"target": [], "time": []}}}, "displayed_time": "24.03", "trialTime": 25809, "trial_type": "mouselab-mdp", "trial_index": 23, "time_elapsed": 987129, "internal_node_id": "0.0-4.0-1.0-14.0"}}, {"uniqueid": "w88582211:a61689744", "current_trial": 24, "dateTime": 1691160687381, "trialdata": {"revealed_states": [], "clicked_states": ["12"], "num_clicks_accrued": [0, 0, 0, 0, 0, 0, 0, 0, 0, 0, 0, 0, 0], "stateRewards": ["", -1, -1, 4, -16, -75, 81, -51, -7, -84, 73, -30, -2, 1, -3, -16, -77, 33, 14, 1, 45, 87, -66, 2, 2, -5, -7, -19, -17, 79, -3, 8, 49, 47], "withholdReward": false, "trial_id": "mdp_trial_16", "block": "test", "trialIndex": 17, "score": -5.75, "costs": 0.25, "simulationMode": [null, null, null, null, null], "rewards": [-2, 1, -3, -16, 14], "path": ["0", "0", "12", "13", "14", "15", "18"], "rt": [2206, 523, 38, 810, 675], "actions": ["right", "right", "right", "up", "left"], "actionTimes": [4323, 5380, 5943, 7266, 8476], "queries": {"click": {"state": {"target": ["12"], "time": [3335]}, "edge": {"target": [], "time": []}}, "mouseover": {"state": {"target": ["12"], "time": [2988]}, "edge": {"target": [], "time": []}}, "mouseout": {"state": {"target": ["1", "12", "12"], "time": [894, 17891, 18516]}, "edge": {"target": [], "time": []}}}, "displayed_time": "16.13", "trialTime": 18896, "trial_type": "mouselab-mdp", "trial_index": 24, "time_elapsed": 1007302, "internal_node_id": "0.0-4.0-1.0-15.0"}}, {"uniqueid": "w88582211:a61689744", "current_trial": 25, "dateTime": 1691160718396, "trialdata": {"revealed_states": [], "clicked_states": ["23"], "num_clicks_accrued": [0, 0, 0, 0, 0, 0, 0, 0, 0, 0, 0, 0, 0], "stateRewards": ["", 1, 4, -8, -5, -15, -7, 21, 13, -30, 40, -65, 1, 1, 5, -14, 35, 27, -38, -11, 36, -58, -47, -2, 4, -3, 13, -16, -49, 22, 15, -56, -44, -10], "withholdReward": false, "trial_id": "mdp_trial_17", "block": "test", "trialIndex": 18, "score": -36.75, "costs": 0.25, "simulationMode": [null, null, null, null, null], "rewards": [-2, 4, -3, 13, -49], "path": ["0", "0", "23", "24", "25", "26", "28"], "rt": [2841, 205, 996, 444, 23], "actions": ["left", "left", "left", "up", "right"], "actionTimes": [16276, 17025, 18573, 19554, 20098], "queries": {"click": {"state": {"target": ["23"], "time": [15511]}, "edge": {"target": [], "time": []}}, "mouseover": {"state": {"target": ["1", "2", "1", "23"], "time": [14441, 14540, 14920, 15093]}, "edge": {"target": [], "time": []}}, "mouseout": {"state": {"target": ["0", "1", "2", "1", "23"], "time": [14222, 14510, 14894, 14955, 21837]}, "edge": {"target": [], "time": []}}}, "displayed_time": "27.44", "trialTime": 29941, "trial_type": "mouselab-mdp", "trial_index": 25, "time_elapsed": 1038316, "internal_node_id": "0.0-4.0-1.0-16.0"}}, {"uniqueid": "w88582211:a61689744", "current_trial": 26, "dateTime": 1691160743396, "trialdata": {"revealed_states": [], "clicked_states": ["1"], "num_clicks_accrued": [0, 0, 0, 0, 0, 0, 0, 0, 0, 0, 0, 0, 0], "stateRewards": ["", 2, 3, -3, 4, 72, -28, 34, -12, 57, -64, -15, 2, 1, -4, -15, 2, 49, 31, -1, -42, -58, 31, -2, 1, -2, -13, -75, -19, -22, -6, 61, 10, -56], "withholdReward": false, "trial_id": "mdp_trial_18", "block": "test", "trialIndex": 19, "score": 40.25, "costs": 0.25, "simulationMode": [null, null, null, null, null], "rewards": [2, 3, -3, 4, 34], "path": ["0", "0", "1", "2", "3", "4", "7"], "rt": [3310, 435, 200, 368, 548], "actions": ["up", "up", "up", "right", "down"], "actionTimes": [5707, 6680, 7394, 8278, 9342], "queries": {"click": {"state": {"target": ["1"], "time": [4630]}, "edge": {"target": [], "time": []}}, "mouseover": {"state": {"target": ["1"], "time": [3866]}, "edge": {"target": [], "time": []}}, "mouseout": {"state": {"target": ["23", "1"], "time": [898, 4808]}, "edge": {"target": [], "time": []}}}, "displayed_time": "16.41", "trialTime": 23795, "trial_type": "mouselab-mdp", "trial_index": 26, "time_elapsed": 1063317, "internal_node_id": "0.0-4.0-1.0-17.0"}}, {"uniqueid": "w88582211:a61689744", "current_trial": 27, "dateTime": 1691160778371, "trialdata": {"revealed_states": [], "clicked_states": ["12"], "num_clicks_accrued": [0, 0, 0, 0, 0, 0, 0, 0, 0, 0, 0, 0, 0], "stateRewards": ["", -1, 3, 2, 9, 41, 4, -46, -12, -54, -87, -25, 2, 3, -1, 11, -77, 12, -33, -9, -32, 35, 72, 1, 3, -7, 4, 37, 65, -73, 6, 77, -43, 8], "withholdReward": false, "trial_id": "mdp_trial_19", "block": "test", "trialIndex": 20, "score": -17.75, "costs": 0.25, "simulationMode": [null, null, null, null, null], "rewards": [2, 3, -1, 11, -33], "path": ["0", "0", "12", "13", "14", "15", "18"], "rt": [4034, 113, 393, 377, 317], "actions": ["right", "right", "right", "up", "left"], "actionTimes": [6140, 6776, 7689, 8589, 9430], "queries": {"click": {"state": {"target": ["12"], "time": [5029]}, "edge": {"target": [], "time": []}}, "mouseover": {"state": {"target": ["0", "12"], "time": [3134, 3546]}, "edge": {"target": [], "time": []}}, "mouseout": {"state": {"target": ["1", "0", "12"], "time": [818, 3172, 5211]}, "edge": {"target": [], "time": []}}}, "displayed_time": "16.11", "trialTime": 33799, "trial_type": "mouselab-mdp", "trial_index": 27, "time_elapsed": 1098292, "internal_node_id": "0.0-4.0-1.0-18.0"}}, {"uniqueid": "w88582211:a61689744", "current_trial": 28, "dateTime": 1691160797088, "trialdata": {"revealed_states": [], "clicked_states": ["1"], "num_clicks_accrued": [0, 0, 0, 0, 0, 0, 0, 0, 0, 0, 0, 0, 0], "stateRewards": ["", 1, 4, 5, -5, 58, -80, 75, 6, 25, -39, 46, 2, -2, 4, 2, 59, 31, -22, -12, -61, 15, 72, 1, -2, -7, 8, 77, 76, -23, -7, 71, -15, -3], "withholdReward": false, "trial_id": "mdp_trial_20", "block": "test", "trialIndex": 21, "score": 80.25, "costs": 0.25, "simulationMode": [null, null, null, null, null], "rewards": [1, 4, 5, -5, 75], "path": ["0", "0", "1", "2", "3", "4", "7"], "rt": [6855, 305, 247, 357, 474], "actions": ["up", "up", "up", "right", "down"], "actionTimes": [8932, 9741, 10523, 11406, 12453], "queries": {"click": {"state": {"target": ["1"], "time": [4678]}, "edge": {"target": [], "time": []}}, "mouseover": {"state": {"target": ["1"], "time": [4350]}, "edge": {"target": [], "time": []}}, "mouseout": {"state": {"target": ["12", "1"], "time": [936, 15037]}, "edge": {"target": [], "time": []}}}, "displayed_time": "16.08", "trialTime": 17515, "trial_type": "mouselab-mdp", "trial_index": 28, "time_elapsed": 1117008, "internal_node_id": "0.0-4.0-1.0-19.0"}}, {"uniqueid": "w88582211:a61689744", "current_trial": 29, "dateTime": 1691160820683, "trialdata": {"revealed_states": [], "clicked_states": ["1"], "num_clicks_accrued": [0, 0, 0, 0, 0, 0, 0, 0, 0, 0, 0, 0, 0], "stateRewards": ["", 1, -3, -4, -11, -56, 61, -47, -16, -28, -9, 69, -2, -3, -4, -8, 40, -86, 59, -4, 80, 27, 54, -1, 3, -1, 8, 67, 23, 50, 6, 83, -43, -29], "withholdReward": false, "trial_id": "mdp_trial_21", "block": "test", "trialIndex": 22, "score": -30.75, "costs": 0.25, "simulationMode": [null, null, null, null, null], "rewards": [1, -3, -4, -16, -9], "path": ["0", "0", "1", "2", "3", "8", "10"], "rt": [3404, 571, 209, 284, 376], "actions": ["up", "up", "up", "left", "down"], "actionTimes": [9126, 10190, 10926, 11718, 12609], "queries": {"click": {"state": {"target": ["1"], "time": [8330]}, "edge": {"target": [], "time": []}}, "mouseover": {"state": {"target": ["1", "2", "1"], "time": [7567, 7830, 7897]}, "edge": {"target": [], "time": []}}, "mouseout": {"state": {"target": ["1", "0", "1", "2", "1", "0"], "time": [4351, 7542, 7588, 7848, 21322, 21795]}, "edge": {"target": [], "time": []}}}, "displayed_time": "19.73", "trialTime": 22218, "trial_type": "mouselab-mdp", "trial_index": 29, "time_elapsed": 1140604, "internal_node_id": "0.0-4.0-1.0-20.0"}}, {"uniqueid": "w88582211:a61689744", "current_trial": 30, "dateTime": 1691160847095, "trialdata": {"revealed_states": [], "clicked_states": [], "num_clicks_accrued": [0, 0, 0, 0, 0, 0, 0, 0, 0, 0, 0, 0, 0], "stateRewards": ["", 1, -4, -4, 8, 1, -79, 68, -10, -79, 8, -74, -1, -3, -6, 14, 43, 23, 9, 5, -51, 63, 61, -2, 4, 6, -10, 69, -32, 57, 15, -80, -80, -77], "withholdReward": false, "trial_id": "mdp_trial_22", "block": "test", "trialIndex": 23, "score": -57, "costs": 0, "simulationMode": [null, null, null, null, null], "rewards": [-2, 4, 6, 15, -80], "path": ["0", "0", "23", "24", "25", "30", "32"], "rt": [5315, 167, 442, 215, 218], "actions": ["left", "left", "left", "down", "down"], "actionTimes": [13457, 14137, 15078, 15817, 16538], "queries": {"click": {"state": {"target": [], "time": []}, "edge": {"target": [], "time": []}}, "mouseover": {"state": {"target": ["1", "0", "23"], "time": [9102, 10466, 10616]}, "edge": {"target": [], "time": []}}, "mouseout": {"state": {"target": ["0", "1", "0", "23"], "time": [8798, 10337, 10533, 18062]}, "edge": {"target": [], "time": []}}}, "displayed_time": "22.15", "trialTime": 25191, "trial_type": "mouselab-mdp", "trial_index": 30, "time_elapsed": 1167015, "internal_node_id": "0.0-4.0-1.0-21.0"}}, {"uniqueid": "w88582211:a61689744", "current_trial": 31, "dateTime": 1691160889227, "trialdata": {"revealed_states": [], "clicked_states": ["1"], "num_clicks_accrued": [0, 0, 0, 0, 0, 0, 0, 0, 0, 0, 0, 0, 0], "stateRewards": ["", 1, 1, -2, 7, -31, -6, 76, 1, -36, -16, -53, 2, 1, 7, 13, -47, -10, 47, -7, 72, 46, -56, -2, -2, -2, 11, -80, 44, 38, 16, 67, 85, -78], "withholdReward": false, "trial_id": "mdp_trial_23", "block": "test", "trialIndex": 24, "score": 83.25, "costs": 0.25, "simulationMode": [null, null, null, null, null], "rewards": [1, 1, -2, 7, 76], "path": ["0", "0", "1", "2", "3", "4", "7"], "rt": [2336, 361, 89, 53, 214], "actions": ["up", "up", "up", "right", "down"], "actionTimes": [4422, 5318, 5927, 6505, 7231], "queries": {"click": {"state": {"target": ["1"], "time": [3680]}, "edge": {"target": [], "time": []}}, "mouseover": {"state": {"target": ["1"], "time": [3219]}, "edge": {"target": [], "time": []}}, "mouseout": {"state": {"target": ["23", "1"], "time": [807, 9347]}, "edge": {"target": [], "time": []}}}, "displayed_time": "16.09", "trialTime": 40881, "trial_type": "mouselab-mdp", "trial_index": 31, "time_elapsed": 1209147, "internal_node_id": "0.0-4.0-1.0-22.0"}}, {"uniqueid": "w88582211:a61689744", "current_trial": 32, "dateTime": 1691160917774, "trialdata": {"revealed_states": [], "clicked_states": ["1"], "num_clicks_accrued": [0, 0, 0, 0, 0, 0, 0, 0, 0, 0, 0, 0, 0], "stateRewards": ["", 1, 3, 1, -13, 52, -28, 67, -14, 3, 63, -70, -1, -4, 7, -11, -10, 47, -18, 6, 69, -9, -61, 2, 3, -6, 10, 63, -34, 40, -6, -79, -35, -32], "withholdReward": false, "trial_id": "mdp_trial_24", "block": "test", "trialIndex": 25, "score": 59.25, "costs": 0.25, "simulationMode": [null, null, null, null, null], "rewards": [1, 3, 1, -13, 67], "path": ["0", "0", "1", "2", "3", "4", "7"], "rt": [2310, 91, 180, 38, 1086], "actions": ["up", "up", "up", "right", "down"], "actionTimes": [4186, 4804, 5491, 6048, 7654], "queries": {"click": {"state": {"target": ["1"], "time": [3428]}, "edge": {"target": [], "time": []}}, "mouseover": {"state": {"target": ["1"], "time": [3039]}, "edge": {"target": [], "time": []}}, "mouseout": {"state": {"target": ["1"], "time": [12899]}, "edge": {"target": [], "time": []}}}, "displayed_time": "15.88", "trialTime": 27218, "trial_type": "mouselab-mdp", "trial_index": 32, "time_elapsed": 1237693, "internal_node_id": "0.0-4.0-1.0-23.0"}}, {"uniqueid": "w88582211:a61689744", "current_trial": 33, "dateTime": 1691160982538, "trialdata": {"revealed_states": [], "clicked_states": [], "num_clicks_accrued": [0, 0, 0, 0, 0, 0, 0, 0, 0, 0, 0, 0, 0], "stateRewards": ["", 1, 1, 6, -14, -40, 37, 16, -13, 33, -68, 49, 2, 4, 3, 6, 55, 27, 32, 10, -65, 20, -87, 2, 1, -6, -5, -42, 12, 29, -8, 16, 76, -33], "withholdReward": false, "trial_id": "mdp_trial_25", "block": "test", "trialIndex": 26, "score": 10, "costs": 0, "simulationMode": [null, null, null, null, null], "rewards": [1, 1, 6, -14, 16], "path": ["0", "0", "1", "2", "3", "4", "7"], "rt": [4240, 612, 201, 125, 231], "actions": ["up", "up", "up", "right", "down"], "actionTimes": [6983, 8111, 8826, 9458, 10199], "queries": {"click": {"state": {"target": [], "time": []}, "edge": {"target": [], "time": []}}, "mouseover": {"state": {"target": [], "time": []}, "edge": {"target": [], "time": []}}, "mouseout": {"state": {"target": ["1", "0"], "time": [1136, 11973]}, "edge": {"target": [], "time": []}}}, "displayed_time": "16.75", "trialTime": 63418, "trial_type": "mouselab-mdp", "trial_index": 33, "time_elapsed": 1302458, "internal_node_id": "0.0-4.0-1.0-24.0"}}, {"uniqueid": "w88582211:a61689744", "current_trial": 34, "dateTime": 1691161022359, "trialdata": {"revealed_states": [], "clicked_states": [], "num_clicks_accrued": [0, 0, 0, 0, 0, 0, 0, 0, 0, 0, 0, 0, 0], "stateRewards": ["", 1, -3, -2, 14, 49, -40, -39, 2, 26, -61, 73, 1, -4, -8, 12, 79, 29, -65, -13, 55, -26, 27, -1, 3, 3, 9, -17, -60, -18, -8, 35, -88, 69], "withholdReward": false, "trial_id": "mdp_trial_26", "block": "test", "trialIndex": 27, "score": -29, "costs": 0, "simulationMode": [null, null, null, null, null], "rewards": [1, -3, -2, 14, -39], "path": ["0", "0", "1", "2", "3", "4", "7"], "rt": [1623, 425, 585, 163, 197], "actions": ["up", "up", "up", "right", "down"], "actionTimes": [24841, 25772, 26864, 27527, 28226], "queries": {"click": {"state": {"target": [], "time": []}, "edge": {"target": [], "time": []}}, "mouseover": {"state": {"target": ["1"], "time": [24044]}, "edge": {"target": [], "time": []}}, "mouseout": {"state": {"target": ["0", "1"], "time": [22437, 30548]}, "edge": {"target": [], "time": []}}}, "displayed_time": "37.22", "trialTime": 38581, "trial_type": "mouselab-mdp", "trial_index": 34, "time_elapsed": 1342279, "internal_node_id": "0.0-4.0-1.0-25.0"}}, {"uniqueid": "w88582211:a61689744", "current_trial": 35, "dateTime": 1691161060329, "trialdata": {"revealed_states": [], "clicked_states": [], "num_clicks_accrued": [0, 0, 0, 0, 0, 0, 0, 0, 0, 0, 0, 0, 0], "stateRewards": ["", -2, -1, -5, 10, -36, -70, 68, -9, 86, 71, -10, 2, -4, 7, -7, 66, 44, -66, -13, -69, 43, 15, -2, 2, 6, -13, 62, 57, 50, -10, -69, 42, -72], "withholdReward": false, "trial_id": "mdp_trial_27", "block": "test", "trialIndex": 28, "score": -73, "costs": 0, "simulationMode": [null, null, null, null, null], "rewards": [-2, 2, 6, -10, -69], "path": ["0", "0", "23", "24", "25", "30", "31"], "rt": [1291, 617, 374, 410, 176], "actions": ["left", "left", "left", "down", "right"], "actionTimes": [4277, 5418, 6359, 7277, 7960], "queries": {"click": {"state": {"target": [], "time": []}, "edge": {"target": [], "time": []}}, "mouseover": {"state": {"target": [], "time": []}, "edge": {"target": [], "time": []}}, "mouseout": {"state": {"target": ["1"], "time": [1769]}, "edge": {"target": [], "time": []}}}, "displayed_time": "17.00", "trialTime": 36645, "trial_type": "mouselab-mdp", "trial_index": 35, "time_elapsed": 1380249, "internal_node_id": "0.0-4.0-1.0-26.0"}}, {"uniqueid": "w88582211:a61689744", "current_trial": 36, "dateTime": 1691161085526, "trialdata": {"revealed_states": [], "clicked_states": [], "num_clicks_accrued": [0, 0, 0, 0, 0, 0, 0, 0, 0, 0, 0, 0, 0], "stateRewards": ["", -1, 2, -2, 13, -56, -28, 10, 14, 53, -80, -29, 1, -3, -3, -14, 14, 9, -40, -9, 18, 18, 48, 1, 1, 1, -9, 64, -39, -9, 7, -52, -78, 7], "withholdReward": false, "trial_id": "mdp_trial_28", "block": "test", "trialIndex": 29, "score": -16, "costs": 0, "simulationMode": [null, null, null, null, null], "rewards": [-1, 2, -2, 14, -29], "path": ["0", "0", "1", "2", "3", "8", "11"], "rt": [15082, 288, 279, 22, 8], "actions": ["up", "up", "up", "left", "left"], "actionTimes": [17248, 18078, 18877, 19401, 19937], "queries": {"click": {"state": {"target": [], "time": []}, "edge": {"target": [], "time": []}}, "mouseover": {"state": {"target": [], "time": []}, "edge": {"target": [], "time": []}}, "mouseout": {"state": {"target": ["1"], "time": [924]}, "edge": {"target": [], "time": []}}}, "displayed_time": "20.48", "trialTime": 23788, "trial_type": "mouselab-mdp", "trial_index": 36, "time_elapsed": 1405446, "internal_node_id": "0.0-4.0-1.0-27.0"}}, {"uniqueid": "w88582211:a61689744", "current_trial": 37, "dateTime": 1691161115751, "trialdata": {"revealed_states": [], "clicked_states": [], "num_clicks_accrued": [0, 0, 0, 0, 0, 0, 0, 0, 0, 0, 0, 0, 0], "stateRewards": ["", -2, 2, 3, -7, -31, -33, 29, -8, -57, 50, -83, -1, -1, 5, 13, -23, -62, 25, 5, -66, -85, 14, 1, -2, -1, 16, 71, 33, -19, -14, 5, -43, 79], "withholdReward": false, "trial_id": "mdp_trial_29", "block": "test", "trialIndex": 30, "score": -77, "costs": 0, "simulationMode": [null, null, null, null, null], "rewards": [-1, -1, 5, 5, -85], "path": ["0", "0", "12", "13", "14", "19", "21"], "rt": [1357, 682, 113, 569, 121], "actions": ["right", "right", "right", "down", "down"], "actionTimes": [3282, 4487, 5117, 6236, 6874], "queries": {"click": {"state": {"target": [], "time": []}, "edge": {"target": [], "time": []}}, "mouseover": {"state": {"target": [], "time": []}, "edge": {"target": [], "time": []}}, "mouseout": {"state": {"target": ["0"], "time": [1187]}, "edge": {"target": [], "time": []}}}, "displayed_time": "15.94", "trialTime": 28976, "trial_type": "mouselab-mdp", "trial_index": 37, "time_elapsed": 1435671, "internal_node_id": "0.0-4.0-1.0-28.0"}}, {"uniqueid": "w88582211:a61689744", "current_trial": 38, "dateTime": 1691161181371, "trialdata": {"revealed_states": [], "clicked_states": ["12"], "num_clicks_accrued": [0, 0, 0, 0, 0, 0, 0, 0, 0, 0, 0, 0, 0], "stateRewards": ["", 1, -3, -6, -5, 47, 80, -29, 11, -71, 10, -29, -2, 3, -6, 12, 2, -78, -6, 8, 34, -16, -5, -1, 3, 3, -13, 84, -36, -62, -3, -27, 66, 15], "withholdReward": false, "trial_id": "mdp_trial_30", "block": "test", "trialIndex": 31, "score": -70.75, "costs": 0.25, "simulationMode": [null, null, null, null, null], "rewards": [-2, 3, -6, 12, -78], "path": ["0", "0", "12", "13", "14", "15", "17"], "rt": [2613, 131, 290, 452, 216], "actions": ["right", "right", "right", "up", "right"], "actionTimes": [4223, 4882, 5688, 6666, 7397], "queries": {"click": {"state": {"target": ["12"], "time": [3479]}, "edge": {"target": [], "time": []}}, "mouseover": {"state": {"target": ["12"], "time": [3165]}, "edge": {"target": [], "time": []}}, "mouseout": {"state": {"target": ["0"], "time": [844]}, "edge": {"target": [], "time": []}}}, "displayed_time": "15.62", "trialTime": 64300, "trial_type": "mouselab-mdp", "trial_index": 38, "time_elapsed": 1501290, "internal_node_id": "0.0-4.0-1.0-29.0"}}, {"uniqueid": "w88582211:a61689744", "current_trial": 39, "dateTime": 1691161231704, "trialdata": {"revealed_states": [], "clicked_states": ["12"], "num_clicks_accrued": [0, 0, 0, 0, 0, 0, 0, 0, 0, 0, 0, 0, 0], "stateRewards": ["", -1, -3, -7, -4, -85, -70, 79, 8, 84, -66, 42, 2, -2, -3, -16, -54, -66, 68, -3, 21, -14, 7, -2, -1, -3, -8, 75, 80, 86, -7, -84, 73, -16], "withholdReward": false, "trial_id": "mdp_trial_31", "block": "test", "trialIndex": 32, "score": -84.75, "costs": 0.25, "simulationMode": [null, null, null, null, null], "rewards": [2, -2, -3, -16, -66], "path": ["0", "0", "12", "13", "14", "15", "17"], "rt": [2441, 48, 130, 330, 297], "actions": ["right", "right", "right", "up", "right"], "actionTimes": [5434, 6030, 6661, 7515, 8311], "queries": {"click": {"state": {"target": ["12"], "time": [4730]}, "edge": {"target": [], "time": []}}, "mouseover": {"state": {"target": ["12"], "time": [3810]}, "edge": {"target": [], "time": []}}, "mouseout": {"state": {"target": ["12", "0"], "time": [739, 3715]}, "edge": {"target": [], "time": []}}}, "displayed_time": "17.01", "trialTime": 48900, "trial_type": "mouselab-mdp", "trial_index": 39, "time_elapsed": 1551624, "internal_node_id": "0.0-4.0-1.0-30.0"}}, {"uniqueid": "w88582211:a61689744", "current_trial": 40, "dateTime": 1691161258826, "trialdata": {"revealed_states": [], "clicked_states": [], "num_clicks_accrued": [0, 0, 0, 0, 0, 0, 0, 0, 0, 0, 0, 0, 0], "stateRewards": ["", 2, 4, 4, 9, -88, -10, 44, 16, -54, 64, 78, 1, 2, 5, 16, 80, 36, 7, -4, 9, -47, -70, -1, -3, 6, -16, 11, 80, 28, 8, -1, 34, -17], "withholdReward": false, "trial_id": "mdp_trial_32", "block": "test", "trialIndex": 33, "score": 63, "costs": 0, "simulationMode": [null, null, null, null, null], "rewards": [2, 4, 4, 9, 44], "path": ["0", "0", "1", "2", "3", "4", "7"], "rt": [5854, 370, 128, 950, 1137], "actions": ["up", "up", "up", "right", "down"], "actionTimes": [13420, 14310, 14949, 16420, 18094], "queries": {"click": {"state": {"target": [], "time": []}, "edge": {"target": [], "time": []}}, "mouseover": {"state": {"target": ["1"], "time": [12231]}, "edge": {"target": [], "time": []}}, "mouseout": {"state": {"target": ["12", "0", "1"], "time": [6099, 12202, 19461]}, "edge": {"target": [], "time": []}}}, "displayed_time": "21.57", "trialTime": 25717, "trial_type": "mouselab-mdp", "trial_index": 40, "time_elapsed": 1578746, "internal_node_id": "0.0-4.0-1.0-31.0"}}, {"uniqueid": "w88582211:a61689744", "current_trial": 41, "dateTime": 1691161291056, "trialdata": {"revealed_states": [], "clicked_states": ["23"], "num_clicks_accrued": [0, 0, 0, 0, 0, 0, 0, 0, 0, 0, 0, 0, 0], "stateRewards": ["", 1, 1, 5, 6, -29, -7, 3, -16, 9, -46, 65, -1, 4, -1, -16, -63, -77, -87, 8, 80, -50, 43, -1, -1, -5, 5, -38, -71, -62, 9, 81, -50, -52], "withholdReward": false, "trial_id": "mdp_trial_33", "block": "test", "trialIndex": 34, "score": 83.25, "costs": 0.25, "simulationMode": [null, null, null, null, null], "rewards": [-1, -1, -5, 9, 81], "path": ["0", "0", "23", "24", "25", "30", "31"], "rt": [2230, 99, 42, 701, 326], "actions": ["left", "left", "left", "down", "right"], "actionTimes": [16912, 17585, 18168, 19393, 20245], "queries": {"click": {"state": {"target": ["23"], "time": [16138]}, "edge": {"target": [], "time": []}}, "mouseover": {"state": {"target": ["23"], "time": [15657]}, "edge": {"target": [], "time": []}}, "mouseout": {"state": {"target": ["1", "0", "23"], "time": [13420, 15572, 23083]}, "edge": {"target": [], "time": []}}}, "displayed_time": "28.69", "trialTime": 30849, "trial_type": "mouselab-mdp", "trial_index": 41, "time_elapsed": 1610976, "internal_node_id": "0.0-4.0-1.0-32.0"}}, {"uniqueid": "w88582211:a61689744", "current_trial": 42, "dateTime": 1691161310305, "trialdata": {"revealed_states": [], "clicked_states": ["12", "1"], "num_clicks_accrued": [0, 0, 0, 0, 0, 0, 0, 0, 0, 0, 0, 0, 0], "stateRewards": ["", 1, -1, -7, -7, -22, 15, -13, 13, 26, -32, 38, -1, 1, -7, -4, 16, -62, 86, 12, -54, 56, 64, -2, -1, 6, 14, -57, 37, 62, -6, -25, 50, -70], "withholdReward": false, "trial_id": "mdp_trial_34", "block": "test", "trialIndex": 35, "score": 32.5, "costs": 0.5, "simulationMode": [null, null, null, null, null], "rewards": [1, -1, -7, 13, 26], "path": ["0", "0", "1", "2", "3", "8", "9"], "rt": [4192, 8, 965, 964, 245], "actions": ["up", "up", "up", "left", "up"], "actionTimes": [6103, 6636, 8187, 9665, 10429], "queries": {"click": {"state": {"target": ["12", "1"], "time": [3904, 4889]}, "edge": {"target": [], "time": []}}, "mouseover": {"state": {"target": ["12", "12", "1"], "time": [2567, 3595, 4563]}, "edge": {"target": [], "time": []}}, "mouseout": {"state": {"target": ["12", "12", "1"], "time": [2680, 4387, 14139]}, "edge": {"target": [], "time": []}}}, "displayed_time": "15.91", "trialTime": 17778, "trial_type": "mouselab-mdp", "trial_index": 42, "time_elapsed": 1630224, "internal_node_id": "0.0-4.0-1.0-33.0"}}, {"uniqueid": "w88582211:a61689744", "current_trial": 43, "dateTime": 1691161335305, "trialdata": {"revealed_states": [], "clicked_states": ["23"], "num_clicks_accrued": [0, 0, 0, 0, 0, 0, 0, 0, 0, 0, 0, 0, 0], "stateRewards": ["", 1, 2, -5, 14, 54, -14, -25, 16, -5, -87, 78, -1, 1, 3, -3, 52, 53, 53, -10, 73, -69, -48, 2, 3, 1, 8, -62, -7, 85, 7, 82, 52, -28], "withholdReward": false, "trial_id": "mdp_trial_35", "block": "test", "trialIndex": 36, "score": 65.25, "costs": 0.25, "simulationMode": [null, null, null, null, null], "rewards": [2, 3, 1, 7, 52], "path": ["0", "0", "23", "24", "25", "30", "32"], "rt": [3581, 253, 253, 407, 83], "actions": ["left", "left", "left", "down", "down"], "actionTimes": [10570, 11350, 12173, 13102, 13711], "queries": {"click": {"state": {"target": ["23"], "time": [9070]}, "edge": {"target": [], "time": []}}, "mouseover": {"state": {"target": ["23"], "time": [8761]}, "edge": {"target": [], "time": []}}, "mouseout": {"state": {"target": ["1", "0"], "time": [5175, 8676]}, "edge": {"target": [], "time": []}}}, "displayed_time": "21.00", "trialTime": 23484, "trial_type": "mouselab-mdp", "trial_index": 43, "time_elapsed": 1655225, "internal_node_id": "0.0-4.0-1.0-34.0"}}, {"uniqueid": "w88582211:a61689744", "current_trial": 44, "dateTime": 1691161357108, "trialdata": {"revealed_states": [], "clicked_states": ["1", "12", "23"], "num_clicks_accrued": [0, 0, 0, 0, 0, 0, 0, 0, 0, 0, 0, 0, 0], "stateRewards": ["", 1, 2, -3, 6, -88, 74, -45, 7, -46, 40, -77, 1, -4, 4, 3, 22, -25, -59, 8, -83, 19, -60, -1, -1, -1, -8, 26, -29, 64, -7, -88, -51, -55], "withholdReward": false, "trial_id": "mdp_trial_36", "block": "test", "trialIndex": 37, "score": -54.25, "costs": 0.75, "simulationMode": [null, null, null, null, null], "rewards": [1, -4, 4, 3, -59], "path": ["0", "0", "12", "13", "14", "15", "18"], "rt": [3814, 631, 189, 406, 527], "actions": ["right", "right", "right", "up", "left"], "actionTimes": [7616, 8782, 9483, 10400, 11460], "queries": {"click": {"state": {"target": ["1", "12", "23"], "time": [4861, 5780, 6779]}, "edge": {"target": [], "time": []}}, "mouseover": {"state": {"target": ["1", "12", "0", "23"], "time": [4489, 5497, 6320, 6476]}, "edge": {"target": [], "time": []}}, "mouseout": {"state": {"target": ["23", "1", "12", "0"], "time": [2337, 5366, 6031, 6429]}, "edge": {"target": [], "time": []}}}, "displayed_time": "17.80", "trialTime": 19958, "trial_type": "mouselab-mdp", "trial_index": 44, "time_elapsed": 1677029, "internal_node_id": "0.0-4.0-1.0-35.0"}}, {"uniqueid": "w88582211:a61689744", "current_trial": 45, "dateTime": 1691161387287, "trialdata": {"revealed_states": [], "clicked_states": ["1"], "num_clicks_accrued": [0, 0, 0, 0, 0, 0, 0, 0, 0, 0, 0, 0, 0], "stateRewards": ["", 2, 3, 3, 10, 19, -21, 6, 9, 54, 68, 16, 2, 2, -6, -8, 40, -2, -75, -2, -42, 55, 59, -1, 2, 4, -14, 11, -34, -30, -6, 61, -53, 13], "withholdReward": false, "trial_id": "mdp_trial_37", "block": "test", "trialIndex": 38, "score": 37.25, "costs": 0.25, "simulationMode": [null, null, null, null, null], "rewards": [2, 3, 3, 10, 19], "path": ["0", "0", "1", "2", "3", "4", "5"], "rt": [3427, 24, 249, 44, 194], "actions": ["up", "up", "up", "right", "up"], "actionTimes": [6993, 7534, 8344, 8903, 9637], "queries": {"click": {"state": {"target": ["1"], "time": [5241]}, "edge": {"target": [], "time": []}}, "mouseover": {"state": {"target": ["1"], "time": [4977]}, "edge": {"target": [], "time": []}}, "mouseout": {"state": {"target": ["23", "12"], "time": [2022, 2322]}, "edge": {"target": [], "time": []}}}, "displayed_time": "17.57", "trialTime": 28734, "trial_type": "mouselab-mdp", "trial_index": 45, "time_elapsed": 1707209, "internal_node_id": "0.0-4.0-1.0-36.0"}}, {"uniqueid": "w88582211:a61689744", "current_trial": 46, "dateTime": 1691161417006, "trialdata": {"revealed_states": [], "clicked_states": [], "num_clicks_accrued": [0, 0, 0, 0, 0, 0, 0, 0, 0, 0, 0, 0, 0], "stateRewards": ["", -1, 2, -2, 5, 80, -61, -27, 12, 44, -26, -75, -2, -4, 1, -16, 42, -49, -50, 4, -44, 2, 80, -2, -2, 5, -2, 59, 10, 24, 7, -48, -86, -44], "withholdReward": false, "trial_id": "mdp_trial_38", "block": "test", "trialIndex": 39, "score": -78, "costs": 0, "simulationMode": [null, null, null, null, null], "rewards": [-2, -2, 5, 7, -86], "path": ["0", "0", "23", "24", "25", "30", "32"], "rt": [4083, 417, 249, 195, 407], "actions": ["left", "left", "left", "down", "down"], "actionTimes": [6658, 7600, 8349, 9045, 9964], "queries": {"click": {"state": {"target": [], "time": []}, "edge": {"target": [], "time": []}}, "mouseover": {"state": {"target": ["23"], "time": [5297]}, "edge": {"target": [], "time": []}}, "mouseout": {"state": {"target": ["1", "0", "0", "23", "23", "0"], "time": [1058, 1147, 5263, 12840, 27005, 27273]}, "edge": {"target": [], "time": []}}}, "displayed_time": "16.58", "trialTime": 28330, "trial_type": "mouselab-mdp", "trial_index": 46, "time_elapsed": 1736926, "internal_node_id": "0.0-4.0-1.0-37.0"}}, {"uniqueid": "w88582211:a61689744", "current_trial": 47, "dateTime": 1691161450097, "trialdata": {"revealed_states": [], "clicked_states": ["12"], "num_clicks_accrued": [0, 0, 0, 0, 0, 0, 0, 0, 0, 0, 0, 0, 0], "stateRewards": ["", -2, -3, 1, -7, 39, -67, 16, 5, -20, 73, 66, -1, 4, 5, -3, 23, -68, -87, -8, 3, -3, 17, 1, -4, -2, -13, -32, 34, 61, -5, -11, -18, 12], "withholdReward": false, "trial_id": "mdp_trial_39", "block": "test", "trialIndex": 40, "score": -81.75, "costs": 0.25, "simulationMode": [null, null, null, null, null], "rewards": [-1, 4, 5, -3, -87], "path": ["0", "0", "12", "13", "14", "15", "18"], "rt": [2934, 432, 188, 956, 548], "actions": ["right", "right", "right", "up", "left"], "actionTimes": [5174, 6117, 6842, 8298, 9372], "queries": {"click": {"state": {"target": ["12"], "time": [3876]}, "edge": {"target": [], "time": []}}, "mouseover": {"state": {"target": ["12", "12"], "time": [2971, 3536]}, "edge": {"target": [], "time": []}}, "mouseout": {"state": {"target": ["0", "12", "12"], "time": [2922, 2991, 10085]}, "edge": {"target": [], "time": []}}}, "displayed_time": "16.25", "trialTime": 31774, "trial_type": "mouselab-mdp", "trial_index": 47, "time_elapsed": 1770017, "internal_node_id": "0.0-4.0-1.0-38.0"}}, {"uniqueid": "w88582211:a61689744", "current_trial": 48, "dateTime": 1691161479117, "trialdata": {"revealed_states": [], "clicked_states": ["1"], "num_clicks_accrued": [0, 0, 0, 0, 0, 0, 0, 0, 0, 0, 0, 0, 0], "stateRewards": ["", -1, 3, 8, 10, -86, 61, -36, 10, 17, -60, 24, -1, -3, 3, 11, 50, 60, 33, -3, -20, 58, -6, 1, -4, -4, 13, -70, -71, 43, 14, 52, 82, -11], "withholdReward": false, "trial_id": "mdp_trial_40", "block": "test", "trialIndex": 41, "score": -65.75, "costs": 0.25, "simulationMode": [null, null, null, null, null], "rewards": [-1, 3, 8, 10, -86], "path": ["0", "0", "1", "2", "3", "4", "5"], "rt": [3104, 72, 165, 132, 273], "actions": ["up", "up", "up", "right", "up"], "actionTimes": [5172, 5770, 6462, 7097, 7871], "queries": {"click": {"state": {"target": ["1"], "time": [3780]}, "edge": {"target": [], "time": []}}, "mouseover": {"state": {"target": ["1", "2", "1", "2"], "time": [2995, 3161, 3442, 4613]}, "edge": {"target": [], "time": []}}, "mouseout": {"state": {"target": ["12", "1", "2", "1", "2"], "time": [735, 3063, 3309, 3962, 12204]}, "edge": {"target": [], "time": []}}}, "displayed_time": "16.07", "trialTime": 27375, "trial_type": "mouselab-mdp", "trial_index": 48, "time_elapsed": 1799037, "internal_node_id": "0.0-4.0-1.0-39.0"}}, {"uniqueid": "w88582211:a61689744", "current_trial": 49, "dateTime": 1691161555978, "trialdata": {"rt": 76814, "response": {"Q0": "$-88 to $88", "Q1": "$-32 to $32", "Q2": "$-16 to $16", "Q3": "It was less costly to inspect further nodes.", "Q4": "Slightly motivated"}, "question_order": [0, 1, 2, 3, 4], "trial_id": "final_quiz_control", "trial_type": "survey-multi-choice", "trial_index": 49, "time_elapsed": 1875898, "internal_node_id": "0.0-4.0-2.0"}}, {"uniqueid": "w88582211:a61689744", "current_trial": 50, "dateTime": 1691161669088, "trialdata": {"rt": 113038, "response": {"Q0": "always go to the edge that gives the most reward", "Q1": "yes, i start getting rewaards than losing", "Q2": "quite difficult"}, "trial_id": "self_report_control", "trial_type": "survey-text", "trial_index": 50, "time_elapsed": 1989010, "internal_node_id": "0.0-4.0-3.0"}}, {"uniqueid": "w88582211:a61689744", "current_trial": 51, "dateTime": 1691161736017, "trialdata": {"rt": 66900, "response": {"Q0": "Disagree", "Q1": "Agree", "Q2": "Disagree", "Q3": "Agree", "Q4": "Disagree", "Q5": "Disagree", "Q6": "Agree"}, "question_order": [0, 1, 2, 3, 4, 5, 6], "trial_id": "self_report_2", "trial_type": "survey-multi-choice", "trial_index": 51, "time_elapsed": 2055939, "internal_node_id": "0.0-4.0-4.0"}}, {"uniqueid": "w88582211:a61689744", "current_trial": 52, "dateTime": 1691161768282, "trialdata": {"rt": 32237, "response": {"gender": "female", "age": "23", "colorblind": "0", "effort": "0"}, "trial_type": "survey-html-form", "trial_index": 52, "time_elapsed": 2088203, "internal_node_id": "0.0-4.0-5.0"}}, {"uniqueid": "w88582211:a61689744", "current_trial": 53, "dateTime": 1691161818610, "trialdata": {"rt": 50270, "response": {"Q0": "no", "Q1": "i have not participated before", "Q2": ""}, "trial_type": "survey-text", "trial_index": 53, "time_elapsed": 2138531, "internal_node_id": "0.0-4.0-6.0"}}, {"uniqueid": "w88582211:a61689744", "current_trial": 54, "dateTime": 1691161821773, "trialdata": {"rt": 3135, "stimulus": "Press 'Finish HIT' in order to reach the completion code. Once the data has been saved, you will receive the code either in this window or in the original browser window where you started the experiment.\n", "response": 0, "trial_type": "html-button-response", "trial_index": 54, "time_elapsed": 2141695, "internal_node_id": "0.0-5.0"}}, {"uniqueid": "w88582211:a61689744", "current_trial": 55, "dateTime": 1691161822796, "trialdata": {"success": true, "trial_type": "fullscreen", "trial_index": 55, "time_elapsed": 2142718, "internal_node_id": "0.0-6.0"}}], "questiondata": {"params": {"CODE": "C6DMOQA6", "MIN_TIME": 14, "inspectCost": 1, "startTime": "Fri Aug 04 2023 16:34:37 GMT+0200 (South Africa Standard Time)", "bonusRate": 0.002, "variance": "1_2_4_8_44", "branching": "31123"}, "final_score": -212.5}, "eventdata": [{"eventtype": "initialized", "value": null, "timestamp": 1691159676822, "interval": 0}, {"eventtype": "window_resize", "value": [1024, 652], "timestamp": 1691159676822, "interval": 0}, {"eventtype": "window_resize", "value": [1024, 652], "timestamp": 1691159677317, "interval": 495}, {"eventtype": "window_resize", "value": [1366, 768], "timestamp": 1691159691131, "interval": 13814}, {"eventtype": "window_resize", "value": [1024, 652], "timestamp": 1691161822340, "interval": 2131209}], "useragent": "Mozilla/5.0 (Windows NT 10.0; Win64; x64) AppleWebKit/537.36 (KHTML, like Gecko) Chrome/114.0.0.0 Safari/537.36", "mode": "live", "id": "w88582211:a61689744", "status": "user data saved", "Beginhit": "2023-08-04 14:34:30.775389", "Beginexp": "2023-08-04 14:34:53.755028", "Endhit": "2023-08-04 15:10:25.110262", "psiturkStatus": 3, "browser": "<redacted>", "platform": "windows", "language": "en-GB", "excludeReason": "invalidClickStrats"}