{"condition": 0, "counterbalance": 0, "assignmentId": "a30266268", "workerId": "w58197514", "hitId": "h60290303", "currenttrial": 55, "bonus": 0, "data": [{"uniqueid": "w58197514:a30266268", "current_trial": 0, "dateTime": 1691071118479, "trialdata": {"success": true, "trial_type": "fullscreen", "trial_index": 0, "time_elapsed": 7573, "internal_node_id": "0.0-0.0"}}, {"uniqueid": "w58197514:a30266268", "current_trial": 1, "dateTime": 1691071139200, "trialdata": {"view_history": [{"page_index": 0, "viewing_time": 20698}], "rt": 20699, "trial_id": "exp_instructions_control", "trial_type": "instructions", "trial_index": 1, "time_elapsed": 28295, "internal_node_id": "0.0-1.0"}}, {"uniqueid": "w58197514:a30266268", "current_trial": 2, "dateTime": 1691071145859, "trialdata": {"success": true, "trial_type": "fullscreen", "trial_index": 2, "time_elapsed": 34954, "internal_node_id": "0.0-2.0-0.0"}}, {"uniqueid": "w58197514:a30266268", "current_trial": 3, "dateTime": 1691071537529, "trialdata": {"view_history": [{"page_index": 0, "viewing_time": 141266}, {"page_index": 1, "viewing_time": 96794}, {"page_index": 2, "viewing_time": 25627}, {"page_index": 3, "viewing_time": 127973}], "rt": 391661, "trial_id": "mouselab_instructions_1_control", "trial_type": "instructions", "trial_index": 3, "time_elapsed": 426623, "internal_node_id": "0.0-2.0-1.0"}}, {"uniqueid": "w58197514:a30266268", "current_trial": 4, "dateTime": 1691071668284, "trialdata": {"revealed_states": [], "clicked_states": ["12", "13", "14", "15", "17", "1", "2", "3", "23", "24", "25", "26", "27", "29", "28", "19", "21", "22", "20", "30", "32", "31", "33", "7", "4", "6", "5"], "num_clicks_accrued": [0, 0, 0, 0, 0, 0, 0, 0, 0, 0, 0, 0, 0], "stateRewards": ["", 10, -10, -10, -10, -10, 10, 10, -10, 10, 10, -10, 10, 10, -10, 10, 10, -10, -10, 10, 10, -10, -10, 10, 10, -10, -10, 10, 10, 10, -10, 10, 10, 10], "withholdReward": false, "trial_id": "practice_1", "block": "test", "trialIndex": 0, "score": 0, "costs": -13.5, "simulationMode": [null, null, null, null, null], "rewards": [10, 10, -10, 10, -10], "path": ["0", "0", "12", "13", "14", "15", "17"], "rt": [109680, 2228, 1995, 1498, 1011], "actions": ["right", "right", "right", "up", "right"], "actionTimes": [114619, 117351, 119844, 121838, 123358], "queries": {"click": {"state": {"target": ["12", "13", "14", "15", "17", "1", "2", "3", "23", "24", "25", "26", "27", "29", "28", "19", "21", "22", "20", "30", "32", "31", "33", "7", "4", "6", "5"], "time": [7157, 9939, 12315, 16935, 18799, 28866, 30501, 32377, 40568, 43482, 45998, 48382, 50496, 53132, 55876, 60634, 62910, 65498, 68151, 71026, 76221, 78554, 80801, 83827, 86193, 88395, 90213]}, "edge": {"target": [], "time": []}}, "mouseover": {"state": {"target": ["12", "13", "14", "15", "19", "21", "19", "15", "15", "17", "18", "12", "0", "0", "12", "12", "31", "24", "1", "2", "2", "3", "12", "0", "23", "23", "24", "25", "26", "27", "29", "26", "28", "22", "19", "21", "22", "19", "20", "19", "32", "30", "32", "31", "30", "33", "25", "24", "1", "7", "4", "6", "5", "3", "8", "0", "15"], "time": [6621, 8537, 11657, 14014, 15229, 15590, 15720, 16071, 16472, 18011, 20002, 20202, 20303, 20684, 22687, 23009, 27275, 27493, 28178, 29470, 29937, 31293, 36413, 39396, 39421, 39921, 42590, 45053, 47631, 49837, 52408, 54681, 54723, 59950, 60025, 62192, 64955, 66999, 67100, 69726, 69809, 70469, 74610, 77968, 80145, 80161, 82222, 82253, 82337, 82437, 85633, 87702, 89662, 91035, 93527, 106168, 111409]}, "edge": {"target": [], "time": []}}, "mouseout": {"state": {"target": ["0", "12", "13", "14", "15", "19", "21", "19", "14", "15", "15", "17", "15", "18", "12", "0", "0", "12", "12", "31", "24", "1", "2", "2", "3", "3", "2", "12", "0", "23", "23", "24", "25", "26", "27", "29", "26", "28", "22", "19", "21", "22", "19", "20", "19", "32", "30", "32", "31", "30", "33", "25", "24", "1", "7", "4", "6", "5", "3", "8", "0", "15"], "time": [3105, 8369, 11637, 13944, 15216, 15251, 15652, 15786, 15853, 16171, 17814, 18964, 19851, 20035, 20252, 20337, 22657, 22728, 24765, 27459, 27511, 29454, 29504, 31209, 32551, 34214, 34251, 39374, 39406, 39470, 42512, 45020, 47537, 49719, 52181, 54654, 54692, 58434, 59982, 62164, 64587, 66986, 67049, 69708, 69762, 69893, 74524, 77868, 80110, 80156, 82183, 82236, 82286, 82354, 85362, 86390, 89446, 90868, 93490, 93643, 111368, 111430]}, "edge": {"target": [], "time": []}}}, "displayed_time": "123.87", "trialTime": 129489, "trial_type": "mouselab-mdp", "trial_index": 4, "time_elapsed": 557377, "internal_node_id": "0.0-2.0-2.0-0.0"}}, {"uniqueid": "w58197514:a30266268", "current_trial": 5, "dateTime": 1691071717070, "trialdata": {"revealed_states": [], "clicked_states": ["12", "13", "14", "15", "17"], "num_clicks_accrued": [0, 0, 0, 0, 0, 0, 0, 0, 0, 0, 0, 0, 0], "stateRewards": ["", 10, -10, -10, -10, 10, -10, -10, -10, 10, 10, -10, 10, 10, -10, 10, -10, 10, -10, 10, -10, -10, -10, -10, 10, 10, -10, 10, 10, 10, 10, -10, 10, -10], "withholdReward": false, "trial_id": "practice_2", "block": "test", "trialIndex": 1, "score": 11, "costs": -2.5, "simulationMode": [null, null, null, null, null], "rewards": [10, 10, -10, 10, -10], "path": ["0", "0", "12", "13", "14", "15", "16"], "rt": [30830, 1655, 438, 583, 520], "actions": ["right", "right", "right", "up", "up"], "actionTimes": [34259, 36423, 37363, 38443, 39468], "queries": {"click": {"state": {"target": ["12", "13", "14", "15", "17"], "time": [7164, 9293, 11864, 14446, 16746]}, "edge": {"target": [], "time": []}}, "mouseover": {"state": {"target": ["23", "0", "12", "13", "14", "15", "15", "17", "14", "22"], "time": [4976, 6331, 6658, 8751, 10929, 13448, 13804, 16165, 19887, 20209]}, "edge": {"target": [], "time": []}}, "mouseout": {"state": {"target": ["16", "0", "23", "0", "12", "13", "14", "15", "15", "17", "14", "22"], "time": [1805, 4689, 6315, 6380, 8379, 10894, 13419, 13504, 16129, 19859, 19910, 20261]}, "edge": {"target": [], "time": []}}}, "displayed_time": "39.97", "trialTime": 48145, "trial_type": "mouselab-mdp", "trial_index": 5, "time_elapsed": 606163, "internal_node_id": "0.0-2.0-2.0-1.0"}}, {"uniqueid": "w58197514:a30266268", "current_trial": 6, "dateTime": 1691071814093, "trialdata": {"view_history": [{"page_index": 0, "viewing_time": 86239}, {"page_index": 1, "viewing_time": 10770}], "rt": 97010, "trial_id": "mouselab_instructions_2_control", "trial_type": "instructions", "trial_index": 6, "time_elapsed": 703188, "internal_node_id": "0.0-2.0-3.0"}}, {"uniqueid": "w58197514:a30266268", "current_trial": 7, "dateTime": 1691071867073, "trialdata": {"rt": 52965, "response": {"Q0": "The cost for clicking on nodes may vary between nodes.", "Q1": "The better I perform the higher my bonus will be.", "Q2": "No, the amount of cash at each node of the web may be different each time.", "Q3": "To get the highest total score.", "Q4": "Only before moving the spider.", "Q5": "3 seconds"}, "question_order": [0, 1, 2, 3, 4, 5], "correct": {"Q0": "The cost for clicking on nodes may vary between nodes.", "Q1": "The better I perform the higher my bonus will be.", "Q2": "No, the amount of cash at each node of the web may be different each time.", "Q3": "To get the highest total score.", "Q4": "Only before moving the spider.", "Q5": "3 seconds"}, "trial_id": "mouselab_quiz_control", "trial_type": "survey-multi-choice", "trial_index": 7, "time_elapsed": 756168, "internal_node_id": "0.0-2.0-4.0"}}, {"uniqueid": "w58197514:a30266268", "current_trial": 8, "dateTime": 1691072005009, "trialdata": {"rt": 137898, "stimulus": "\n<h1> Get ready to start the game! </h1>\n\nThank you for reading the instructions. Get ready start with the 40 rounds of this game.\n<br><br>\nIf you need to take a break, feel free to take one after the end of a round, before continuing to the next one.\n<br><br>\nRemember, the more money the spider gets, the bigger your bonus will be!\n<br><br>\n<div style='text-align: center;'>Press <code>space</code> to begin.</div>\n\n<br><br>\n(If, at any point, the <code>space</code> key does not take you to the next page, click once on the text and try again.)", "response": " ", "trial_id": "mdp_ready", "trial_type": "html-keyboard-response", "trial_index": 8, "time_elapsed": 894104, "internal_node_id": "0.0-4.0-0.0"}}, {"uniqueid": "w58197514:a30266268", "current_trial": 9, "dateTime": 1691072030125, "trialdata": {"revealed_states": [], "clicked_states": [], "num_clicks_accrued": [0, 0, 0, 0, 0, 0, 0, 0, 0, 0, 0, 0, 0], "stateRewards": ["", -1, -1, 7, -15, -43, -21, -84, -9, -45, -66, 2, 1, -2, 2, 8, -27, 44, -52, -5, -84, 11, 53, 1, 4, -4, 16, 83, -82, -15, -16, 68, -43, 81], "withholdReward": false, "trial_id": "mdp_trial_1", "block": "test", "trialIndex": 2, "score": -88, "costs": 0, "simulationMode": [null, null, null, null, null], "rewards": [1, -2, 2, -5, -84], "path": ["0", "0", "12", "13", "14", "19", "20"], "rt": [11648, 1042, 765, 894, 826], "actions": ["right", "right", "right", "down", "right"], "actionTimes": [15575, 17121, 18382, 19782, 21118], "queries": {"click": {"state": {"target": [], "time": []}, "edge": {"target": [], "time": []}}, "mouseover": {"state": {"target": ["12", "12", "20"], "time": [6202, 11823, 14633]}, "edge": {"target": [], "time": []}}, "mouseout": {"state": {"target": ["0", "12", "12", "20"], "time": [3086, 10034, 12577, 14685]}, "edge": {"target": [], "time": []}}}, "displayed_time": "21.61", "trialTime": 24545, "trial_type": "mouselab-mdp", "trial_index": 9, "time_elapsed": 919218, "internal_node_id": "0.0-4.0-1.0-0.0"}}, {"uniqueid": "w58197514:a30266268", "current_trial": 10, "dateTime": 1691072060407, "trialdata": {"revealed_states": [], "clicked_states": ["12", "13", "14", "15", "17"], "num_clicks_accrued": [0, 0, 0, 0, 0, 0, 0, 0, 0, 0, 0, 0, 0], "stateRewards": ["", 1, 1, -5, 8, -6, 45, 16, -6, -7, -22, -38, -1, -4, 8, -11, -16, 21, -45, -15, -59, -32, 42, -1, 3, 6, 11, -7, 34, -27, -8, 85, 43, -9], "withholdReward": false, "trial_id": "mdp_trial_2", "block": "test", "trialIndex": 3, "score": 6, "costs": -7, "simulationMode": [null, null, null, null, null], "rewards": [-1, -4, 8, -11, 21], "path": ["0", "0", "12", "13", "14", "15", "17"], "rt": [17296, 551, 701, 729, 318], "actions": ["right", "right", "right", "up", "right"], "actionTimes": [20155, 21208, 22410, 23643, 24470], "queries": {"click": {"state": {"target": ["12", "13", "14", "15", "17"], "time": [4231, 6315, 9482, 11603, 14520]}, "edge": {"target": [], "time": []}}, "mouseover": {"state": {"target": ["12", "12", "13", "14", "14", "15", "17", "13", "0", "12"], "time": [3391, 3703, 5653, 8351, 8975, 10670, 13998, 16856, 17207, 17627]}, "edge": {"target": [], "time": []}}, "mouseout": {"state": {"target": ["14", "12", "12", "13", "14", "14", "15", "17", "13", "0", "12"], "time": [1037, 3460, 5436, 8307, 8643, 10252, 13642, 16737, 16906, 17558, 27792]}, "edge": {"target": [], "time": []}}}, "displayed_time": "24.98", "trialTime": 29603, "trial_type": "mouselab-mdp", "trial_index": 10, "time_elapsed": 949501, "internal_node_id": "0.0-4.0-1.0-1.0"}}, {"uniqueid": "w58197514:a30266268", "current_trial": 11, "dateTime": 1691072095486, "trialdata": {"revealed_states": [], "clicked_states": ["23", "24", "25", "26", "29"], "num_clicks_accrued": [0, 0, 0, 0, 0, 0, 0, 0, 0, 0, 0, 0, 0], "stateRewards": ["", -2, -3, -5, 8, 27, 11, 43, -6, -24, -87, 69, -2, 1, 1, 9, 19, 48, -37, 9, -14, 45, 62, 1, 2, 1, 16, -81, -41, 22, 4, -6, -63, 47], "withholdReward": false, "trial_id": "mdp_trial_3", "block": "test", "trialIndex": 4, "score": 35, "costs": -7, "simulationMode": [null, null, null, null, null], "rewards": [1, 2, 1, 16, 22], "path": ["0", "0", "23", "24", "25", "26", "29"], "rt": [20825, 637, 607, 651, 1897], "actions": ["left", "left", "left", "up", "left"], "actionTimes": [24030, 25185, 26294, 27441, 29841], "queries": {"click": {"state": {"target": ["23", "24", "25", "26", "29"], "time": [4589, 6653, 9444, 13524, 16283]}, "edge": {"target": [], "time": []}}, "mouseover": {"state": {"target": ["23", "24", "25", "26", "26", "29", "23", "0", "0", "23"], "time": [3839, 5948, 8948, 12479, 12921, 15681, 18591, 18659, 18842, 19295]}, "edge": {"target": [], "time": []}}, "mouseout": {"state": {"target": ["17", "15", "13", "0", "23", "24", "25", "26", "26", "29", "23", "0", "0", "23"], "time": [1424, 1547, 1614, 2425, 5819, 8720, 12467, 12491, 15648, 18523, 18625, 18742, 19093, 32419]}, "edge": {"target": [], "time": []}}}, "displayed_time": "30.34", "trialTime": 34422, "trial_type": "mouselab-mdp", "trial_index": 11, "time_elapsed": 984580, "internal_node_id": "0.0-4.0-1.0-2.0"}}, {"uniqueid": "w58197514:a30266268", "current_trial": 12, "dateTime": 1691072139448, "trialdata": {"revealed_states": [], "clicked_states": ["1", "2", "3", "23", "24", "25", "30", "32"], "num_clicks_accrued": [0, 0, 0, 0, 0, 0, 0, 0, 0, 0, 0, 0, 0], "stateRewards": ["", -2, -4, -6, 12, -58, -70, -80, 2, 16, -88, -62, 1, 2, -5, 11, 77, -35, -44, -5, 18, -83, 87, 1, -3, -5, 13, -44, -21, -86, 10, -52, 8, 29], "withholdReward": false, "trial_id": "mdp_trial_4", "block": "test", "trialIndex": 5, "score": -0.20000000000000284, "costs": -11.200000000000001, "simulationMode": [null, null, null, null, null], "rewards": [1, -3, -5, 10, 8], "path": ["0", "0", "23", "24", "25", "30", "32"], "rt": [28720, 449, 481, 659, 684], "actions": ["left", "left", "left", "down", "down"], "actionTimes": [34065, 35018, 36002, 37167, 38363], "queries": {"click": {"state": {"target": ["1", "2", "3", "23", "24", "25", "30", "32"], "time": [7461, 9172, 11539, 14595, 17637, 20481, 24253, 27280]}, "edge": {"target": [], "time": []}}, "mouseover": {"state": {"target": ["1", "1", "2", "3", "23", "23", "24", "25", "30", "32", "31", "24", "23"], "time": [6513, 6860, 8593, 10748, 13621, 14039, 16747, 19846, 23525, 26651, 29654, 29765, 30115]}, "edge": {"target": [], "time": []}}, "mouseout": {"state": {"target": ["4", "2", "1", "1", "1", "2", "3", "23", "23", "24", "25", "30", "32", "31", "24"], "time": [3916, 3941, 4350, 6633, 8527, 10600, 13546, 13662, 16667, 19777, 23423, 26484, 29611, 29697, 30010]}, "edge": {"target": [], "time": []}}}, "displayed_time": "38.87", "trialTime": 43344, "trial_type": "mouselab-mdp", "trial_index": 12, "time_elapsed": 1028541, "internal_node_id": "0.0-4.0-1.0-3.0"}}, {"uniqueid": "w58197514:a30266268", "current_trial": 13, "dateTime": 1691072168521, "trialdata": {"revealed_states": [], "clicked_states": [], "num_clicks_accrued": [0, 0, 0, 0, 0, 0, 0, 0, 0, 0, 0, 0, 0], "stateRewards": ["", -2, 4, -5, -12, 85, -24, -18, -15, -78, -22, 26, -1, -1, 2, 14, -45, 52, -23, 7, -33, 24, -6, -2, -4, 5, -7, -16, 36, -39, 5, 71, -87, -23], "withholdReward": false, "trial_id": "mdp_trial_5", "block": "test", "trialIndex": 6, "score": -19, "costs": 0, "simulationMode": [null, null, null, null, null], "rewards": [-2, -4, 5, 5, -23], "path": ["0", "0", "23", "24", "25", "30", "33"], "rt": [6996, 630, 541, 714, 402], "actions": ["left", "left", "left", "down", "left"], "actionTimes": [17324, 18465, 19512, 20722, 21631], "queries": {"click": {"state": {"target": [], "time": []}, "edge": {"target": [], "time": []}}, "mouseover": {"state": {"target": ["23", "12", "0", "23"], "time": [11598, 14183, 16166, 16342]}, "edge": {"target": [], "time": []}}, "mouseout": {"state": {"target": ["23", "0", "0", "10", "1", "0", "23", "12", "0"], "time": [1102, 1278, 2583, 8843, 8931, 11558, 13529, 16005, 16242]}, "edge": {"target": [], "time": []}}}, "displayed_time": "24.34", "trialTime": 28354, "trial_type": "mouselab-mdp", "trial_index": 13, "time_elapsed": 1057614, "internal_node_id": "0.0-4.0-1.0-4.0"}}, {"uniqueid": "w58197514:a30266268", "current_trial": 14, "dateTime": 1691072192787, "trialdata": {"revealed_states": [], "clicked_states": [], "num_clicks_accrued": [0, 0, 0, 0, 0, 0, 0, 0, 0, 0, 0, 0, 0], "stateRewards": ["", 2, 3, 3, 10, 19, -21, 6, 9, 54, 68, 16, 2, 2, -6, -8, 40, -2, -75, -2, -42, 55, 59, -1, 2, 4, -14, 11, -34, -30, -6, 61, -53, 13], "withholdReward": false, "trial_id": "mdp_trial_6", "block": "test", "trialIndex": 7, "score": 2, "costs": 0, "simulationMode": [null, null, null, null, null], "rewards": [-1, 2, 4, -14, 11], "path": ["0", "0", "23", "24", "25", "26", "27"], "rt": [5528, 301, 665, 537, 203], "actions": ["left", "left", "left", "up", "up"], "actionTimes": [9255, 10056, 11222, 12266, 12969], "queries": {"click": {"state": {"target": [], "time": []}, "edge": {"target": [], "time": []}}, "mouseover": {"state": {"target": ["0"], "time": [7926]}, "edge": {"target": [], "time": []}}, "mouseout": {"state": {"target": ["23", "0"], "time": [1302, 7511]}, "edge": {"target": [], "time": []}}}, "displayed_time": "17.74", "trialTime": 23585, "trial_type": "mouselab-mdp", "trial_index": 14, "time_elapsed": 1081881, "internal_node_id": "0.0-4.0-1.0-5.0"}}, {"uniqueid": "w58197514:a30266268", "current_trial": 15, "dateTime": 1691072225472, "trialdata": {"revealed_states": [], "clicked_states": ["1", "2", "3", "4", "6"], "num_clicks_accrued": [0, 0, 0, 0, 0, 0, 0, 0, 0, 0, 0, 0, 0], "stateRewards": ["", 1, -2, -3, 14, -42, -87, -37, -11, -50, 33, -44, -2, 4, -7, 13, 48, -75, -66, 12, 23, -2, 82, 1, -4, 3, 12, 51, -15, -26, -11, -52, -29, 82], "withholdReward": false, "trial_id": "mdp_trial_7", "block": "test", "trialIndex": 8, "score": -39, "costs": -7, "simulationMode": [null, null, null, null, null], "rewards": [1, -2, -3, 14, -42], "path": ["0", "0", "1", "2", "3", "4", "5"], "rt": [21285, 478, 399, 1285, 590], "actions": ["up", "up", "up", "right", "up"], "actionTimes": [24310, 25296, 26204, 27995, 29088], "queries": {"click": {"state": {"target": ["1", "2", "3", "4", "6"], "time": [5134, 7194, 9476, 12348, 14354]}, "edge": {"target": [], "time": []}}, "mouseover": {"state": {"target": ["1", "2", "3", "4", "6", "18", "1", "10", "8", "10", "1", "1"], "time": [4528, 6241, 8466, 11873, 13233, 18081, 18683, 19567, 19704, 20557, 20674, 21518]}, "edge": {"target": [], "time": []}}, "mouseout": {"state": {"target": ["0", "1", "2", "3", "4", "6", "6", "18", "1", "10", "8", "10", "1"], "time": [4230, 5925, 7385, 11573, 13100, 14550, 16694, 18115, 19299, 19598, 20481, 20573, 20874]}, "edge": {"target": [], "time": []}}}, "displayed_time": "29.58", "trialTime": 32035, "trial_type": "mouselab-mdp", "trial_index": 15, "time_elapsed": 1114565, "internal_node_id": "0.0-4.0-1.0-6.0"}}, {"uniqueid": "w58197514:a30266268", "current_trial": 16, "dateTime": 1691072244549, "trialdata": {"revealed_states": [], "clicked_states": [], "num_clicks_accrued": [0, 0, 0, 0, 0, 0, 0, 0, 0, 0, 0, 0, 0], "stateRewards": ["", 2, 3, -1, 6, 44, -4, -59, -14, -3, 64, 16, 1, -3, 3, 6, 3, 49, 19, 3, -49, -14, -86, 1, 2, -3, -8, -33, 14, 32, -13, -77, -47, -67], "withholdReward": false, "trial_id": "mdp_trial_8", "block": "test", "trialIndex": 9, "score": 10, "costs": 0, "simulationMode": [null, null, null, null, null], "rewards": [1, -3, 3, 6, 3], "path": ["0", "0", "12", "13", "14", "15", "16"], "rt": [5791, 342, 354, 589, 352], "actions": ["right", "right", "right", "up", "up"], "actionTimes": [8442, 9295, 10160, 11248, 12097], "queries": {"click": {"state": {"target": [], "time": []}, "edge": {"target": [], "time": []}}, "mouseover": {"state": {"target": ["1", "2", "1", "1", "12"], "time": [4163, 4649, 4902, 5268, 7586]}, "edge": {"target": [], "time": []}}, "mouseout": {"state": {"target": ["1", "1", "2", "1", "1"], "time": [1388, 4313, 4868, 5018, 7442]}, "edge": {"target": [], "time": []}}}, "displayed_time": "16.67", "trialTime": 18437, "trial_type": "mouselab-mdp", "trial_index": 16, "time_elapsed": 1133641, "internal_node_id": "0.0-4.0-1.0-7.0"}}, {"uniqueid": "w58197514:a30266268", "current_trial": 17, "dateTime": 1691072272673, "trialdata": {"revealed_states": [], "clicked_states": ["12", "13", "14", "15", "17"], "num_clicks_accrued": [0, 0, 0, 0, 0, 0, 0, 0, 0, 0, 0, 0, 0], "stateRewards": ["", 2, 3, -3, 4, 72, -28, 34, -12, 57, -64, -15, 2, 1, -4, -15, 2, 49, 31, -1, -42, -58, 31, -2, 1, -2, -13, -75, -19, -22, -6, 61, 10, -56], "withholdReward": false, "trial_id": "mdp_trial_9", "block": "test", "trialIndex": 10, "score": 26, "costs": -7, "simulationMode": [null, null, null, null, null], "rewards": [2, 1, -4, -15, 49], "path": ["0", "0", "12", "13", "14", "15", "17"], "rt": [15714, 468, 440, 503, 329], "actions": ["right", "right", "right", "up", "right"], "actionTimes": [18293, 19266, 20208, 21213, 22053], "queries": {"click": {"state": {"target": ["12", "13", "14", "15", "17"], "time": [3927, 5489, 7505, 10675, 12708]}, "edge": {"target": [], "time": []}}, "mouseover": {"state": {"target": ["12", "13", "14", "15", "17", "13", "12"], "time": [3373, 4964, 6200, 8259, 11787, 15281, 15728]}, "edge": {"target": [], "time": []}}, "mouseout": {"state": {"target": ["12", "0", "12", "13", "14", "15", "17", "15", "13"], "time": [1144, 3320, 4833, 6133, 7698, 11753, 14643, 15212, 15315]}, "edge": {"target": [], "time": []}}}, "displayed_time": "22.56", "trialTime": 27388, "trial_type": "mouselab-mdp", "trial_index": 17, "time_elapsed": 1161766, "internal_node_id": "0.0-4.0-1.0-8.0"}}, {"uniqueid": "w58197514:a30266268", "current_trial": 18, "dateTime": 1691072303627, "trialdata": {"revealed_states": [], "clicked_states": ["12", "14", "19", "20", "21"], "num_clicks_accrued": [0, 0, 0, 0, 0, 0, 0, 0, 0, 0, 0, 0, 0], "stateRewards": ["", 2, 4, -5, 7, 81, 35, 6, 11, 14, -72, 42, -1, 2, 3, -7, -77, -44, -40, -15, -85, 51, -32, -2, -1, -5, 7, -74, 47, 52, 16, -49, 48, -46], "withholdReward": false, "trial_id": "mdp_trial_10", "block": "test", "trialIndex": 11, "score": 33, "costs": -7, "simulationMode": [null, null, null, null, null], "rewards": [-1, 2, 3, -15, 51], "path": ["0", "0", "12", "13", "14", "19", "21"], "rt": [16530, 438, 516, 800, 602], "actions": ["right", "right", "right", "down", "down"], "actionTimes": [20287, 21239, 22266, 23575, 24682], "queries": {"click": {"state": {"target": ["12", "14", "19", "20", "21"], "time": [5424, 8814, 11122, 13073, 15592]}, "edge": {"target": [], "time": []}}, "mouseover": {"state": {"target": ["12", "13", "14", "19", "19", "20", "21", "22"], "time": [4713, 6165, 8046, 10164, 10606, 12369, 15096, 18072]}, "edge": {"target": [], "time": []}}, "mouseout": {"state": {"target": ["12", "0", "12", "13", "14", "19", "19", "20", "21", "22"], "time": [2375, 4674, 6022, 7833, 10145, 10212, 12252, 14630, 18035, 18106]}, "edge": {"target": [], "time": []}}}, "displayed_time": "25.20", "trialTime": 30133, "trial_type": "mouselab-mdp", "trial_index": 18, "time_elapsed": 1192720, "internal_node_id": "0.0-4.0-1.0-9.0"}}, {"uniqueid": "w58197514:a30266268", "current_trial": 19, "dateTime": 1691072337256, "trialdata": {"revealed_states": [], "clicked_states": ["12", "14", "19", "22"], "num_clicks_accrued": [0, 0, 0, 0, 0, 0, 0, 0, 0, 0, 0, 0, 0], "stateRewards": ["", -2, -4, -2, -13, -15, 87, -19, -6, -80, 30, 12, 1, 1, -8, 2, 55, 56, 15, 11, -68, -7, 55, -2, 3, -3, -3, 48, 62, 4, 1, -3, 69, -33], "withholdReward": false, "trial_id": "mdp_trial_11", "block": "test", "trialIndex": 12, "score": 54.4, "costs": -5.6, "simulationMode": [null, null, null, null, null], "rewards": [1, 1, -8, 11, 55], "path": ["0", "0", "12", "13", "14", "19", "22"], "rt": [17481, 459, 270, 743, 1090], "actions": ["right", "right", "right", "down", "left"], "actionTimes": [26056, 27023, 27804, 29045, 30664], "queries": {"click": {"state": {"target": ["12", "14", "19", "22"], "time": [9884, 13754, 16560, 19051]}, "edge": {"target": [], "time": []}}, "mouseover": {"state": {"target": ["12", "13", "14", "13", "14", "19", "19", "22"], "time": [9381, 10505, 12101, 12253, 13178, 14286, 14720, 17296]}, "edge": {"target": [], "time": []}}, "mouseout": {"state": {"target": ["12", "0", "12", "13", "14", "13", "14", "19", "19"], "time": [6766, 9336, 10429, 11871, 12208, 12793, 14252, 14423, 17129]}, "edge": {"target": [], "time": []}}}, "displayed_time": "31.16", "trialTime": 32829, "trial_type": "mouselab-mdp", "trial_index": 19, "time_elapsed": 1226350, "internal_node_id": "0.0-4.0-1.0-10.0"}}, {"uniqueid": "w58197514:a30266268", "current_trial": 20, "dateTime": 1691072371948, "trialdata": {"revealed_states": [], "clicked_states": ["12", "14", "15", "18", "16", "17"], "num_clicks_accrued": [0, 0, 0, 0, 0, 0, 0, 0, 0, 0, 0, 0, 0], "stateRewards": ["", -1, 1, -5, -6, -78, 47, -13, 12, 48, -88, 20, 2, -3, -2, 13, -20, 37, -57, 14, -38, 30, 31, -2, -2, 8, 2, -23, 78, 28, 12, -74, -88, 8], "withholdReward": false, "trial_id": "mdp_trial_12", "block": "test", "trialIndex": 13, "score": 38.6, "costs": -8.4, "simulationMode": [null, null, null, null, null], "rewards": [2, -3, -2, 13, 37], "path": ["0", "0", "12", "13", "14", "15", "17"], "rt": [22220, 508, 744, 888, 857], "actions": ["right", "right", "right", "up", "right"], "actionTimes": [26355, 27361, 28634, 30038, 31407], "queries": {"click": {"state": {"target": ["12", "14", "15", "18", "16", "17"], "time": [6021, 8304, 10908, 13820, 17144, 19949]}, "edge": {"target": [], "time": []}}, "mouseover": {"state": {"target": ["0", "12", "13", "14", "15", "18", "16", "17"], "time": [5372, 5458, 7433, 7665, 10050, 13261, 16362, 19490]}, "edge": {"target": [], "time": []}}, "mouseout": {"state": {"target": ["22", "12", "0", "0", "12", "13", "14", "15", "18", "16"], "time": [2463, 2546, 3139, 5415, 7365, 7540, 8493, 13050, 16293, 19359]}, "edge": {"target": [], "time": []}}}, "displayed_time": "31.90", "trialTime": 33940, "trial_type": "mouselab-mdp", "trial_index": 20, "time_elapsed": 1261042, "internal_node_id": "0.0-4.0-1.0-11.0"}}, {"uniqueid": "w58197514:a30266268", "current_trial": 21, "dateTime": 1691072417589, "trialdata": {"revealed_states": [], "clicked_states": ["12", "14", "15", "17", "19", "20", "21", "22"], "num_clicks_accrued": [0, 0, 0, 0, 0, 0, 0, 0, 0, 0, 0, 0, 0], "stateRewards": ["", -2, 3, 8, -9, 59, 41, -50, -1, 82, 66, 33, 2, -2, 7, 8, 1, -38, 12, -16, 24, -37, 67, 1, 4, -2, 5, 35, -83, 28, 8, -27, 69, -64], "withholdReward": false, "trial_id": "mdp_trial_13", "block": "test", "trialIndex": 14, "score": 46.8, "costs": -11.200000000000001, "simulationMode": [null, null, null, null, null], "rewards": [2, -2, 7, -16, 67], "path": ["0", "0", "12", "13", "14", "19", "22"], "rt": [25519, 538, 470, 1324, 817], "actions": ["right", "right", "right", "down", "left"], "actionTimes": [37393, 38442, 39411, 41235, 42551], "queries": {"click": {"state": {"target": ["12", "14", "15", "17", "19", "20", "21", "22"], "time": [13614, 15814, 18126, 20963, 23602, 25863, 27836, 31258]}, "edge": {"target": [], "time": []}}, "mouseover": {"state": {"target": ["12", "13", "14", "15", "17", "14", "19", "20", "21", "22"], "time": [13096, 14268, 15272, 17504, 18769, 22652, 22714, 24571, 27050, 30289]}, "edge": {"target": [], "time": []}}, "mouseout": {"state": {"target": ["17", "15", "18", "12", "13", "14", "15", "15", "17", "14", "19", "20", "21"], "time": [9984, 10051, 10235, 14203, 15091, 17458, 18314, 18703, 22562, 22665, 24278, 26923, 28032]}, "edge": {"target": [], "time": []}}}, "displayed_time": "43.05", "trialTime": 44789, "trial_type": "mouselab-mdp", "trial_index": 21, "time_elapsed": 1306682, "internal_node_id": "0.0-4.0-1.0-12.0"}}, {"uniqueid": "w58197514:a30266268", "current_trial": 22, "dateTime": 1691072445999, "trialdata": {"revealed_states": [], "clicked_states": ["1", "2", "3", "4", "6"], "num_clicks_accrued": [0, 0, 0, 0, 0, 0, 0, 0, 0, 0, 0, 0, 0], "stateRewards": ["", -1, 1, 8, -8, -49, 62, -78, 16, 28, -81, 78, -2, -3, -1, -4, 67, 49, -2, -13, -16, -39, 83, 1, -4, 4, -5, -20, 7, 84, 7, -32, -59, 19], "withholdReward": false, "trial_id": "mdp_trial_14", "block": "test", "trialIndex": 15, "score": 55, "costs": -7, "simulationMode": [null, null, null, null, null], "rewards": [-1, 1, 8, -8, 62], "path": ["0", "0", "1", "2", "3", "4", "6"], "rt": [17237, 707, 468, 482, 434], "actions": ["up", "up", "up", "right", "right"], "actionTimes": [21425, 22632, 23608, 24597, 25536], "queries": {"click": {"state": {"target": ["1", "2", "3", "4", "6"], "time": [6666, 8358, 10507, 12876, 15030]}, "edge": {"target": [], "time": []}}, "mouseover": {"state": {"target": ["23", "1", "2", "2", "3", "4", "6", "7"], "time": [5781, 6081, 7291, 7856, 9779, 12121, 13616, 17598]}, "edge": {"target": [], "time": []}}, "mouseout": {"state": {"target": ["22", "0", "0", "23", "1", "2", "2", "3", "4", "6", "7"], "time": [2470, 2819, 5558, 5956, 7238, 7441, 8547, 12056, 13537, 17571, 17689]}, "edge": {"target": [], "time": []}}}, "displayed_time": "26.04", "trialTime": 27648, "trial_type": "mouselab-mdp", "trial_index": 22, "time_elapsed": 1335092, "internal_node_id": "0.0-4.0-1.0-13.0"}}, {"uniqueid": "w58197514:a30266268", "current_trial": 23, "dateTime": 1691072516421, "trialdata": {"revealed_states": [], "clicked_states": ["1", "2", "3", "8", "11", "4"], "num_clicks_accrued": [0, 0, 0, 0, 0, 0, 0, 0, 0, 0, 0, 0, 0], "stateRewards": ["", 1, -3, -4, -11, -56, 61, -47, -16, -28, -9, 69, -2, -3, -4, -8, 40, -86, 59, -4, 80, 27, 54, -1, 3, -1, 8, 67, 23, 50, 6, 83, -43, -29], "withholdReward": false, "trial_id": "mdp_trial_15", "block": "test", "trialIndex": 16, "score": 38.6, "costs": -8.4, "simulationMode": [null, null, null, null, null], "rewards": [1, -3, -4, -16, 69], "path": ["0", "0", "1", "2", "3", "8", "11"], "rt": [20602, 1055, 689, 784, 290], "actions": ["up", "up", "up", "left", "left"], "actionTimes": [63207, 64763, 65952, 67235, 68032], "queries": {"click": {"state": {"target": ["1", "2", "3", "8", "11", "4"], "time": [44562, 46480, 49551, 52302, 55237, 57271]}, "edge": {"target": [], "time": []}}, "mouseover": {"state": {"target": ["1", "2", "3", "8", "11", "3", "4", "7", "1"], "time": [44050, 45959, 48983, 51762, 54410, 56163, 56377, 61759, 62282]}, "edge": {"target": [], "time": []}}, "mouseout": {"state": {"target": ["1", "1", "2", "3", "8", "11", "8", "3", "4", "7"], "time": [23337, 45425, 48531, 51610, 54352, 55979, 56029, 56288, 61729, 62081]}, "edge": {"target": [], "time": []}}}, "displayed_time": "68.55", "trialTime": 69608, "trial_type": "mouselab-mdp", "trial_index": 23, "time_elapsed": 1405514, "internal_node_id": "0.0-4.0-1.0-14.0"}}, {"uniqueid": "w58197514:a30266268", "current_trial": 24, "dateTime": 1691072559591, "trialdata": {"revealed_states": [], "clicked_states": ["1", "2", "3", "4", "6", "5", "7", "8", "10", "11"], "num_clicks_accrued": [0, 0, 0, 0, 0, 0, 0, 0, 0, 0, 0, 0, 0], "stateRewards": ["", 2, -3, 5, -14, -63, -9, -24, -11, -54, -43, 68, 2, -2, -4, 7, -64, 30, 47, 12, -74, 11, 86, 1, -3, 3, 10, -71, -42, -52, -1, -29, -16, 69], "withholdReward": false, "trial_id": "mdp_trial_16", "block": "test", "trialIndex": 17, "score": 47, "costs": -14.000000000000002, "simulationMode": [null, null, null, null, null], "rewards": [2, -3, 5, -11, 68], "path": ["0", "0", "1", "2", "3", "8", "11"], "rt": [33477, 328, 321, 719, 165], "actions": ["up", "up", "up", "left", "left"], "actionTimes": [36481, 37312, 38141, 39358, 40036], "queries": {"click": {"state": {"target": ["1", "2", "3", "4", "6", "5", "7", "8", "10", "11"], "time": [5824, 8793, 11772, 13980, 17148, 19828, 21966, 25023, 28018, 31230]}, "edge": {"target": [], "time": []}}, "mouseover": {"state": {"target": ["1", "2", "3", "4", "6", "6", "5", "4", "7", "8", "8", "10", "11", "8"], "time": [5219, 6746, 9670, 13137, 15989, 16470, 19234, 20865, 21196, 24219, 24469, 27381, 30561, 33381]}, "edge": {"target": [], "time": []}}, "mouseout": {"state": {"target": ["1", "0", "1", "2", "3", "4", "6", "6", "5", "4", "7", "8", "8", "10", "11", "11", "8"], "time": [1413, 5068, 6627, 9619, 13048, 15969, 16073, 18881, 20785, 21037, 24098, 24352, 27175, 30075, 31428, 33331, 33401]}, "edge": {"target": [], "time": []}}}, "displayed_time": "40.58", "trialTime": 42390, "trial_type": "mouselab-mdp", "trial_index": 24, "time_elapsed": 1448685, "internal_node_id": "0.0-4.0-1.0-15.0"}}, {"uniqueid": "w58197514:a30266268", "current_trial": 25, "dateTime": 1691072636751, "trialdata": {"revealed_states": [], "clicked_states": ["12", "13", "14", "15", "17", "16", "18", "19", "21", "22", "20"], "num_clicks_accrued": [0, 0, 0, 0, 0, 0, 0, 0, 0, 0, 0, 0, 0], "stateRewards": ["", 2, -3, -4, -1, 25, -16, 16, 10, -71, -20, -55, 1, 3, -4, -9, 1, 32, 11, -6, 32, -50, -41, -1, 4, 4, -8, 7, -81, 70, 2, -52, 45, -10], "withholdReward": false, "trial_id": "mdp_trial_17", "block": "test", "trialIndex": 18, "score": 10.599999999999998, "costs": -15.400000000000002, "simulationMode": [null, null, null, null, null], "rewards": [1, 3, -4, -6, 32], "path": ["0", "0", "12", "13", "14", "19", "20"], "rt": [40035, 687, 530, 1610, 425], "actions": ["right", "right", "right", "down", "right"], "actionTimes": [67974, 69158, 70188, 72305, 73236], "queries": {"click": {"state": {"target": ["12", "13", "14", "15", "17", "16", "18", "19", "21", "22", "20"], "time": [30971, 33822, 36775, 39322, 42211, 45164, 47812, 51230, 54107, 57672, 61059]}, "edge": {"target": [], "time": []}}, "mouseover": {"state": {"target": ["12", "13", "14", "15", "17", "16", "18", "19", "21", "22", "19", "20", "13", "12", "12"], "time": [30450, 31808, 36216, 38679, 41687, 44397, 47259, 50652, 53629, 56221, 60119, 60522, 64571, 64671, 65071]}, "edge": {"target": [], "time": []}}, "mouseout": {"state": {"target": ["2", "1", "12", "13", "14", "15", "17", "16", "18", "18", "19", "21", "22", "19", "20", "13", "12"], "time": [26195, 26335, 31757, 35986, 38560, 41420, 44181, 47204, 48003, 49899, 53497, 54301, 60052, 60172, 64394, 64654, 64688]}, "edge": {"target": [], "time": []}}}, "displayed_time": "73.77", "trialTime": 76303, "trial_type": "mouselab-mdp", "trial_index": 25, "time_elapsed": 1525844, "internal_node_id": "0.0-4.0-1.0-16.0"}}, {"uniqueid": "w58197514:a30266268", "current_trial": 26, "dateTime": 1691072658272, "trialdata": {"revealed_states": [], "clicked_states": [], "num_clicks_accrued": [0, 0, 0, 0, 0, 0, 0, 0, 0, 0, 0, 0, 0], "stateRewards": ["", -2, 2, -4, -4, -59, 88, 62, -3, 69, -15, -34, 1, -2, -5, 7, -54, -20, 78, -16, -74, -53, -21, 2, -4, 2, 13, -8, -44, 26, 9, 72, 4, 17], "withholdReward": false, "trial_id": "mdp_trial_18", "block": "test", "trialIndex": 19, "score": 39, "costs": 0, "simulationMode": [null, null, null, null, null], "rewards": [2, -4, 2, 13, 26], "path": ["0", "0", "23", "24", "25", "26", "29"], "rt": [8910, 428, 353, 1178, 259], "actions": ["left", "left", "left", "up", "left"], "actionTimes": [14146, 15134, 15992, 17670, 18441], "queries": {"click": {"state": {"target": [], "time": []}, "edge": {"target": [], "time": []}}, "mouseover": {"state": {"target": ["12", "23"], "time": [8843, 9543]}, "edge": {"target": [], "time": []}}, "mouseout": {"state": {"target": ["12", "23", "0", "12"], "time": [2265, 2933, 3985, 9483]}, "edge": {"target": [], "time": []}}}, "displayed_time": "19.25", "trialTime": 20674, "trial_type": "mouselab-mdp", "trial_index": 26, "time_elapsed": 1547365, "internal_node_id": "0.0-4.0-1.0-17.0"}}, {"uniqueid": "w58197514:a30266268", "current_trial": 27, "dateTime": 1691072707562, "trialdata": {"revealed_states": [], "clicked_states": ["23", "24", "25", "30", "32", "31", "33", "26", "28", "27", "29"], "num_clicks_accrued": [0, 0, 0, 0, 0, 0, 0, 0, 0, 0, 0, 0, 0], "stateRewards": ["", -1, -2, -1, -10, -57, 73, -72, -16, 75, -14, -46, -2, -3, -7, -1, -61, -60, 76, -4, 50, 4, 14, 2, 2, -7, 12, -65, -32, 15, -8, -76, -25, -61], "withholdReward": false, "trial_id": "mdp_trial_19", "block": "test", "trialIndex": 20, "score": 8.599999999999998, "costs": -15.400000000000002, "simulationMode": [null, null, null, null, null], "rewards": [2, 2, -7, 12, 15], "path": ["0", "0", "23", "24", "25", "26", "29"], "rt": [37711, 1245, 330, 578, 646], "actions": ["left", "left", "left", "up", "left"], "actionTimes": [41939, 43694, 44536, 45660, 46807], "queries": {"click": {"state": {"target": ["23", "24", "25", "30", "32", "31", "33", "26", "28", "27", "29"], "time": [7213, 9809, 12116, 15704, 18678, 21191, 23945, 27153, 29933, 33402, 36354]}, "edge": {"target": [], "time": []}}, "mouseover": {"state": {"target": ["23", "24", "25", "30", "30", "32", "31", "30", "33", "25", "26", "28", "27", "29", "29", "25", "24", "0"], "time": [6650, 8014, 10523, 14437, 14966, 18180, 20584, 23101, 23249, 26241, 26377, 29306, 32849, 35542, 35838, 38765, 38835, 39484]}, "edge": {"target": [], "time": []}}, "mouseout": {"state": {"target": ["23", "0", "23", "24", "25", "30", "30", "30", "32", "31", "30", "33", "25", "26", "28", "27", "29", "29", "25", "24", "0"], "time": [2318, 6456, 7931, 10457, 14404, 14569, 15890, 17739, 20057, 23056, 23150, 26157, 26296, 29151, 32046, 35465, 35592, 38731, 38799, 38852, 39534]}, "edge": {"target": [], "time": []}}}, "displayed_time": "47.31", "trialTime": 48325, "trial_type": "mouselab-mdp", "trial_index": 27, "time_elapsed": 1596655, "internal_node_id": "0.0-4.0-1.0-18.0"}}, {"uniqueid": "w58197514:a30266268", "current_trial": 28, "dateTime": 1691072761565, "trialdata": {"revealed_states": [], "clicked_states": ["1", "2", "3", "4", "6", "5", "7", "8", "10", "11", "9"], "num_clicks_accrued": [0, 0, 0, 0, 0, 0, 0, 0, 0, 0, 0, 0, 0], "stateRewards": ["", 1, -3, -1, 9, -34, -40, 22, -7, 45, 53, -11, 2, 4, 5, 15, 21, 37, -49, -3, 80, -28, -34, 1, -3, 1, 1, -40, -6, -5, -16, -85, -86, 59], "withholdReward": false, "trial_id": "mdp_trial_20", "block": "test", "trialIndex": 21, "score": 27.599999999999998, "costs": -15.400000000000002, "simulationMode": [null, null, null, null, null], "rewards": [1, -3, -1, -7, 53], "path": ["0", "0", "1", "2", "3", "8", "10"], "rt": [33035, 1350, 747, 977, 1674], "actions": ["up", "up", "up", "left", "down"], "actionTimes": [35917, 37777, 39030, 40512, 42697], "queries": {"click": {"state": {"target": ["1", "2", "3", "4", "6", "5", "7", "8", "10", "11", "9"], "time": [4806, 6364, 8566, 10774, 12985, 16297, 18394, 21357, 23756, 25957, 28620]}, "edge": {"target": [], "time": []}}, "mouseover": {"state": {"target": ["1", "2", "3", "4", "6", "5", "4", "7", "3", "8", "10", "10", "11", "9"], "time": [4206, 5722, 7641, 9584, 11671, 14942, 17002, 17189, 19769, 20680, 22142, 22596, 24845, 28075]}, "edge": {"target": [], "time": []}}, "mouseout": {"state": {"target": ["0", "1", "2", "3", "4", "6", "5", "4", "7", "3", "8", "10", "10", "11"], "time": [1656, 5582, 7438, 9456, 11545, 14707, 16911, 17085, 19666, 19933, 22058, 22249, 24574, 27958]}, "edge": {"target": [], "time": []}}}, "displayed_time": "43.20", "trialTime": 53169, "trial_type": "mouselab-mdp", "trial_index": 28, "time_elapsed": 1650659, "internal_node_id": "0.0-4.0-1.0-19.0"}}, {"uniqueid": "w58197514:a30266268", "current_trial": 29, "dateTime": 1691072804413, "trialdata": {"revealed_states": [], "clicked_states": ["12", "13", "14", "15", "18", "16", "17", "19", "22", "21"], "num_clicks_accrued": [0, 0, 0, 0, 0, 0, 0, 0, 0, 0, 0, 0, 0], "stateRewards": ["", -1, -3, 1, 13, -64, -29, 12, -4, -33, 50, 56, 2, -3, 4, 11, -64, -58, -55, 12, 47, 38, -25, -2, 2, 5, -15, 85, 7, 84, 10, 8, 57, 26], "withholdReward": false, "trial_id": "mdp_trial_21", "block": "test", "trialIndex": 22, "score": 39, "costs": -14.000000000000002, "simulationMode": [null, null, null, null, null], "rewards": [2, -3, 4, 12, 38], "path": ["0", "0", "12", "13", "14", "19", "21"], "rt": [32169, 329, 194, 372, 376], "actions": ["right", "right", "right", "down", "down"], "actionTimes": [36777, 37605, 38305, 39186, 40059], "queries": {"click": {"state": {"target": ["12", "13", "14", "15", "18", "16", "17", "19", "22", "21"], "time": [6375, 8495, 10756, 13714, 16135, 19099, 21886, 24967, 27731, 30567]}, "edge": {"target": [], "time": []}}, "mouseover": {"state": {"target": ["12", "13", "14", "15", "18", "16", "17", "14", "19", "22", "21", "20", "13", "12"], "time": [5843, 7235, 9768, 12916, 15478, 18496, 21248, 24032, 24374, 27170, 30012, 32572, 33225, 33392]}, "edge": {"target": [], "time": []}}, "mouseout": {"state": {"target": ["9", "3", "2", "12", "13", "14", "15", "18", "16", "17", "17", "14", "19", "22", "21", "20", "13", "12"], "time": [2270, 2748, 3015, 7184, 9625, 12833, 15277, 18171, 20999, 22069, 23989, 24074, 27133, 29895, 30773, 33141, 33324, 33442]}, "edge": {"target": [], "time": []}}}, "displayed_time": "40.57", "trialTime": 41953, "trial_type": "mouselab-mdp", "trial_index": 29, "time_elapsed": 1693506, "internal_node_id": "0.0-4.0-1.0-20.0"}}, {"uniqueid": "w58197514:a30266268", "current_trial": 30, "dateTime": 1691072829194, "trialdata": {"revealed_states": [], "clicked_states": [], "num_clicks_accrued": [0, 0, 0, 0, 0, 0, 0, 0, 0, 0, 0, 0, 0], "stateRewards": ["", 1, -2, -8, -13, 4, 34, -84, -4, -49, 88, -70, -1, 3, -4, 10, -77, 13, -34, 15, -21, -16, 27, 1, -2, 8, -8, -6, 38, -26, 6, -15, 66, -3], "withholdReward": false, "trial_id": "mdp_trial_22", "block": "test", "trialIndex": 23, "score": -7, "costs": 0, "simulationMode": [null, null, null, null, null], "rewards": [1, -2, 8, -8, -6], "path": ["0", "0", "23", "24", "25", "26", "27"], "rt": [6297, 544, 413, 1196, 210], "actions": ["left", "left", "left", "up", "up"], "actionTimes": [14487, 15535, 16484, 18246, 18963], "queries": {"click": {"state": {"target": [], "time": []}, "edge": {"target": [], "time": []}}, "mouseover": {"state": {"target": ["23"], "time": [10654]}, "edge": {"target": [], "time": []}}, "mouseout": {"state": {"target": ["0"], "time": [6951]}, "edge": {"target": [], "time": []}}}, "displayed_time": "22.23", "trialTime": 23911, "trial_type": "mouselab-mdp", "trial_index": 30, "time_elapsed": 1718287, "internal_node_id": "0.0-4.0-1.0-21.0"}}, {"uniqueid": "w58197514:a30266268", "current_trial": 31, "dateTime": 1691072876721, "trialdata": {"revealed_states": [], "clicked_states": ["12", "13", "14", "15", "17"], "num_clicks_accrued": [0, 0, 0, 0, 0, 0, 0, 0, 0, 0, 0, 0, 0], "stateRewards": ["", 1, 2, -3, -6, 50, -7, 7, -7, -80, 21, -1, 2, 2, 4, -1, 33, 84, 1, 14, -53, 81, 6, -2, -2, -3, -9, -87, -38, -59, -5, -74, -3, -71], "withholdReward": false, "trial_id": "mdp_trial_23", "block": "test", "trialIndex": 24, "score": 84, "costs": -7, "simulationMode": [null, null, null, null, null], "rewards": [2, 2, 4, -1, 84], "path": ["0", "0", "12", "13", "14", "15", "17"], "rt": [17376, 680, 355, 764, 351], "actions": ["right", "right", "right", "up", "right"], "actionTimes": [37215, 38394, 39254, 40516, 41374], "queries": {"click": {"state": {"target": ["12", "13", "14", "15", "17"], "time": [21696, 24426, 26133, 28612, 31727]}, "edge": {"target": [], "time": []}}, "mouseover": {"state": {"target": ["0", "12", "13", "14", "14", "15", "17", "16", "18"], "time": [19938, 21166, 22495, 25092, 25569, 27667, 31062, 33694, 34234]}, "edge": {"target": [], "time": []}}, "mouseout": {"state": {"target": ["23", "0", "12", "13", "14", "14", "15", "17", "16", "18"], "time": [14115, 20966, 22456, 25051, 25186, 26335, 28802, 31905, 33738, 34270]}, "edge": {"target": [], "time": []}}}, "displayed_time": "41.90", "trialTime": 46609, "trial_type": "mouselab-mdp", "trial_index": 31, "time_elapsed": 1765814, "internal_node_id": "0.0-4.0-1.0-22.0"}}, {"uniqueid": "w58197514:a30266268", "current_trial": 32, "dateTime": 1691072919951, "trialdata": {"revealed_states": [], "clicked_states": ["12", "13", "14", "19", "20", "21", "22"], "num_clicks_accrued": [0, 0, 0, 0, 0, 0, 0, 0, 0, 0, 0, 0, 0], "stateRewards": ["", -2, 1, -5, 2, -68, 80, 33, 10, 67, -59, 20, -1, -3, 3, 14, 74, -2, 24, -16, 63, 80, 46, -1, 4, 6, 12, 83, -38, -43, -4, 43, 14, -79], "withholdReward": false, "trial_id": "mdp_trial_24", "block": "test", "trialIndex": 25, "score": 53.2, "costs": -9.8, "simulationMode": [null, null, null, null, null], "rewards": [-1, -3, 3, -16, 80], "path": ["0", "0", "12", "13", "14", "19", "21"], "rt": [22987, 228, 285, 506, 312], "actions": ["right", "right", "right", "down", "down"], "actionTimes": [37224, 37956, 38750, 39757, 40569], "queries": {"click": {"state": {"target": ["12", "13", "14", "19", "20", "21", "22"], "time": [16904, 20054, 22137, 24218, 26207, 28241, 30847]}, "edge": {"target": [], "time": []}}, "mouseover": {"state": {"target": ["12", "13", "13", "14", "19", "20", "21", "22"], "time": [16381, 17845, 19544, 20669, 22889, 25215, 26907, 29882]}, "edge": {"target": [], "time": []}}, "mouseout": {"state": {"target": ["0", "12", "13", "13", "14", "19", "20", "21", "22"], "time": [16186, 17824, 17974, 20601, 22780, 25123, 26755, 28863, 33291]}, "edge": {"target": [], "time": []}}}, "displayed_time": "41.07", "trialTime": 42273, "trial_type": "mouselab-mdp", "trial_index": 32, "time_elapsed": 1809044, "internal_node_id": "0.0-4.0-1.0-23.0"}}, {"uniqueid": "w58197514:a30266268", "current_trial": 33, "dateTime": 1691072946379, "trialdata": {"revealed_states": [], "clicked_states": [], "num_clicks_accrued": [0, 0, 0, 0, 0, 0, 0, 0, 0, 0, 0, 0, 0], "stateRewards": ["", 1, -1, 8, 4, 76, -33, -17, -3, -1, -54, -74, -2, 2, -5, 13, -51, 63, 83, 1, 84, 29, -36, 2, -1, 7, -12, -10, -44, -43, -14, 8, -69, 19], "withholdReward": false, "trial_id": "mdp_trial_25", "block": "test", "trialIndex": 26, "score": -40, "costs": 0, "simulationMode": [null, null, null, null, null], "rewards": [-2, 2, -5, 1, -36], "path": ["0", "0", "12", "13", "14", "19", "22"], "rt": [9954, 4254, 181, 1903, 725], "actions": ["right", "right", "right", "down", "left"], "actionTimes": [12967, 17720, 18397, 20843, 22068], "queries": {"click": {"state": {"target": [], "time": []}, "edge": {"target": [], "time": []}}, "mouseover": {"state": {"target": ["12", "12"], "time": [8888, 9248]}, "edge": {"target": [], "time": []}}, "mouseout": {"state": {"target": ["23", "0", "12"], "time": [1695, 8843, 8963]}, "edge": {"target": [], "time": []}}}, "displayed_time": "22.56", "trialTime": 25338, "trial_type": "mouselab-mdp", "trial_index": 33, "time_elapsed": 1835472, "internal_node_id": "0.0-4.0-1.0-24.0"}}, {"uniqueid": "w58197514:a30266268", "current_trial": 34, "dateTime": 1691072977429, "trialdata": {"revealed_states": [], "clicked_states": ["12", "13", "14", "15", "17", "16", "18"], "num_clicks_accrued": [0, 0, 0, 0, 0, 0, 0, 0, 0, 0, 0, 0, 0], "stateRewards": ["", -1, -3, -3, 1, -38, 2, -53, -2, -1, -81, 70, -1, 1, -5, -9, 46, 15, 35, -1, -22, 38, 59, -2, 4, -8, 13, 1, -83, -43, 4, 76, 13, 48], "withholdReward": false, "trial_id": "mdp_trial_26", "block": "test", "trialIndex": 27, "score": 22.2, "costs": -9.8, "simulationMode": [null, null, null, null, null], "rewards": [-1, 1, -5, -9, 46], "path": ["0", "0", "12", "13", "14", "15", "16"], "rt": [19517, 274, 273, 459, 7], "actions": ["right", "right", "right", "up", "up"], "actionTimes": [24692, 25475, 26261, 27215, 27734], "queries": {"click": {"state": {"target": ["12", "13", "14", "15", "17", "16", "18"], "time": [6438, 8361, 9898, 11569, 13578, 16860, 19781]}, "edge": {"target": [], "time": []}}, "mouseover": {"state": {"target": ["12", "13", "14", "14", "15", "17", "16", "16", "18", "18"], "time": [5895, 7694, 8931, 9310, 10620, 12873, 15937, 16350, 18978, 19292]}, "edge": {"target": [], "time": []}}, "mouseout": {"state": {"target": ["12", "12", "13", "14", "14", "15", "17", "16", "16", "18"], "time": [3848, 7471, 8909, 9000, 10465, 12656, 15887, 15999, 18940, 19060]}, "edge": {"target": [], "time": []}}}, "displayed_time": "28.26", "trialTime": 30023, "trial_type": "mouselab-mdp", "trial_index": 34, "time_elapsed": 1866522, "internal_node_id": "0.0-4.0-1.0-25.0"}}, {"uniqueid": "w58197514:a30266268", "current_trial": 35, "dateTime": 1691073012967, "trialdata": {"revealed_states": [], "clicked_states": ["1", "2", "3", "4", "5", "6", "7"], "num_clicks_accrued": [0, 0, 0, 0, 0, 0, 0, 0, 0, 0, 0, 0, 0], "stateRewards": ["", 1, -1, 8, -3, 38, 85, -20, -4, 8, 23, 73, 2, -4, 6, -13, 44, 7, -28, -11, -77, 45, -69, 1, -1, -7, -11, 75, -51, -87, 7, 36, -53, -26], "withholdReward": false, "trial_id": "mdp_trial_27", "block": "test", "trialIndex": 28, "score": 80.2, "costs": -9.8, "simulationMode": [null, null, null, null, null], "rewards": [1, -1, 8, -3, 85], "path": ["0", "0", "1", "2", "3", "4", "6"], "rt": [18265, 2889, 415, 1535, 458], "actions": ["up", "up", "up", "right", "right"], "actionTimes": [22996, 27366, 28292, 30332, 31301], "queries": {"click": {"state": {"target": ["1", "2", "3", "4", "5", "6", "7"], "time": [7424, 9317, 11185, 13298, 14995, 17060, 19314]}, "edge": {"target": [], "time": []}}, "mouseover": {"state": {"target": ["1", "2", "3", "4", "5", "6", "7"], "time": [6735, 8750, 10100, 12104, 13702, 16296, 18193]}, "edge": {"target": [], "time": []}}, "mouseout": {"state": {"target": ["18", "12", "0", "23", "0", "1", "2", "3", "4", "5", "6", "4"], "time": [2790, 3009, 3225, 3444, 6403, 8699, 10006, 11393, 13495, 16079, 17749, 17857]}, "edge": {"target": [], "time": []}}}, "displayed_time": "31.83", "trialTime": 34392, "trial_type": "mouselab-mdp", "trial_index": 35, "time_elapsed": 1902060, "internal_node_id": "0.0-4.0-1.0-26.0"}}, {"uniqueid": "w58197514:a30266268", "current_trial": 36, "dateTime": 1691073032267, "trialdata": {"revealed_states": [], "clicked_states": [], "num_clicks_accrued": [0, 0, 0, 0, 0, 0, 0, 0, 0, 0, 0, 0, 0], "stateRewards": ["", 1, 4, 5, -5, 58, -80, 75, 6, 25, -39, 46, 2, -2, 4, 2, 59, 31, -22, -12, -61, 15, 72, 1, -2, -7, 8, 77, 76, -23, -7, 71, -15, -3], "withholdReward": false, "trial_id": "mdp_trial_28", "block": "test", "trialIndex": 29, "score": 65, "costs": 0, "simulationMode": [null, null, null, null, null], "rewards": [2, -2, 4, 2, 59], "path": ["0", "0", "12", "13", "14", "15", "16"], "rt": [8502, 606, 439, 449, 41], "actions": ["right", "right", "right", "up", "up"], "actionTimes": [11561, 12673, 13609, 14556, 15104], "queries": {"click": {"state": {"target": [], "time": []}, "edge": {"target": [], "time": []}}, "mouseover": {"state": {"target": ["1"], "time": [6644]}, "edge": {"target": [], "time": []}}, "mouseout": {"state": {"target": ["7"], "time": [1280]}, "edge": {"target": [], "time": []}}}, "displayed_time": "17.07", "trialTime": 18266, "trial_type": "mouselab-mdp", "trial_index": 36, "time_elapsed": 1921361, "internal_node_id": "0.0-4.0-1.0-27.0"}}, {"uniqueid": "w58197514:a30266268", "current_trial": 37, "dateTime": 1691073098907, "trialdata": {"revealed_states": [], "clicked_states": ["12", "14", "19", "21", "22", "20", "15", "18", "16", "17"], "num_clicks_accrued": [0, 0, 0, 0, 0, 0, 0, 0, 0, 0, 0, 0, 0], "stateRewards": ["", -1, 3, 8, 9, -53, 20, -84, 2, -28, -62, -31, -1, -2, -7, 2, 51, 58, 45, -4, -17, -41, 36, 2, -2, -7, -15, 29, -54, -37, -16, -43, 65, -17], "withholdReward": false, "trial_id": "mdp_trial_29", "block": "test", "trialIndex": 30, "score": 36, "costs": -14.000000000000002, "simulationMode": [null, null, null, null, null], "rewards": [-1, -2, -7, 2, 58], "path": ["0", "0", "12", "13", "14", "15", "17"], "rt": [28046, 293, 245, 445, 555], "actions": ["right", "right", "right", "up", "right"], "actionTimes": [59763, 60585, 61334, 62396, 63485], "queries": {"click": {"state": {"target": ["12", "14", "19", "21", "22", "20", "15", "18", "16", "17"], "time": [33669, 36569, 38532, 40501, 43151, 45432, 48449, 50427, 52543, 55499]}, "edge": {"target": [], "time": []}}, "mouseover": {"state": {"target": ["12", "13", "14", "19", "21", "22", "19", "20", "15", "16", "15", "18", "16", "17"], "time": [33200, 34280, 35810, 37678, 39620, 42600, 44151, 44803, 46838, 47733, 47952, 49101, 51820, 54807]}, "edge": {"target": [], "time": []}}, "mouseout": {"state": {"target": ["1", "0", "12", "13", "14", "19", "21", "22", "19", "20", "15", "16", "15", "18", "16"], "time": [29845, 33120, 34241, 35741, 37587, 39491, 42330, 44111, 44355, 46601, 47466, 47851, 49011, 51353, 53502]}, "edge": {"target": [], "time": []}}}, "displayed_time": "64.00", "trialTime": 65645, "trial_type": "mouselab-mdp", "trial_index": 37, "time_elapsed": 1988001, "internal_node_id": "0.0-4.0-1.0-28.0"}}, {"uniqueid": "w58197514:a30266268", "current_trial": 38, "dateTime": 1691073144830, "trialdata": {"revealed_states": [], "clicked_states": ["23", "24", "25", "30", "32", "33", "31", "29", "26", "28", "27"], "num_clicks_accrued": [0, 0, 0, 0, 0, 0, 0, 0, 0, 0, 0, 0, 0], "stateRewards": ["", 2, 4, -3, 16, -58, 30, -35, 11, -60, 47, 27, -2, -1, -7, -16, 23, -70, 68, -10, -65, -43, -34, -2, 1, 7, 9, -63, 34, -31, -8, -12, -86, 59], "withholdReward": false, "trial_id": "mdp_trial_30", "block": "test", "trialIndex": 31, "score": 41.599999999999994, "costs": -15.400000000000002, "simulationMode": [null, null, null, null, null], "rewards": [-2, 1, 7, -8, 59], "path": ["0", "0", "23", "24", "25", "30", "33"], "rt": [31440, 484, 1009, 862, 358], "actions": ["left", "left", "left", "down", "left"], "actionTimes": [35849, 36865, 38375, 39733, 40601], "queries": {"click": {"state": {"target": ["23", "24", "25", "30", "32", "33", "31", "29", "26", "28", "27"], "time": [6098, 8117, 10884, 12989, 15554, 18191, 21754, 25095, 27291, 29870, 31963]}, "edge": {"target": [], "time": []}}, "mouseover": {"state": {"target": ["23", "23", "24", "25", "30", "32", "33", "30", "31", "26", "29", "26", "28", "27"], "time": [5189, 5578, 6923, 9964, 11600, 14515, 17549, 20286, 20520, 23998, 24615, 26071, 29000, 30942]}, "edge": {"target": [], "time": []}}, "mouseout": {"state": {"target": ["17", "18", "1", "0", "23", "23", "24", "25", "30", "32", "33", "30", "31", "26", "29", "26", "28"], "time": [2453, 2556, 2756, 5133, 5300, 6286, 8310, 11537, 14219, 15737, 20252, 20403, 23963, 24017, 25287, 27488, 30752]}, "edge": {"target": [], "time": []}}}, "displayed_time": "41.11", "trialTime": 44861, "trial_type": "mouselab-mdp", "trial_index": 38, "time_elapsed": 2033922, "internal_node_id": "0.0-4.0-1.0-29.0"}}, {"uniqueid": "w58197514:a30266268", "current_trial": 39, "dateTime": 1691073180923, "trialdata": {"revealed_states": [], "clicked_states": ["23", "24", "25", "26", "27", "29", "28"], "num_clicks_accrued": [0, 0, 0, 0, 0, 0, 0, 0, 0, 0, 0, 0, 0], "stateRewards": ["", -1, 3, 2, 9, 41, 4, -46, -12, -54, -87, -25, 2, 3, -1, 11, -77, 12, -33, -9, -32, 35, 72, 1, 3, -7, 4, 37, 65, -73, 6, 77, -43, 8], "withholdReward": false, "trial_id": "mdp_trial_31", "block": "test", "trialIndex": 32, "score": 56.2, "costs": -9.8, "simulationMode": [null, null, null, null, null], "rewards": [1, 3, -7, 4, 65], "path": ["0", "0", "23", "24", "25", "26", "28"], "rt": [21670, 409, 355, 790, 950], "actions": ["left", "left", "left", "up", "right"], "actionTimes": [27952, 28886, 29738, 31027, 32475], "queries": {"click": {"state": {"target": ["23", "24", "25", "26", "27", "29", "28"], "time": [8163, 9995, 12183, 14608, 16925, 20054, 22262]}, "edge": {"target": [], "time": []}}, "mouseover": {"state": {"target": ["23", "24", "25", "26", "27", "29", "26", "28"], "time": [7537, 9326, 11446, 13426, 16218, 19102, 20727, 21003]}, "edge": {"target": [], "time": []}}, "mouseout": {"state": {"target": ["27", "0", "23", "24", "25", "26", "27", "29", "26"], "time": [1892, 7335, 9181, 11073, 12959, 15947, 19046, 20653, 20879]}, "edge": {"target": [], "time": []}}}, "displayed_time": "32.98", "trialTime": 35022, "trial_type": "mouselab-mdp", "trial_index": 39, "time_elapsed": 2070016, "internal_node_id": "0.0-4.0-1.0-30.0"}}, {"uniqueid": "w58197514:a30266268", "current_trial": 40, "dateTime": 1691073223064, "trialdata": {"revealed_states": [], "clicked_states": ["1", "2", "3", "4", "6", "5", "7", "10", "8", "11", "9"], "num_clicks_accrued": [0, 0, 0, 0, 0, 0, 0, 0, 0, 0, 0, 0, 0], "stateRewards": ["", -2, -3, 4, 1, 33, -53, 15, 9, -12, 61, -6, -2, 4, 6, -11, 47, -43, -7, -11, 46, 23, -28, -1, -1, 3, -10, 11, 76, -76, 10, 18, -38, 87], "withholdReward": false, "trial_id": "mdp_trial_32", "block": "test", "trialIndex": 33, "score": 53.599999999999994, "costs": -15.400000000000002, "simulationMode": [null, null, null, null, null], "rewards": [-2, -3, 4, 9, 61], "path": ["0", "0", "1", "2", "3", "8", "10"], "rt": [29571, 298, 250, 700, 538], "actions": ["up", "up", "up", "left", "down"], "actionTimes": [34732, 35532, 36280, 37484, 38554], "queries": {"click": {"state": {"target": ["1", "2", "3", "4", "6", "5", "7", "10", "8", "11", "9"], "time": [8081, 10127, 12121, 14339, 16666, 18247, 21261, 23570, 25550, 27663, 29723]}, "edge": {"target": [], "time": []}}, "mouseover": {"state": {"target": ["1", "2", "3", "4", "6", "5", "4", "7", "10", "8", "8", "11", "9", "10", "1"], "time": [7577, 9248, 10894, 12810, 15809, 17375, 20339, 20757, 22950, 24343, 25026, 26294, 28474, 32198, 32476]}, "edge": {"target": [], "time": []}}, "mouseout": {"state": {"target": ["28", "1", "1", "2", "3", "4", "6", "5", "4", "7", "10", "8", "8", "11", "9", "10", "1"], "time": [3548, 3830, 9052, 10758, 12734, 15540, 17209, 20203, 20439, 22269, 24193, 24444, 25741, 28320, 32129, 32216, 32715]}, "edge": {"target": [], "time": []}}}, "displayed_time": "39.06", "trialTime": 40910, "trial_type": "mouselab-mdp", "trial_index": 40, "time_elapsed": 2112157, "internal_node_id": "0.0-4.0-1.0-31.0"}}, {"uniqueid": "w58197514:a30266268", "current_trial": 41, "dateTime": 1691073288589, "trialdata": {"revealed_states": [], "clicked_states": ["12", "13", "14", "15", "16", "18", "17", "20", "19", "22", "21", "23", "24", "25", "26", "28", "27", "29"], "num_clicks_accrued": [0, 0, 0, 0, 0, 0, 0, 0, 0, 0, 0, 0, 0], "stateRewards": ["", -2, -2, -3, -6, -15, -11, 41, -12, -63, -76, 2, -2, -3, 8, 9, -36, -2, -18, -16, -32, -85, -17, -2, 1, 5, -16, 82, 35, -88, -1, 80, -82, -20], "withholdReward": false, "trial_id": "mdp_trial_33", "block": "test", "trialIndex": 34, "score": 44.80000000000001, "costs": -25.199999999999992, "simulationMode": [null, null, null, null, null], "rewards": [-2, 1, 5, -16, 82], "path": ["0", "0", "23", "24", "25", "26", "27"], "rt": [49949, 444, 354, 941, 879], "actions": ["left", "left", "left", "up", "up"], "actionTimes": [56975, 57926, 58789, 60237, 61679], "queries": {"click": {"state": {"target": ["12", "13", "14", "15", "16", "18", "17", "20", "19", "22", "21", "23", "24", "25", "26", "28", "27", "29"], "time": [8335, 10516, 12612, 14694, 17410, 19508, 21653, 24238, 26830, 29311, 31468, 35428, 37901, 40130, 41961, 44525, 47819, 49875]}, "edge": {"target": [], "time": []}}, "mouseover": {"state": {"target": ["12", "13", "14", "14", "15", "16", "18", "15", "17", "20", "19", "22", "21", "23", "0", "23", "24", "25", "26", "28", "27", "29"], "time": [7813, 9867, 11762, 12068, 13321, 15378, 18267, 20109, 20159, 23638, 25074, 27500, 30168, 34213, 34313, 34913, 37247, 39549, 41280, 44027, 46533, 48553]}, "edge": {"target": [], "time": []}}, "mouseout": {"state": {"target": ["1", "12", "13", "14", "14", "15", "16", "18", "15", "17", "20", "19", "22", "22", "21", "22", "23", "0", "23", "24", "25", "26", "28", "27", "27", "29"], "time": [5459, 9652, 11665, 11912, 12799, 15268, 18120, 20097, 20149, 22718, 24424, 27431, 29509, 30027, 31652, 33860, 34247, 34352, 37188, 39486, 40841, 43713, 46412, 48004, 48400, 52181]}, "edge": {"target": [], "time": []}}}, "displayed_time": "62.18", "trialTime": 64372, "trial_type": "mouselab-mdp", "trial_index": 41, "time_elapsed": 2177683, "internal_node_id": "0.0-4.0-1.0-32.0"}}, {"uniqueid": "w58197514:a30266268", "current_trial": 42, "dateTime": 1691073320091, "trialdata": {"revealed_states": [], "clicked_states": ["12", "13", "14", "19", "20", "21"], "num_clicks_accrued": [0, 0, 0, 0, 0, 0, 0, 0, 0, 0, 0, 0, 0], "stateRewards": ["", -2, -3, -3, 9, 79, 67, 22, -15, -56, 27, -85, -2, 4, -4, -15, -20, -32, 60, 15, 71, 57, 17, 1, 2, -8, 15, -37, -81, 82, 15, 21, -3, 2], "withholdReward": false, "trial_id": "mdp_trial_34", "block": "test", "trialIndex": 35, "score": 75.6, "costs": -8.4, "simulationMode": [null, null, null, null, null], "rewards": [-2, 4, -4, 15, 71], "path": ["0", "0", "12", "13", "14", "19", "20"], "rt": [18859, 364, 389, 788, 484], "actions": ["right", "right", "right", "down", "right"], "actionTimes": [23297, 24168, 25063, 26348, 27331], "queries": {"click": {"state": {"target": ["12", "13", "14", "19", "20", "21"], "time": [6799, 8807, 11065, 13886, 16419, 18563]}, "edge": {"target": [], "time": []}}, "mouseover": {"state": {"target": ["23", "0", "12", "13", "14", "19", "20", "21", "22", "12"], "time": [6014, 6056, 6289, 8788, 10329, 12863, 14623, 17551, 21327, 21644]}, "edge": {"target": [], "time": []}}, "mouseout": {"state": {"target": ["23", "0", "12", "13", "14", "19", "20", "21", "22", "12"], "time": [6037, 6122, 8775, 10282, 12763, 14563, 17468, 21296, 21364, 21663]}, "edge": {"target": [], "time": []}}}, "displayed_time": "27.84", "trialTime": 30544, "trial_type": "mouselab-mdp", "trial_index": 42, "time_elapsed": 2209185, "internal_node_id": "0.0-4.0-1.0-33.0"}}, {"uniqueid": "w58197514:a30266268", "current_trial": 43, "dateTime": 1691073361937, "trialdata": {"revealed_states": [], "clicked_states": ["12", "13", "14", "19", "20", "21", "22", "15", "17", "18", "16"], "num_clicks_accrued": [0, 0, 0, 0, 0, 0, 0, 0, 0, 0, 0, 0, 0], "stateRewards": ["", -1, -4, 8, 8, -68, 47, 24, -7, -61, 49, -69, -1, -1, 8, -7, 42, 1, -45, -11, 10, -63, -6, 1, 4, 6, -16, 79, -37, -58, -12, 81, 18, -53], "withholdReward": false, "trial_id": "mdp_trial_35", "block": "test", "trialIndex": 36, "score": 25.599999999999998, "costs": -15.400000000000002, "simulationMode": [null, null, null, null, null], "rewards": [-1, -1, 8, -7, 42], "path": ["0", "0", "12", "13", "14", "15", "16"], "rt": [28587, 371, 163, 691, 171], "actions": ["right", "right", "right", "up", "up"], "actionTimes": [35279, 36154, 36829, 38026, 38693], "queries": {"click": {"state": {"target": ["12", "13", "14", "19", "20", "21", "22", "15", "17", "18", "16"], "time": [9604, 11536, 13377, 15474, 17544, 19591, 22100, 24840, 26972, 29266, 31432]}, "edge": {"target": [], "time": []}}, "mouseover": {"state": {"target": ["0", "12", "13", "13", "14", "19", "20", "21", "22", "19", "14", "15", "17", "18", "16"], "time": [8865, 9065, 10519, 10895, 12391, 14633, 16246, 18178, 21177, 23333, 23588, 24252, 26179, 28711, 30031]}, "edge": {"target": [], "time": []}}, "mouseout": {"state": {"target": ["0", "0", "12", "13", "13", "13", "14", "19", "19", "20", "21", "22", "19", "14", "15", "17", "15", "18"], "time": [5551, 8920, 10477, 10613, 11727, 12254, 14498, 15662, 16164, 17741, 19784, 23249, 23453, 23929, 25972, 28162, 28522, 29868]}, "edge": {"target": [], "time": []}}}, "displayed_time": "39.19", "trialTime": 40679, "trial_type": "mouselab-mdp", "trial_index": 43, "time_elapsed": 2251031, "internal_node_id": "0.0-4.0-1.0-34.0"}}, {"uniqueid": "w58197514:a30266268", "current_trial": 44, "dateTime": 1691073400786, "trialdata": {"revealed_states": [], "clicked_states": ["23", "24", "25", "30", "32", "33", "31", "29", "26", "28"], "num_clicks_accrued": [0, 0, 0, 0, 0, 0, 0, 0, 0, 0, 0, 0, 0], "stateRewards": ["", 2, -4, -8, -15, 71, -43, -41, 7, -17, 20, 67, -1, -1, -4, 6, 37, -24, -47, 9, 34, 57, 45, 1, 2, -4, -5, -23, 88, -5, 13, -40, 43, 44], "withholdReward": false, "trial_id": "mdp_trial_36", "block": "test", "trialIndex": 37, "score": 68, "costs": -14.000000000000002, "simulationMode": [null, null, null, null, null], "rewards": [1, 2, -4, -5, 88], "path": ["0", "0", "23", "24", "25", "26", "28"], "rt": [27768, 431, 323, 772, 1124], "actions": ["left", "left", "left", "up", "right"], "actionTimes": [31075, 32004, 32834, 34102, 35725], "queries": {"click": {"state": {"target": ["23", "24", "25", "30", "32", "33", "31", "29", "26", "28"], "time": [5788, 7536, 9857, 11839, 14497, 16226, 18509, 21664, 24254, 26617]}, "edge": {"target": [], "time": []}}, "mouseover": {"state": {"target": ["23", "24", "24", "25", "30", "32", "33", "30", "31", "26", "29", "26", "28", "27", "26", "29"], "time": [4945, 6561, 6959, 8069, 10683, 12388, 15163, 17335, 17897, 20733, 20966, 22393, 25022, 27522, 29763, 29813]}, "edge": {"target": [], "time": []}}, "mouseout": {"state": {"target": ["16", "1", "0", "23", "24", "24", "25", "30", "32", "33", "30", "31", "26", "29", "29", "26", "28", "27", "26", "29"], "time": [1156, 1363, 4513, 6537, 6622, 8026, 10648, 12326, 15103, 16422, 17437, 20585, 20832, 21851, 22332, 24960, 27459, 29740, 29782, 29832]}, "edge": {"target": [], "time": []}}}, "displayed_time": "36.23", "trialTime": 37890, "trial_type": "mouselab-mdp", "trial_index": 44, "time_elapsed": 2289879, "internal_node_id": "0.0-4.0-1.0-35.0"}}, {"uniqueid": "w58197514:a30266268", "current_trial": 45, "dateTime": 1691073445779, "trialdata": {"revealed_states": [], "clicked_states": ["12", "13", "14", "19", "20", "21", "22", "15", "17", "16", "18"], "num_clicks_accrued": [0, 0, 0, 0, 0, 0, 0, 0, 0, 0, 0, 0, 0], "stateRewards": ["", 1, 1, 6, -14, -40, 37, 16, -13, 33, -68, 49, 2, 4, 3, 6, 55, 27, 32, 10, -65, 20, -87, 2, 1, -6, -5, -42, 12, 29, -8, 16, 76, -33], "withholdReward": false, "trial_id": "mdp_trial_37", "block": "test", "trialIndex": 38, "score": 54.599999999999994, "costs": -15.400000000000002, "simulationMode": [null, null, null, null, null], "rewards": [2, 4, 3, 6, 55], "path": ["0", "0", "12", "13", "14", "15", "16"], "rt": [32771, 224, 285, 722, 135], "actions": ["right", "right", "right", "up", "up"], "actionTimes": [37547, 38304, 39094, 40318, 40952], "queries": {"click": {"state": {"target": ["12", "13", "14", "19", "20", "21", "22", "15", "17", "16", "18"], "time": [6647, 9212, 11258, 13860, 16018, 18154, 21204, 24637, 26834, 29811, 32513]}, "edge": {"target": [], "time": []}}, "mouseover": {"state": {"target": ["12", "13", "14", "19", "20", "21", "22", "14", "15", "17", "16", "16", "18"], "time": [6074, 7397, 10043, 13206, 15113, 16856, 20640, 23604, 23804, 25757, 28942, 29303, 31949]}, "edge": {"target": [], "time": []}}, "mouseout": {"state": {"target": ["25", "24", "23", "12", "13", "14", "14", "19", "20", "19", "21", "22", "14", "15", "17", "16", "16"], "time": [3090, 3163, 3397, 6845, 9416, 11458, 13147, 15019, 16660, 16730, 20293, 23535, 23636, 25566, 28914, 28988, 31730]}, "edge": {"target": [], "time": []}}}, "displayed_time": "41.45", "trialTime": 43623, "trial_type": "mouselab-mdp", "trial_index": 45, "time_elapsed": 2334872, "internal_node_id": "0.0-4.0-1.0-36.0"}}, {"uniqueid": "w58197514:a30266268", "current_trial": 46, "dateTime": 1691073480337, "trialdata": {"revealed_states": [], "clicked_states": ["12", "13", "14", "19", "20", "21", "22"], "num_clicks_accrued": [0, 0, 0, 0, 0, 0, 0, 0, 0, 0, 0, 0, 0], "stateRewards": ["", 2, 3, 8, 11, 25, -80, 6, -4, -56, 84, -23, -2, -4, -3, 4, -51, -9, -61, -15, -64, 67, -35, 1, -1, -7, -6, 83, 59, -15, 12, -79, 56, 41], "withholdReward": false, "trial_id": "mdp_trial_38", "block": "test", "trialIndex": 39, "score": 33.2, "costs": -9.8, "simulationMode": [null, null, null, null, null], "rewards": [-2, -4, -3, -15, 67], "path": ["0", "0", "12", "13", "14", "19", "21"], "rt": [22788, 325, 187, 660, 493], "actions": ["right", "right", "right", "down", "down"], "actionTimes": [27591, 28418, 29116, 30275, 31312], "queries": {"click": {"state": {"target": ["12", "13", "14", "19", "20", "21", "22"], "time": [6963, 9037, 11450, 14779, 16770, 19383, 22524]}, "edge": {"target": [], "time": []}}, "mouseover": {"state": {"target": ["12", "13", "14", "19", "20", "20", "21", "22", "22"], "time": [6430, 7688, 9535, 14196, 15667, 16022, 17462, 20166, 20636]}, "edge": {"target": [], "time": []}}, "mouseout": {"state": {"target": ["18", "0", "12", "13", "14", "19", "20", "20", "21", "22", "22"], "time": [2416, 6378, 7625, 9185, 14139, 15547, 15753, 17372, 20100, 20289, 22718]}, "edge": {"target": [], "time": []}}}, "displayed_time": "31.82", "trialTime": 33496, "trial_type": "mouselab-mdp", "trial_index": 46, "time_elapsed": 2369430, "internal_node_id": "0.0-4.0-1.0-37.0"}}, {"uniqueid": "w58197514:a30266268", "current_trial": 47, "dateTime": 1691073530936, "trialdata": {"revealed_states": [], "clicked_states": ["23", "24", "25", "30", "32", "33", "31", "26", "29", "28"], "num_clicks_accrued": [0, 0, 0, 0, 0, 0, 0, 0, 0, 0, 0, 0, 0], "stateRewards": ["", 1, 4, -8, -13, -13, -87, -77, -10, -44, 54, 42, 2, -3, -4, 12, -9, -80, 52, 9, 84, -2, -65, 1, -4, -5, -6, 8, 80, 32, 13, -59, -5, -13], "withholdReward": false, "trial_id": "mdp_trial_39", "block": "test", "trialIndex": 40, "score": 52, "costs": -14.000000000000002, "simulationMode": [null, null, null, null, null], "rewards": [1, -4, -5, -6, 80], "path": ["0", "0", "23", "24", "25", "26", "28"], "rt": [31932, 349, 530, 793, 882], "actions": ["left", "left", "left", "up", "right"], "actionTimes": [38693, 39551, 40589, 41901, 43278], "queries": {"click": {"state": {"target": ["23", "24", "25", "30", "32", "33", "31", "26", "29", "28"], "time": [9570, 11717, 14111, 16181, 18887, 21890, 24065, 27016, 30057, 33206]}, "edge": {"target": [], "time": []}}, "mouseover": {"state": {"target": ["23", "24", "25", "25", "30", "32", "33", "30", "31", "25", "26", "29", "28", "27"], "time": [8648, 11043, 12985, 13523, 15274, 18276, 21231, 22714, 23023, 26105, 26499, 29498, 32730, 33786]}, "edge": {"target": [], "time": []}}, "mouseout": {"state": {"target": ["22", "0", "23", "24", "25", "25", "30", "32", "33", "30", "31", "25", "26", "29", "28"], "time": [5392, 5679, 10924, 11917, 13071, 15115, 18243, 20751, 22648, 22836, 26040, 26153, 29361, 30251, 33712]}, "edge": {"target": [], "time": []}}}, "displayed_time": "43.79", "trialTime": 49393, "trial_type": "mouselab-mdp", "trial_index": 47, "time_elapsed": 2420030, "internal_node_id": "0.0-4.0-1.0-38.0"}}, {"uniqueid": "w58197514:a30266268", "current_trial": 48, "dateTime": 1691073561169, "trialdata": {"revealed_states": [], "clicked_states": ["12", "14", "19", "20", "21", "22"], "num_clicks_accrued": [0, 0, 0, 0, 0, 0, 0, 0, 0, 0, 0, 0, 0], "stateRewards": ["", -1, 2, -7, -12, -62, 12, -13, 5, 77, -71, 83, 1, -4, 7, 15, -42, -87, -4, 5, -25, 44, 88, -1, 4, -5, -8, 14, 51, 8, -5, 83, -24, -19], "withholdReward": false, "trial_id": "mdp_trial_40", "block": "test", "trialIndex": 41, "score": 88.6, "costs": -8.4, "simulationMode": [null, null, null, null, null], "rewards": [1, -4, 7, 5, 88], "path": ["0", "0", "12", "13", "14", "19", "22"], "rt": [17817, 347, 509, 552, 789], "actions": ["right", "right", "right", "down", "left"], "actionTimes": [20943, 21798, 22813, 23877, 25179], "queries": {"click": {"state": {"target": ["12", "14", "19", "20", "21", "22"], "time": [4841, 7364, 9356, 12047, 14173, 16349]}, "edge": {"target": [], "time": []}}, "mouseover": {"state": {"target": ["12", "13", "14", "19", "20", "21", "22", "14", "14"], "time": [4005, 5422, 6817, 8358, 9988, 12839, 15551, 17603, 18783]}, "edge": {"target": [], "time": []}}, "mouseout": {"state": {"target": ["27", "28", "12", "13", "14", "19", "20", "21", "22", "14", "14"], "time": [1523, 1578, 5380, 6744, 8217, 9948, 12766, 14732, 17479, 17670, 18838]}, "edge": {"target": [], "time": []}}}, "displayed_time": "25.68", "trialTime": 28994, "trial_type": "mouselab-mdp", "trial_index": 48, "time_elapsed": 2450263, "internal_node_id": "0.0-4.0-1.0-39.0"}}, {"uniqueid": "w58197514:a30266268", "current_trial": 49, "dateTime": 1691073622051, "trialdata": {"rt": 60823, "response": {"Q0": "$-2 to $2", "Q1": "$-32 to $32", "Q2": "$-88 to $88", "Q3": "The cost was always $1.4.", "Q4": "Very motivated"}, "question_order": [0, 1, 2, 3, 4], "trial_id": "final_quiz_control", "trial_type": "survey-multi-choice", "trial_index": 49, "time_elapsed": 2511145, "internal_node_id": "0.0-4.0-2.0"}}, {"uniqueid": "w58197514:a30266268", "current_trial": 50, "dateTime": 1691073733688, "trialdata": {"rt": 111538, "response": {"Q0": "i didnt have any strategy", "Q1": "no i didnt", "Q2": "it was difficult because the amounts kept changing"}, "trial_id": "self_report_control", "trial_type": "survey-text", "trial_index": 50, "time_elapsed": 2622783, "internal_node_id": "0.0-4.0-3.0"}}, {"uniqueid": "w58197514:a30266268", "current_trial": 51, "dateTime": 1691073767020, "trialdata": {"rt": 33313, "response": {"gender": "female", "age": "22", "colorblind": "0", "effort": "0"}, "trial_type": "survey-html-form", "trial_index": 51, "time_elapsed": 2656114, "internal_node_id": "0.0-4.0-4.0"}}, {"uniqueid": "w58197514:a30266268", "current_trial": 52, "dateTime": 1691073797075, "trialdata": {"rt": 29935, "response": {"Q0": "none", "Q1": "no", "Q2": ""}, "trial_type": "survey-text", "trial_index": 52, "time_elapsed": 2686170, "internal_node_id": "0.0-4.0-5.0"}}, {"uniqueid": "w58197514:a30266268", "current_trial": 53, "dateTime": 1691073805970, "trialdata": {"rt": 8877, "stimulus": "Press 'Finish HIT' in order to reach the completion code. Once the data has been saved, you will receive the code either in this window or in the original browser window where you started the experiment.\n", "response": 0, "trial_type": "html-button-response", "trial_index": 53, "time_elapsed": 2695065, "internal_node_id": "0.0-5.0"}}, {"uniqueid": "w58197514:a30266268", "current_trial": 54, "dateTime": 1691073806987, "trialdata": {"success": true, "trial_type": "fullscreen", "trial_index": 54, "time_elapsed": 2696082, "internal_node_id": "0.0-6.0"}}], "questiondata": {"params": {"CODE": "C6DMOQA6", "MIN_TIME": 14, "inspectCost": 1, "startTime": "Thu Aug 03 2023 15:58:28 GMT+0200 (South Africa Standard Time)", "bonusRate": 0.002, "variance": "1_2_4_8_44", "branching": "31123"}, "final_score": 1258.4}, "eventdata": [{"eventtype": "initialized", "value": null, "timestamp": 1691071107997, "interval": 0}, {"eventtype": "window_resize", "value": [1024, 650], "timestamp": 1691071107997, "interval": 0}, {"eventtype": "window_resize", "value": [1024, 650], "timestamp": 1691071108577, "interval": 580}, {"eventtype": "window_resize", "value": [1366, 768], "timestamp": 1691071117839, "interval": 9262}], "useragent": "Mozilla/5.0 (Windows NT 10.0; Win64; x64) AppleWebKit/537.36 (KHTML, like Gecko) Chrome/115.0.0.0 Safari/537.36 Edg/115.0.1901.188", "mode": "live", "id": "w58197514:a30266268", "status": "user data saved", "Beginhit": "2023-08-03 13:58:24.728934", "Beginexp": "2023-08-03 13:58:39.600487", "Endhit": "2023-08-03 14:43:33.049687", "psiturkStatus": 3, "browser": "<redacted>", "platform": "windows", "language": "en-US"}