{"condition": 1, "counterbalance": 0, "assignmentId": "a18863329", "workerId": "w27232243", "hitId": "h95131731", "currenttrial": 7, "bonus": 0, "data": [{"uniqueid": "w27232243:a18863329", "current_trial": 0, "dateTime": 1693565876235, "trialdata": {"success": true, "trial_type": "fullscreen", "trial_index": 0, "time_elapsed": 94980, "internal_node_id": "0.0-0.0"}}, {"uniqueid": "w27232243:a18863329", "current_trial": 1, "dateTime": 1693565902764, "trialdata": {"view_history": [{"page_index": 0, "viewing_time": 26522}], "rt": 26523, "trial_id": "exp_instructions_misaligned", "trial_type": "instructions", "trial_index": 1, "time_elapsed": 121509, "internal_node_id": "0.0-1.0"}}, {"uniqueid": "w27232243:a18863329", "current_trial": 2, "dateTime": 1693566787420, "trialdata": {"view_history": [{"page_index": 0, "viewing_time": 589359}, {"page_index": 1, "viewing_time": 223213}, {"page_index": 2, "viewing_time": 23565}, {"page_index": 3, "viewing_time": 48516}], "rt": 884654, "trial_id": "mouselab_instructions_1_misaligned", "trial_type": "instructions", "trial_index": 2, "time_elapsed": 1006165, "internal_node_id": "0.0-2.0-1.0"}}, {"uniqueid": "w27232243:a18863329", "current_trial": 3, "dateTime": 1693566875117, "trialdata": {"revealed_states": [], "clicked_states": ["3", "2", "23"], "num_clicks_accrued": [0, 0, 0, 0, 0, 0, 0, 0, 0, 0, 0, 0, 0], "stateRewards": ["", 10, -10, -10, 10, -10, -10, -10, 10, -10, -10, 10, 10, -10, -10, 10, -10, 10, -10, -10, -10, -10, 10, -10, -10, 10, 10, -10, -10, 10, 10, -10, -10, -10], "withholdReward": false, "trial_id": "practice_1", "block": "test", "trialIndex": 0, "score": -8, "costs": -1.5, "simulationMode": [null, null, null, null, null], "rewards": [10, -10, -10, 10, -10], "path": ["0", "0", "12", "13", "14", "15", "16"], "rt": [28227, 421, 1582, 855, 472], "actions": ["right", "right", "right", "up", "up"], "actionTimes": [33704, 34672, 36818, 38207, 39240], "queries": {"click": {"state": {"target": ["3", "2", "23"], "time": [9749, 19833, 26356]}, "edge": {"target": [], "time": []}}, "mouseover": {"state": {"target": ["0", "1", "2", "3", "2", "10", "8", "9", "3", "2", "3", "2", "3", "3", "2", "1", "23", "1", "2", "1"], "time": [5518, 7328, 8312, 9140, 10986, 11630, 11745, 12636, 13796, 14313, 14792, 15409, 18565, 19374, 19630, 20468, 26113, 28808, 29321, 29933]}, "edge": {"target": [], "time": []}}, "mouseout": {"state": {"target": ["0", "0", "1", "2", "3", "2", "10", "8", "9", "3", "2", "3", "2", "3", "3", "2", "1", "23", "1", "2", "1", "0", "0"], "time": [2627, 6436, 8250, 8991, 10560, 11394, 11657, 12573, 13297, 13812, 14672, 15153, 18477, 18628, 19513, 20410, 23591, 28029, 29127, 29898, 30020, 85323, 86194]}, "edge": {"target": [], "time": []}}}, "displayed_time": "39.80", "trialTime": 86666, "trial_type": "mouselab-mdp", "trial_index": 3, "time_elapsed": 1093862, "internal_node_id": "0.0-2.0-2.0-0.0"}}, {"uniqueid": "w27232243:a18863329", "current_trial": 4, "dateTime": 1693566906583, "trialdata": {"revealed_states": [], "clicked_states": ["1", "12", "23"], "num_clicks_accrued": [0, 0, 0, 0, 0, 0, 0, 0, 0, 0, 0, 0, 0], "stateRewards": ["", 10, 10, 10, 10, 10, -10, 10, 10, -10, -10, 10, 10, -10, -10, -10, 10, 10, 10, 10, -10, -10, 10, -10, -10, 10, -10, -10, -10, 10, -10, 10, -10, -10], "withholdReward": false, "trial_id": "practice_2", "block": "test", "trialIndex": 1, "score": -8, "costs": -1.5, "simulationMode": [null, null, null, null, null], "rewards": [10, -10, -10, -10, 10], "path": ["0", "0", "12", "13", "14", "15", "16"], "rt": [14313, 199, 1259, 588, 443], "actions": ["right", "right", "right", "up", "up"], "actionTimes": [20010, 20763, 22574, 23720, 24725], "queries": {"click": {"state": {"target": ["1", "12", "23"], "time": [10279, 13327, 16087]}, "edge": {"target": [], "time": []}}, "mouseover": {"state": {"target": ["1", "12", "0", "23", "0", "12"], "time": [9674, 12948, 15439, 15799, 17845, 18142]}, "edge": {"target": [], "time": []}}, "mouseout": {"state": {"target": ["0", "0", "1", "12", "0", "23", "0", "12"], "time": [3454, 3923, 11767, 14066, 15647, 17709, 17991, 18205]}, "edge": {"target": [], "time": []}}}, "displayed_time": "25.27", "trialTime": 30471, "trial_type": "mouselab-mdp", "trial_index": 4, "time_elapsed": 1125328, "internal_node_id": "0.0-2.0-2.0-1.0"}}, {"uniqueid": "w27232243:a18863329", "current_trial": 5, "dateTime": 1693566965973, "trialdata": {"view_history": [{"page_index": 0, "viewing_time": 44186}, {"page_index": 1, "viewing_time": 15201}], "rt": 59388, "trial_id": "mouselab_instructions_2_misaligned", "trial_type": "instructions", "trial_index": 5, "time_elapsed": 1184718, "internal_node_id": "0.0-2.0-3.0"}}, {"uniqueid": "w27232243:a18863329", "current_trial": 6, "dateTime": 1693567015612, "trialdata": {"rt": 49632, "response": {"Q0": "The cost for clicking on nodes may vary between nodes.", "Q1": "The better I perform the higher my bonus will be.", "Q2": "No, the amount of cash at each node of the web may be different each time.", "Q3": "To click on the least number of nodes.", "Q4": "Any time during the round.", "Q5": "3 seconds"}, "question_order": [0, 1, 2, 3, 4, 5], "correct": {"Q0": "The cost for clicking on nodes may vary between nodes.", "Q1": "The better I perform the higher my bonus will be.", "Q2": "No, the amount of cash at each node of the web may be different each time.", "Q3": "To get the highest total score.", "Q4": "Only before moving the spider.", "Q5": "3 seconds"}, "trial_id": "mouselab_quiz_misaligned", "trial_type": "survey-multi-choice", "trial_index": 6, "time_elapsed": 1234357, "internal_node_id": "0.0-2.0-4.0"}}], "questiondata": {"params": {"CODE": "C6DMOQA6", "MIN_TIME": 14, "inspectCost": 1, "startTime": "Fri Sep 01 2023 12:56:18 GMT+0200 (SAST)", "bonusRate": 0.002, "variance": "1_2_4_8_44", "branching": "31123"}}, "eventdata": [{"eventtype": "initialized", "value": null, "timestamp": 1693565777708, "interval": 0}, {"eventtype": "window_resize", "value": [1440, 820], "timestamp": 1693565777708, "interval": 0}, {"eventtype": "window_resize", "value": [1440, 820], "timestamp": 1693565778270, "interval": 562}, {"eventtype": "focus", "value": "on", "timestamp": 1693565782717, "interval": 4447}, {"eventtype": "focus", "value": "on", "timestamp": 1693565782719, "interval": 2}, {"eventtype": "window_resize", "value": [1440, 900], "timestamp": 1693565875480, "interval": 92761}, {"eventtype": "window_resize", "value": [1440, 820], "timestamp": 1693567025146, "interval": 1149666}], "useragent": "Mozilla/5.0 (Macintosh; Intel Mac OS X 10_15_7) AppleWebKit/605.1.15 (KHTML, like Gecko) Version/14.1.2 Safari/605.1.15", "mode": "live", "id": "w27232243:a18863329", "status": "user data saved", "Beginhit": "2023-09-01 10:56:12.494856", "Beginexp": "2023-09-01 10:57:55.477228", "Endhit": null, "psiturkStatus": 6, "browser": "<redacted>", "platform": "macos", "language": "en-us", "excludeReason": "quizfail"}