{"condition": 1, "counterbalance": 0, "assignmentId": "a86549872", "workerId": "w21423248", "hitId": "h13356820", "currenttrial": 9, "bonus": 0, "data": [{"uniqueid": "w21423248:a86549872", "current_trial": 0, "dateTime": 1691142280743, "trialdata": {"success": true, "trial_type": "fullscreen", "trial_index": 0, "time_elapsed": 3448, "internal_node_id": "0.0-0.0"}}, {"uniqueid": "w21423248:a86549872", "current_trial": 1, "dateTime": 1691142282350, "trialdata": {"view_history": [{"page_index": 0, "viewing_time": 1604}], "rt": 1605, "trial_id": "exp_instructions_misaligned", "trial_type": "instructions", "trial_index": 1, "time_elapsed": 5055, "internal_node_id": "0.0-1.0"}}, {"uniqueid": "w21423248:a86549872", "current_trial": 2, "dateTime": 1691142299158, "trialdata": {"success": true, "trial_type": "fullscreen", "trial_index": 2, "time_elapsed": 21863, "internal_node_id": "0.0-2.0-0.0"}}, {"uniqueid": "w21423248:a86549872", "current_trial": 3, "dateTime": 1691142497515, "trialdata": {"view_history": [{"page_index": 0, "viewing_time": 41042}, {"page_index": 1, "viewing_time": 85660}, {"page_index": 2, "viewing_time": 25026}, {"page_index": 3, "viewing_time": 46629}], "rt": 198357, "trial_id": "mouselab_instructions_1_misaligned", "trial_type": "instructions", "trial_index": 3, "time_elapsed": 220220, "internal_node_id": "0.0-2.0-1.0"}}, {"uniqueid": "w21423248:a86549872", "current_trial": 4, "dateTime": 1691142529187, "trialdata": {"revealed_states": [], "clicked_states": [], "num_clicks_accrued": [0, 0, 0, 0, 0, 0, 0, 0, 0, 0, 0, 0, 0], "stateRewards": ["", 10, -10, -10, 10, -10, -10, 10, -10, -10, 10, 10, -10, 10, 10, -10, -10, 10, -10, 10, -10, -10, -10, -10, -10, 10, 10, 10, 10, -10, 10, -10, 10, -10], "withholdReward": false, "trial_id": "practice_1", "block": "test", "trialIndex": 0, "score": -6.5, "costs": 0, "simulationMode": [null, null, null, null, null], "rewards": [10, -10, -10, 10, -10], "path": ["0", "0", "1", "2", "3", "4", "5"], "rt": [11359, 894, 492, 128, 412], "actions": ["up", "up", "up", "right", "up"], "actionTimes": [13649, 15058, 16054, 16691, 17608], "queries": {"click": {"state": {"target": [], "time": []}, "edge": {"target": [], "time": []}}, "mouseover": {"state": {"target": [], "time": []}, "edge": {"target": [], "time": []}}, "mouseout": {"state": {"target": ["0"], "time": [2012]}, "edge": {"target": [], "time": []}}}, "displayed_time": "18.13", "trialTime": 27399, "trial_type": "mouselab-mdp", "trial_index": 4, "time_elapsed": 251890, "internal_node_id": "0.0-2.0-2.0-0.0"}}, {"uniqueid": "w21423248:a86549872", "current_trial": 5, "dateTime": 1691142545422, "trialdata": {"revealed_states": [], "clicked_states": [], "num_clicks_accrued": [0, 0, 0, 0, 0, 0, 0, 0, 0, 0, 0, 0, 0], "stateRewards": ["", -10, -10, 10, -10, 10, -10, -10, 10, -10, -10, 10, -10, -10, 10, 10, 10, 10, -10, -10, 10, -10, -10, 10, 10, 10, -10, -10, 10, -10, -10, 10, 10, -10], "withholdReward": false, "trial_id": "practice_2", "block": "test", "trialIndex": 1, "score": 13.5, "costs": 0, "simulationMode": [null, null, null, null, null], "rewards": [-10, -10, 10, 10, 10], "path": ["0", "0", "12", "13", "14", "15", "16"], "rt": [1998, 701, 314, 2023, 95], "actions": ["right", "right", "right", "up", "up"], "actionTimes": [5379, 6599, 7427, 9970, 10558], "queries": {"click": {"state": {"target": [], "time": []}, "edge": {"target": [], "time": []}}, "mouseover": {"state": {"target": [], "time": []}, "edge": {"target": [], "time": []}}, "mouseout": {"state": {"target": ["0"], "time": [3260]}, "edge": {"target": [], "time": []}}}, "displayed_time": "11.08", "trialTime": 16069, "trial_type": "mouselab-mdp", "trial_index": 5, "time_elapsed": 268126, "internal_node_id": "0.0-2.0-2.0-1.0"}}, {"uniqueid": "w21423248:a86549872", "current_trial": 6, "dateTime": 1691142578434, "trialdata": {"view_history": [{"page_index": 0, "viewing_time": 19097}, {"page_index": 1, "viewing_time": 13913}], "rt": 33010, "trial_id": "mouselab_instructions_2_misaligned", "trial_type": "instructions", "trial_index": 6, "time_elapsed": 301139, "internal_node_id": "0.0-2.0-3.0"}}, {"uniqueid": "w21423248:a86549872", "current_trial": 7, "dateTime": 1691142630496, "trialdata": {"rt": 52059, "response": {"Q0": "There is no cost for clicking on nodes.", "Q1": "The better I perform the higher my bonus will be.", "Q2": "No, the structure of the web will be different each time.", "Q3": "To get the highest total score.", "Q4": "Only before moving the spider.", "Q5": "10 seconds"}, "question_order": [0, 1, 2, 3, 4, 5], "correct": {"Q0": "The cost for clicking on nodes may vary between nodes.", "Q1": "The better I perform the higher my bonus will be.", "Q2": "No, the amount of cash at each node of the web may be different each time.", "Q3": "To get the highest total score.", "Q4": "Only before moving the spider.", "Q5": "3 seconds"}, "trial_id": "mouselab_quiz_misaligned", "trial_type": "survey-multi-choice", "trial_index": 7, "time_elapsed": 353201, "internal_node_id": "0.0-2.0-4.0"}}, {"uniqueid": "w21423248:a86549872", "current_trial": 8, "dateTime": 1691142652884, "trialdata": {"success": true, "trial_type": "fullscreen", "trial_index": 8, "time_elapsed": 375588, "internal_node_id": "0.0-2.1-0.1"}}], "questiondata": {"params": {"CODE": "C6DMOQA6", "MIN_TIME": 14, "inspectCost": 1, "startTime": "Fri Aug 04 2023 11:44:35 GMT+0200 (South Africa Standard Time)", "bonusRate": 0.002, "variance": "1_2_4_8_44", "branching": "31123"}}, "eventdata": [{"eventtype": "initialized", "interval": 0, "timestamp": 1691142249833, "value": null}, {"eventtype": "window_resize", "interval": 0, "timestamp": 1691142249833, "value": [1024, 767]}, {"eventtype": "window_resize", "interval": 574, "timestamp": 1691142250407, "value": [1024, 767]}, {"eventtype": "window_resize", "value": [1024, 767], "timestamp": 1691142275714, "interval": 25307}, {"eventtype": "window_resize", "value": [1792, 1120], "timestamp": 1691142279991, "interval": 4277}, {"eventtype": "focus", "value": "off", "timestamp": 1691142631136, "interval": 351145}, {"eventtype": "window_resize", "value": [1024, 767], "timestamp": 1691142631348, "interval": 212}, {"eventtype": "focus", "value": "on", "timestamp": 1691142650819, "interval": 19471}, {"eventtype": "focus", "value": "off", "timestamp": 1691142650819, "interval": 0}, {"eventtype": "focus", "value": "on", "timestamp": 1691142650819, "interval": 0}, {"eventtype": "window_resize", "value": [1792, 1120], "timestamp": 1691142652115, "interval": 1296}], "useragent": "Mozilla/5.0 (Macintosh; Intel Mac OS X 10_15_7) AppleWebKit/537.36 (KHTML, like Gecko) Chrome/115.0.0.0 Safari/537.36", "mode": "live", "id": "w21423248:a86549872", "status": "user data saved", "Beginhit": "2023-08-04 09:44:06.46577", "Beginexp": "2023-08-04 09:44:41.066903", "Endhit": null, "psiturkStatus": 6, "browser": "<redacted>", "platform": "macos", "language": "en-GB", "excludeReason": "quizfail"}