{"condition": 0, "counterbalance": 0, "assignmentId": "a30844393", "workerId": "w79709549", "hitId": "h81129144", "currenttrial": 61, "bonus": 0, "data": [{"uniqueid": "w79709549:a30844393", "current_trial": 0, "dateTime": 1691159586133, "trialdata": {"success": true, "trial_type": "fullscreen", "trial_index": 0, "time_elapsed": 90464, "internal_node_id": "0.0-0.0"}}, {"uniqueid": "w79709549:a30844393", "current_trial": 1, "dateTime": 1691159591677, "trialdata": {"view_history": [{"page_index": 0, "viewing_time": 5541}], "rt": 5542, "trial_id": "exp_instructions_control", "trial_type": "instructions", "trial_index": 1, "time_elapsed": 96008, "internal_node_id": "0.0-1.0"}}, {"uniqueid": "w79709549:a30844393", "current_trial": 2, "dateTime": 1691159596101, "trialdata": {"success": true, "trial_type": "fullscreen", "trial_index": 2, "time_elapsed": 100432, "internal_node_id": "0.0-2.0-0.0"}}, {"uniqueid": "w79709549:a30844393", "current_trial": 3, "dateTime": 1691160175435, "trialdata": {"view_history": [{"page_index": 0, "viewing_time": 517069}, {"page_index": 1, "viewing_time": 11040}, {"page_index": 2, "viewing_time": 3161}, {"page_index": 1, "viewing_time": 1567}, {"page_index": 2, "viewing_time": 1192}, {"page_index": 1, "viewing_time": 18312}, {"page_index": 2, "viewing_time": 18088}, {"page_index": 3, "viewing_time": 8912}], "rt": 579341, "trial_id": "mouselab_instructions_1_control", "trial_type": "instructions", "trial_index": 3, "time_elapsed": 679766, "internal_node_id": "0.0-2.0-1.0"}}, {"uniqueid": "w79709549:a30844393", "current_trial": 4, "dateTime": 1691160545191, "trialdata": {"revealed_states": [], "clicked_states": ["23", "24", "25", "30", "31", "32", "33", "29", "26", "27", "11", "8", "3", "4", "5", "6", "7", "2", "1"], "num_clicks_accrued": [0, 0, 0, 0, 0, 0, 0, 0, 0, 0, 0, 0, 0], "stateRewards": ["", 10, 10, 10, -10, 10, -10, 10, -10, 10, 10, -10, -10, -10, 10, -10, -10, 10, -10, -10, -10, 10, -10, 10, -10, -10, -10, -10, -10, 10, 10, -10, -10, -10], "withholdReward": false, "trial_id": "practice_1", "block": "test", "trialIndex": 0, "score": -16, "costs": -9.5, "simulationMode": [null, null, null, null, null], "rewards": [-10, -10, 10, -10, 10], "path": ["0", "0", "12", "13", "14", "19", "21"], "rt": [353580, 2679, 1680, 242, 351], "actions": ["right", "right", "right", "down", "down"], "actionTimes": [357810, 360994, 363178, 363922, 364778], "queries": {"click": {"state": {"target": ["23", "24", "25", "30", "31", "32", "33", "29", "26", "27", "11", "8", "3", "4", "5", "6", "7", "2", "1"], "time": [6914, 8681, 11169, 14240, 17984, 21089, 24504, 34024, 38521, 41801, 44880, 47776, 53745, 56409, 59057, 62375, 63969, 65639, 75767]}, "edge": {"target": [], "time": []}}, "mouseover": {"state": {"target": ["23", "24", "25", "30", "31", "32", "33", "25", "0", "12", "0", "23", "25", "29", "26", "28", "27", "11", "8", "3", "9", "3", "3", "4", "5", "7", "6", "7", "2", "1", "4", "7", "1", "23", "1", "0", "3", "0", "0", "0"], "time": [6126, 8205, 10823, 13311, 17639, 19794, 23862, 26594, 29174, 30847, 32826, 32862, 32897, 33777, 37900, 40345, 41381, 43449, 47090, 51013, 52749, 53238, 53431, 55080, 58793, 60261, 62265, 63421, 65293, 66558, 74735, 74805, 74840, 74910, 75172, 76938, 101661, 103209, 354238, 354517]}, "edge": {"target": [], "time": []}}, "mouseout": {"state": {"target": ["12", "1", "24", "1", "23", "24", "25", "30", "31", "32", "32", "33", "25", "33", "0", "12", "0", "23", "25", "29", "29", "26", "28", "27", "11", "8", "3", "9", "3", "3", "4", "5", "4", "7", "6", "7", "2", "2", "1", "4", "7", "1", "23", "1", "1", "0", "3", "0", "0", "0"], "time": [null, null, null, 3593, 7958, 10577, 13067, 17463, 19161, 21199, 22734, 25678, 27692, 28307, 30600, 32792, 32845, 32880, 32914, 34651, 37619, 40256, 41172, 42544, 46759, 50735, 52626, 53132, 53256, 54796, 58400, 59887, 60189, 61891, 63002, 64350, 65692, 66454, 66647, 74752, 74823, 74875, 75032, 75886, 76082, 76973, 101678, 104403, 354255, 354570]}, "edge": {"target": [], "time": []}}}, "displayed_time": "365.28", "trialTime": 367714, "trial_type": "mouselab-mdp", "trial_index": 4, "time_elapsed": 1049522, "internal_node_id": "0.0-2.0-2.0-0.0"}}, {"uniqueid": "w79709549:a30844393", "current_trial": 5, "dateTime": 1691160689591, "trialdata": {"revealed_states": [], "clicked_states": ["1", "2", "3", "8", "10", "23", "24", "28", "26", "25", "31", "30", "32", "29", "27", "11", "9", "5", "4", "7", "12", "13", "18", "14", "15", "16", "17", "20", "19", "22", "21", "33", "6"], "num_clicks_accrued": [0, 0, 0, 0, 0, 0, 0, 0, 0, 0, 0, 0, 0], "stateRewards": ["", 10, 10, -10, -10, 10, -10, 10, -10, 10, 10, -10, 10, -10, 10, 10, 10, 10, -10, -10, 10, -10, -10, 10, 10, -10, 10, -10, 10, -10, -10, 10, -10, 10], "withholdReward": false, "trial_id": "practice_2", "block": "test", "trialIndex": 1, "score": -23, "costs": -16.5, "simulationMode": [null, null, null, null, null], "rewards": [10, 10, -10, -10, -10], "path": ["0", "0", "1", "2", "3", "4", "6"], "rt": [94478, 677, 951, 1377, 346], "actions": ["up", "up", "up", "right", "right"], "actionTimes": [134405, 135589, 137045, 138925, 139773], "queries": {"click": {"state": {"target": ["1", "2", "3", "8", "10", "23", "24", "28", "26", "25", "31", "30", "32", "29", "27", "11", "9", "5", "4", "7", "12", "13", "18", "14", "15", "16", "17", "20", "19", "22", "21", "33", "6"], "time": [42911, 44057, 45457, 48033, 49071, 51553, 52753, 53905, 55041, 56080, 57120, 58305, 60065, 62209, 64152, 66009, 67105, 68399, 70296, 72096, 73497, 74625, 76047, 107665, 109809, 111575, 112799, 114128, 115448, 116633, 118176, 122200, 125975]}, "edge": {"target": [], "time": []}}, "mouseover": {"state": {"target": ["1", "2", "3", "8", "8", "10", "23", "24", "28", "26", "25", "31", "30", "32", "33", "29", "27", "11", "9", "5", "4", "6", "7", "12", "13", "18", "22", "13", "14", "14", "15", "16", "15", "16", "16", "17", "20", "19", "22", "21", "32", "33", "29", "4", "6", "7", "7", "16", "18", "12", "32", "0", "7", "0", "23"], "time": [42710, 43605, 45150, 46848, 47795, 48844, 50846, 52380, 53328, 54548, 55788, 56878, 57675, 58961, 60706, 62036, 63552, 64881, 66687, 68179, 69135, 70871, 71838, 73294, 74137, 75789, 106016, 106419, 106841, 107422, 108320, 109053, 109503, 110343, 111273, 112145, 113728, 115256, 116156, 117237, 121719, 121913, 124110, 125646, 125699, 127277, 128946, 129983, 130494, 131076, 131234, 131979, 132756, 133052, 133860]}, "edge": {"target": [], "time": []}}, "mouseout": {"state": {"target": ["12", "1", "2", "3", "8", "3", "3", "8", "10", "23", "24", "28", "26", "25", "31", "30", "32", "33", "29", "29", "29", "27", "11", "9", "5", "4", "6", "7", "12", "13", "18", "13", "22", "13", "14", "14", "15", "16", "15", "16", "16", "17", "17", "20", "19", "22", "21", "21", "32", "33", "29", "4", "6", "7", "7", "6", "6", "16", "18", "12", "32", "0", "7", "0", "23"], "time": [38690, 43553, 44887, 46707, 47041, 47270, 47690, 48689, 49970, 52312, 53049, 54270, 55563, 56619, 57502, 58737, 60358, 61699, 62538, 63038, 63393, 64566, 66391, 67781, 68749, 70818, 71627, 72928, 73911, 75231, 76817, 76921, 106278, 106628, 107241, 107734, 108965, 109468, 110068, 111142, 111834, 112822, 113465, 115032, 115915, 117099, 119135, 121277, 121754, 123951, 125275, 125681, 127225, 127330, 128981, 129119, 129754, 130441, 130582, 131093, 131378, 132013, 132773, 133702, 133877]}, "edge": {"target": [], "time": []}}}, "displayed_time": "140.28", "trialTime": 144325, "trial_type": "mouselab-mdp", "trial_index": 5, "time_elapsed": 1193921, "internal_node_id": "0.0-2.0-2.0-1.0"}}, {"uniqueid": "w79709549:a30844393", "current_trial": 6, "dateTime": 1691160698590, "trialdata": {"view_history": [{"page_index": 0, "viewing_time": 7166}, {"page_index": 1, "viewing_time": 1832}], "rt": 8998, "trial_id": "mouselab_instructions_2_control", "trial_type": "instructions", "trial_index": 6, "time_elapsed": 1202921, "internal_node_id": "0.0-2.0-3.0"}}, {"uniqueid": "w79709549:a30844393", "current_trial": 7, "dateTime": 1691160832854, "trialdata": {"rt": 134262, "response": {"Q0": "The cost for clicking on nodes may vary between nodes.", "Q1": "I will receive a $1 bonus if I perform well, otherwise I will receive no bonus.", "Q2": "No, the amount of cash at each node of the web may be different each time.", "Q3": "To get the highest total score.", "Q4": "Only before moving the spider.", "Q5": "10 seconds"}, "question_order": [0, 1, 2, 3, 4, 5], "correct": {"Q0": "The cost for clicking on nodes may vary between nodes.", "Q1": "The better I perform the higher my bonus will be.", "Q2": "No, the amount of cash at each node of the web may be different each time.", "Q3": "To get the highest total score.", "Q4": "Only before moving the spider.", "Q5": "3 seconds"}, "trial_id": "mouselab_quiz_control", "trial_type": "survey-multi-choice", "trial_index": 7, "time_elapsed": 1337185, "internal_node_id": "0.0-2.0-4.0"}}, {"uniqueid": "w79709549:a30844393", "current_trial": 8, "dateTime": 1691160839717, "trialdata": {"success": true, "trial_type": "fullscreen", "trial_index": 8, "time_elapsed": 1344048, "internal_node_id": "0.0-2.1-0.1"}}, {"uniqueid": "w79709549:a30844393", "current_trial": 9, "dateTime": 1691160920453, "trialdata": {"view_history": [{"page_index": 0, "viewing_time": 7326}, {"page_index": 1, "viewing_time": 9016}, {"page_index": 2, "viewing_time": 20280}, {"page_index": 3, "viewing_time": 44112}], "rt": 80735, "trial_id": "mouselab_instructions_1_control", "trial_type": "instructions", "trial_index": 9, "time_elapsed": 1424783, "internal_node_id": "0.0-2.1-1.1"}}, {"uniqueid": "w79709549:a30844393", "current_trial": 10, "dateTime": 1691160983188, "trialdata": {"revealed_states": [], "clicked_states": ["23", "25", "26", "28", "29", "27", "33", "30", "31", "32", "1", "2", "10", "7", "4", "3", "8", "11", "5", "6", "16", "15", "18", "17", "14", "13", "22", "19", "20", "21"], "num_clicks_accrued": [0, 0, 0, 0, 0, 0, 0, 0, 0, 0, 0, 0, 0], "stateRewards": ["", 10, 10, 10, -10, 10, -10, 10, -10, 10, 10, -10, -10, -10, 10, -10, -10, 10, -10, -10, -10, 10, -10, 10, -10, -10, -10, -10, -10, 10, 10, -10, -10, -10], "withholdReward": false, "trial_id": "practice_1", "block": "test", "trialIndex": 2, "score": -21.5, "costs": -15, "simulationMode": [null, null, null, null, null], "rewards": [-10, -10, 10, -10, 10], "path": ["0", "0", "12", "13", "14", "19", "21"], "rt": [50511, 534, 468, 1425, 698], "actions": ["right", "right", "right", "down", "down"], "actionTimes": [54066, 55106, 56082, 58010, 59202], "queries": {"click": {"state": {"target": ["23", "25", "26", "28", "29", "27", "33", "30", "31", "32", "1", "2", "10", "7", "4", "3", "8", "11", "5", "6", "16", "15", "18", "17", "14", "13", "22", "19", "20", "21"], "time": [6430, 8150, 9188, 10661, 12254, 13605, 15053, 16125, 17278, 18653, 20557, 21637, 23156, 24572, 26933, 28389, 29499, 30572, 32533, 33708, 34917, 36116, 37589, 38956, 40557, 41773, 43693, 45229, 46877, 48429]}, "edge": {"target": [], "time": []}}, "mouseover": {"state": {"target": ["0", "23", "24", "25", "26", "28", "29", "27", "26", "33", "30", "31", "32", "0", "0", "1", "2", "10", "10", "7", "4", "3", "3", "8", "11", "9", "5", "5", "6", "16", "15", "18", "17", "20", "14", "13", "22", "19", "20", "21", "19", "14", "13", "12", "23", "0", "12", "0"], "time": [5280, 6225, 6829, 7560, 8978, 9778, 11891, 13154, 14459, 14617, 15814, 16509, 17759, 19330, 19540, 20369, 21164, 22070, 22243, 23854, 25026, 27209, 27609, 28728, 29828, 30905, 31959, 32326, 33064, 34106, 35351, 36565, 38006, 39860, 40017, 41187, 42329, 44404, 46026, 48148, 50432, 50518, 50605, 50762, 50849, 51027, 51444, 52695]}, "edge": {"target": [], "time": []}}, "mouseout": {"state": {"target": ["12", "0", "0", "23", "24", "25", "26", "28", "26", "29", "27", "26", "33", "30", "31", "32", "31", "0", "0", "1", "2", "10", "10", "2", "7", "4", "3", "3", "8", "11", "9", "5", "5", "6", "16", "15", "18", "15", "17", "20", "14", "13", "22", "19", "20", "21", "19", "14", "13", "12", "23", "0", "12", "0"], "time": [2627, 2916, 6101, 6794, 7436, 8736, 9744, 11504, 11648, 12843, 14424, 14496, 15761, 16227, 17621, 18998, 19224, 19434, 20140, 20958, 22035, 22140, 23469, 23522, 24889, 27174, 27296, 28675, 29810, 30802, 31871, 31994, 33012, 34037, 35317, 36496, 37919, 37988, 39475, 39965, 41152, 42208, 44092, 45853, 47604, 50314, 50466, 50535, 50728, 50779, 50866, 51321, 51461, 53197]}, "edge": {"target": [], "time": []}}}, "displayed_time": "59.69", "trialTime": 62658, "trial_type": "mouselab-mdp", "trial_index": 10, "time_elapsed": 1487519, "internal_node_id": "0.0-2.1-2.1-0.1"}}, {"uniqueid": "w79709549:a30844393", "current_trial": 11, "dateTime": 1691161009277, "trialdata": {"revealed_states": [], "clicked_states": ["1", "2", "3"], "num_clicks_accrued": [0, 0, 0, 0, 0, 0, 0, 0, 0, 0, 0, 0, 0], "stateRewards": ["", 10, 10, -10, -10, 10, -10, 10, -10, 10, 10, -10, 10, -10, 10, 10, 10, 10, -10, -10, 10, -10, -10, 10, 10, -10, 10, -10, 10, -10, -10, 10, -10, 10], "withholdReward": false, "trial_id": "practice_2", "block": "test", "trialIndex": 3, "score": 12, "costs": -1.5, "simulationMode": [null, null, null, null, null], "rewards": [10, 10, -10, -10, 10], "path": ["0", "0", "1", "2", "3", "4", "7"], "rt": [8229, 460, 1434, 5066, 800], "actions": ["up", "up", "up", "right", "down"], "actionTimes": [12030, 12998, 14934, 20502, 21806], "queries": {"click": {"state": {"target": ["1", "2", "3"], "time": [6329, 7833, 9641]}, "edge": {"target": [], "time": []}}, "mouseover": {"state": {"target": ["0", "0", "0", "0", "1", "2", "2", "3", "1"], "time": [4209, 4631, 4926, 5882, 6076, 6745, 6952, 9242, 10982]}, "edge": {"target": [], "time": []}}, "mouseout": {"state": {"target": ["31", "23", "0", "0", "0", "0", "0", "1", "2", "2", "3", "2", "1", "12", "7", "7", "0", "23"], "time": [3148, 3271, 3633, 4315, 4648, 5774, 5988, 6710, 6900, 9170, 10912, 10982, 11000, 19614, 19883, 20027, 20099, 20135]}, "edge": {"target": [], "time": []}}}, "displayed_time": "22.31", "trialTime": 26006, "trial_type": "mouselab-mdp", "trial_index": 11, "time_elapsed": 1513608, "internal_node_id": "0.0-2.1-2.1-1.1"}}, {"uniqueid": "w79709549:a30844393", "current_trial": 12, "dateTime": 1691161099396, "trialdata": {"view_history": [{"page_index": 0, "viewing_time": 87134}, {"page_index": 1, "viewing_time": 2984}], "rt": 90118, "trial_id": "mouselab_instructions_2_control", "trial_type": "instructions", "trial_index": 12, "time_elapsed": 1603727, "internal_node_id": "0.0-2.1-3.1"}}, {"uniqueid": "w79709549:a30844393", "current_trial": 13, "dateTime": 1691161153203, "trialdata": {"rt": 53806, "response": {"Q0": "The cost for clicking on nodes may vary between nodes.", "Q1": "The better I perform the higher my bonus will be.", "Q2": "No, the amount of cash at each node of the web may be different each time.", "Q3": "To get the highest total score.", "Q4": "Only before moving the spider.", "Q5": "3 seconds"}, "question_order": [0, 1, 2, 3, 4, 5], "correct": {"Q0": "The cost for clicking on nodes may vary between nodes.", "Q1": "The better I perform the higher my bonus will be.", "Q2": "No, the amount of cash at each node of the web may be different each time.", "Q3": "To get the highest total score.", "Q4": "Only before moving the spider.", "Q5": "3 seconds"}, "trial_id": "mouselab_quiz_control", "trial_type": "survey-multi-choice", "trial_index": 13, "time_elapsed": 1657534, "internal_node_id": "0.0-2.1-4.1"}}, {"uniqueid": "w79709549:a30844393", "current_trial": 14, "dateTime": 1691161167691, "trialdata": {"rt": 14485, "stimulus": "\n<h1> Get ready to start the game! </h1>\n\nThank you for reading the instructions. Get ready start with the 40 rounds of this game.\n<br><br>\nIf you need to take a break, feel free to take one after the end of a round, before continuing to the next one.\n<br><br>\nRemember, the more money the spider gets, the bigger your bonus will be!\n<br><br>\n<div style='text-align: center;'>Press <code>space</code> to begin.</div>\n\n<br><br>\n(If, at any point, the <code>space</code> key does not take you to the next page, click once on the text and try again.)", "response": " ", "trial_id": "mdp_ready", "trial_type": "html-keyboard-response", "trial_index": 14, "time_elapsed": 1672022, "internal_node_id": "0.0-4.0-0.0"}}, {"uniqueid": "w79709549:a30844393", "current_trial": 15, "dateTime": 1691161210283, "trialdata": {"revealed_states": [], "clicked_states": ["23", "25", "27", "10", "2", "1"], "num_clicks_accrued": [0, 0, 0, 0, 0, 0, 0, 0, 0, 0, 0, 0, 0], "stateRewards": ["", 1, -1, 4, -2, -75, -75, 84, -9, -60, -79, 59, 2, -4, 8, 9, -17, -82, 80, 14, -4, 49, 49, -1, 3, 6, -11, -33, 34, 55, 9, -57, 5, 59], "withholdReward": false, "trial_id": "mdp_trial_1", "block": "test", "trialIndex": 4, "score": 13.6, "costs": -8.4, "simulationMode": [null, null, null, null, null], "rewards": [-1, 3, 6, 9, 5], "path": ["0", "0", "23", "24", "25", "30", "32"], "rt": [24009, 1135, 440, 106, 1721], "actions": ["left", "left", "left", "down", "down"], "actionTimes": [32317, 33957, 34900, 35509, 37733], "queries": {"click": {"state": {"target": ["23", "25", "27", "10", "2", "1"], "time": [10976, 12871, 15096, 16623, 18840, 20664]}, "edge": {"target": [], "time": []}}, "mouseover": {"state": {"target": ["23", "24", "25", "26", "27", "10", "2", "1", "1", "23", "24", "23", "24", "23", "31", "32"], "time": [10588, 11391, 12586, 13445, 14588, 15656, 17248, 19329, 19695, 21822, 24381, 24489, 24963, 25791, 28558, 28592]}, "edge": {"target": [], "time": []}}, "mouseout": {"state": {"target": ["0", "0", "0", "23", "24", "25", "26", "27", "10", "2", "1", "1", "23", "24", "23", "24", "23", "31", "32"], "time": [3116, 7677, 10160, 11304, 12411, 13325, 14553, 15552, 17040, 19295, 19451, 21527, 24329, 24438, 24928, 25756, 25826, 28575, 28609]}, "edge": {"target": [], "time": []}}}, "displayed_time": "38.23", "trialTime": 42509, "trial_type": "mouselab-mdp", "trial_index": 15, "time_elapsed": 1714614, "internal_node_id": "0.0-4.0-1.0-0.0"}}, {"uniqueid": "w79709549:a30844393", "current_trial": 16, "dateTime": 1691161235907, "trialdata": {"revealed_states": [], "clicked_states": ["23", "12", "13", "18", "15", "17"], "num_clicks_accrued": [0, 0, 0, 0, 0, 0, 0, 0, 0, 0, 0, 0, 0], "stateRewards": ["", 1, 3, 3, -10, 52, 68, 59, 12, 7, 49, 21, -2, -3, -4, -2, -2, 63, 63, -4, 44, 43, -76, -2, -3, -6, 13, 48, 36, 12, -5, -36, -33, -11], "withholdReward": false, "trial_id": "mdp_trial_2", "block": "test", "trialIndex": 5, "score": 43.6, "costs": -8.4, "simulationMode": [null, null, null, null, null], "rewards": [-2, -3, -4, -2, 63], "path": ["0", "0", "12", "13", "14", "15", "18"], "rt": [15049, 296, 560, 136, 389], "actions": ["right", "right", "right", "up", "left"], "actionTimes": [18796, 19595, 20659, 21299, 22196], "queries": {"click": {"state": {"target": ["23", "12", "13", "18", "15", "17"], "time": [5574, 7080, 9542, 11069, 13614, 15182]}, "edge": {"target": [], "time": []}}, "mouseover": {"state": {"target": ["12", "13", "14", "13", "12", "0", "23", "0", "12", "13", "18", "15", "17", "20", "21"], "time": [4701, 4755, 4790, 5001, 5035, 5122, 5285, 6100, 6289, 7556, 9993, 11654, 14629, 16547, 16583]}, "edge": {"target": [], "time": []}}, "mouseout": {"state": {"target": ["32", "1", "2", "6", "0", "12", "13", "14", "13", "12", "0", "23", "0", "12", "13", "18", "15", "17", "20", "21", "19"], "time": [2079, 2239, 2273, 2326, 4347, 4736, 4772, 4949, 5018, 5052, 5175, 6082, 6134, 7417, 9871, 11478, 14256, 15831, 16565, 23989, 24695]}, "edge": {"target": [], "time": []}}}, "displayed_time": "22.70", "trialTime": 25539, "trial_type": "mouselab-mdp", "trial_index": 16, "time_elapsed": 1740238, "internal_node_id": "0.0-4.0-1.0-1.0"}}, {"uniqueid": "w79709549:a30844393", "current_trial": 17, "dateTime": 1691161254851, "trialdata": {"revealed_states": [], "clicked_states": [], "num_clicks_accrued": [0, 0, 0, 0, 0, 0, 0, 0, 0, 0, 0, 0, 0], "stateRewards": ["", 2, -1, -1, 7, 11, -40, -22, -2, 69, 37, 8, -2, 4, -8, -12, -2, -72, -3, -12, 17, 63, 12, 1, 3, -7, 6, 25, 61, 61, -9, 28, -17, 27], "withholdReward": false, "trial_id": "mdp_trial_3", "block": "test", "trialIndex": 6, "score": 45, "costs": 0, "simulationMode": [null, null, null, null, null], "rewards": [-2, 4, -8, -12, 63], "path": ["0", "0", "12", "13", "14", "19", "21"], "rt": [7833, 641, 822, 313, 352], "actions": ["right", "right", "right", "down", "down"], "actionTimes": [9872, 11016, 12345, 13160, 14016], "queries": {"click": {"state": {"target": [], "time": []}, "edge": {"target": [], "time": []}}, "mouseover": {"state": {"target": ["12", "18", "1", "2", "2", "1", "0", "0", "0"], "time": [2671, 4174, 4385, 4813, 5025, 6186, 6467, 6916, 8306]}, "edge": {"target": [], "time": []}}, "mouseout": {"state": {"target": ["19", "22", "12", "0", "12", "18", "1", "2", "2", "1", "0", "0", "0"], "time": [568, 603, 970, 2600, 3945, 4208, 4795, 4864, 6152, 6291, 6502, 7022, 8324]}, "edge": {"target": [], "time": []}}}, "displayed_time": "16.04", "trialTime": 18856, "trial_type": "mouselab-mdp", "trial_index": 17, "time_elapsed": 1759182, "internal_node_id": "0.0-4.0-1.0-2.0"}}, {"uniqueid": "w79709549:a30844393", "current_trial": 18, "dateTime": 1691161282170, "trialdata": {"revealed_states": [], "clicked_states": ["23", "24", "25", "30", "32", "31", "33"], "num_clicks_accrued": [0, 0, 0, 0, 0, 0, 0, 0, 0, 0, 0, 0, 0], "stateRewards": ["", 1, -1, 4, 5, -32, 18, 20, 6, -88, -74, 9, -2, 1, -2, -14, 34, -77, -38, -1, 80, -36, 73, 2, 3, -8, 10, -48, -73, -71, -11, -22, 20, 54], "withholdReward": false, "trial_id": "mdp_trial_4", "block": "test", "trialIndex": 7, "score": -3.8000000000000007, "costs": -9.8, "simulationMode": [null, null, null, null, null], "rewards": [2, 3, -8, -11, 20], "path": ["0", "0", "23", "24", "25", "30", "32"], "rt": [18332, 294, 184, 216, 427], "actions": ["left", "left", "left", "down", "down"], "actionTimes": [20853, 21652, 22340, 23060, 23988], "queries": {"click": {"state": {"target": ["23", "24", "25", "30", "32", "31", "33"], "time": [3592, 5295, 7102, 9240, 11031, 13399, 15656]}, "edge": {"target": [], "time": []}}, "mouseover": {"state": {"target": ["23", "24", "25", "30", "32", "31", "33"], "time": [3016, 4390, 5934, 7760, 9897, 11741, 15043]}, "edge": {"target": [], "time": []}}, "mouseout": {"state": {"target": ["24", "26", "0", "0", "23", "24", "25", "30", "32", "31", "33"], "time": [1563, 1755, 2088, 2946, 4148, 5916, 7708, 9845, 11654, 14244, 16926]}, "edge": {"target": [], "time": []}}}, "displayed_time": "24.49", "trialTime": 27236, "trial_type": "mouselab-mdp", "trial_index": 18, "time_elapsed": 1786501, "internal_node_id": "0.0-4.0-1.0-3.0"}}, {"uniqueid": "w79709549:a30844393", "current_trial": 19, "dateTime": 1691161314363, "trialdata": {"revealed_states": [], "clicked_states": ["1", "2", "3", "4", "6", "5", "7", "10"], "num_clicks_accrued": [0, 0, 0, 0, 0, 0, 0, 0, 0, 0, 0, 0, 0], "stateRewards": ["", -1, 1, 3, -8, -23, -15, -14, -11, -23, 58, 68, 1, 3, 5, 12, -17, -41, -7, -10, -4, 82, 10, 1, 4, -4, 11, 73, 55, -55, -1, -86, -86, 54], "withholdReward": false, "trial_id": "mdp_trial_5", "block": "test", "trialIndex": 8, "score": 38.8, "costs": -11.200000000000001, "simulationMode": [null, null, null, null, null], "rewards": [-1, 1, 3, -11, 58], "path": ["0", "0", "1", "2", "3", "8", "10"], "rt": [22288, 328, 178, 352, 199], "actions": ["up", "up", "up", "left", "down"], "actionTimes": [25518, 26350, 27030, 27886, 28590], "queries": {"click": {"state": {"target": ["1", "2", "3", "4", "6", "5", "7", "10"], "time": [5202, 7000, 9226, 11354, 13417, 15873, 18170, 20369]}, "edge": {"target": [], "time": []}}, "mouseover": {"state": {"target": ["1", "2", "3", "4", "7", "4", "6", "3", "5", "4", "7", "7", "8", "10", "28", "28", "8", "1", "0"], "time": [4870, 6503, 8039, 9645, 9956, 10253, 12932, 15013, 15349, 16292, 16343, 17776, 19818, 20066, 20777, 20916, 21122, 23018, 23053]}, "edge": {"target": [], "time": []}}, "mouseout": {"state": {"target": ["30", "24", "23", "0", "1", "2", "3", "4", "7", "4", "6", "4", "3", "5", "4", "7", "7", "7", "8", "10", "28", "28", "8", "10", "1", "0"], "time": [1632, 1701, 1770, 4673, 6192, 7917, 9627, 9679, 10008, 12446, 13938, 13991, 15102, 16257, 16326, 16412, 18776, 19677, 19872, 20759, 20795, 20950, 22455, 22526, 23036, 23070]}, "edge": {"target": [], "time": []}}}, "displayed_time": "29.09", "trialTime": 32102, "trial_type": "mouselab-mdp", "trial_index": 19, "time_elapsed": 1818694, "internal_node_id": "0.0-4.0-1.0-4.0"}}, {"uniqueid": "w79709549:a30844393", "current_trial": 20, "dateTime": 1691161382754, "trialdata": {"revealed_states": [], "clicked_states": ["23", "24", "25", "26", "27", "29", "28"], "num_clicks_accrued": [0, 0, 0, 0, 0, 0, 0, 0, 0, 0, 0, 0, 0], "stateRewards": ["", -2, 2, 8, -6, -25, 3, 87, 2, -62, -2, 74, -2, -1, 2, -1, 79, 49, -37, -14, 5, 67, -9, -1, 2, -2, 5, 15, 38, 32, -14, -38, -38, 30], "withholdReward": false, "trial_id": "mdp_trial_6", "block": "test", "trialIndex": 9, "score": 32.2, "costs": -9.8, "simulationMode": [null, null, null, null, null], "rewards": [-1, 2, -2, 5, 38], "path": ["0", "0", "23", "24", "25", "26", "28"], "rt": [17064, 233, 337, 111, 32], "actions": ["left", "left", "left", "up", "right"], "actionTimes": [59127, 59863, 60704, 61320, 61855], "queries": {"click": {"state": {"target": ["23", "24", "25", "26", "27", "29", "28"], "time": [43859, 47091, 49115, 50634, 52689, 54226, 55787]}, "edge": {"target": [], "time": []}}, "mouseover": {"state": {"target": ["23", "24", "24", "25", "25", "26", "26", "27", "29", "28", "26"], "time": [43519, 46436, 46820, 47645, 47869, 50144, 50354, 51050, 53450, 55060, 56805]}, "edge": {"target": [], "time": []}}, "mouseout": {"state": {"target": ["18", "2", "2", "12", "0", "12", "7", "7", "7", "7", "1", "1", "28", "27", "27", "28", "23", "0", "23", "24", "24", "25", "25", "25", "26", "26", "27", "29", "26", "28", "26", "29"], "time": [3377, 3664, 4421, 4562, 5472, 5737, 6565, 7196, 7633, 7776, 11465, 19576, 19701, 40811, 41325, 41360, 41395, 43171, 46384, 46575, 47628, 47679, 49535, 50075, 50179, 50928, 53068, 54713, 54784, 56719, 56909, 57014]}, "edge": {"target": [], "time": []}}}, "displayed_time": "62.36", "trialTime": 68303, "trial_type": "mouselab-mdp", "trial_index": 20, "time_elapsed": 1887084, "internal_node_id": "0.0-4.0-1.0-5.0"}}, {"uniqueid": "w79709549:a30844393", "current_trial": 21, "dateTime": 1691161426698, "trialdata": {"revealed_states": [], "clicked_states": ["1", "2", "3", "4", "5", "6", "7", "18", "15", "17", "14", "13", "12"], "num_clicks_accrued": [0, 0, 0, 0, 0, 0, 0, 0, 0, 0, 0, 0, 0], "stateRewards": ["", -1, -3, -3, 1, -38, 2, -53, -2, -1, -81, 70, -1, 1, -5, -9, 46, 15, 35, -1, -22, 38, 59, -2, 4, -8, 13, 1, -83, -43, 4, 76, 13, 48], "withholdReward": false, "trial_id": "mdp_trial_7", "block": "test", "trialIndex": 10, "score": 2.799999999999997, "costs": -18.2, "simulationMode": [null, null, null, null, null], "rewards": [-1, 1, -5, -9, 35], "path": ["0", "0", "12", "13", "14", "15", "18"], "rt": [34474, 127, 487, 247, 400], "actions": ["right", "right", "right", "up", "left"], "actionTimes": [37200, 37831, 38824, 39575, 40479], "queries": {"click": {"state": {"target": ["1", "2", "3", "4", "5", "6", "7", "18", "15", "17", "14", "13", "12"], "time": [3995, 5553, 7363, 9337, 11649, 13739, 15539, 17355, 19482, 23386, 25994, 28859, 30699]}, "edge": {"target": [], "time": []}}, "mouseover": {"state": {"target": ["1", "2", "3", "4", "5", "5", "6", "7", "12", "13", "18", "15", "16", "6", "28", "25", "17", "14", "13", "12"], "time": [3529, 4392, 6175, 7919, 9734, 11442, 12414, 14224, 16074, 16369, 16507, 18224, 20196, 20267, 21047, 21081, 23141, 25545, 28000, 29949]}, "edge": {"target": [], "time": []}}, "mouseout": {"state": {"target": ["33", "30", "31", "22", "13", "12", "0", "1", "2", "3", "4", "5", "5", "4", "6", "7", "12", "13", "18", "15", "16", "6", "28", "25", "17", "14", "13", "12", "12"], "time": [1283, 1336, 1371, 1441, 1689, 1796, 3390, 4289, 5951, 7797, 9681, 11257, 12014, 12067, 14190, 15971, 16144, 16403, 18120, 20161, 20213, 20371, 21064, 21099, 24270, 27047, 29759, 31479, 32649]}, "edge": {"target": [], "time": []}}}, "displayed_time": "40.98", "trialTime": 43839, "trial_type": "mouselab-mdp", "trial_index": 21, "time_elapsed": 1931029, "internal_node_id": "0.0-4.0-1.0-6.0"}}, {"uniqueid": "w79709549:a30844393", "current_trial": 22, "dateTime": 1691161464458, "trialdata": {"revealed_states": [], "clicked_states": ["23", "24", "25", "26", "27", "29", "28", "30", "33", "31", "32"], "num_clicks_accrued": [0, 0, 0, 0, 0, 0, 0, 0, 0, 0, 0, 0, 0], "stateRewards": ["", -1, 2, -6, 6, -82, -19, -39, -16, -83, 11, -33, -2, -2, 4, -6, -82, -1, -19, -6, -10, -67, -41, -2, 1, -7, 16, -23, -78, -52, 14, 31, -71, 74], "withholdReward": false, "trial_id": "mdp_trial_8", "block": "test", "trialIndex": 11, "score": 64.6, "costs": -15.400000000000002, "simulationMode": [null, null, null, null, null], "rewards": [-2, 1, -7, 14, 74], "path": ["0", "0", "23", "24", "25", "30", "33"], "rt": [28273, 373, 159, 88, 248], "actions": ["left", "left", "left", "down", "left"], "actionTimes": [32305, 33169, 33833, 34425, 35177], "queries": {"click": {"state": {"target": ["23", "24", "25", "26", "27", "29", "28", "30", "33", "31", "32"], "time": [5588, 7524, 9044, 11322, 12900, 14611, 16243, 19276, 21044, 22763, 24706]}, "edge": {"target": [], "time": []}}, "mouseover": {"state": {"target": ["23", "31", "24", "32", "30", "25", "26", "27", "29", "28", "24", "30", "30", "33", "31", "32", "19", "14", "13", "12", "12"], "time": [4750, 6419, 6610, 7923, 8339, 8411, 10124, 12628, 13887, 15754, 18135, 18817, 18974, 20143, 21581, 23481, 29011, 29063, 29186, 29397, 29620]}, "edge": {"target": [], "time": []}}, "mouseout": {"state": {"target": ["0", "23", "31", "24", "32", "30", "25", "25", "26", "26", "27", "26", "29", "26", "28", "28", "24", "30", "30", "33", "30", "31", "32", "19", "14", "13", "12", "12"], "time": [4483, 6020, 6506, 7837, 8269, 8375, 9624, 10090, 11754, 12417, 13506, 13593, 15356, 15564, 16868, 18047, 18379, 18835, 19847, 21424, 21494, 23204, 25157, 29046, 29080, 29293, 29450, 30335]}, "edge": {"target": [], "time": []}}}, "displayed_time": "35.68", "trialTime": 37656, "trial_type": "mouselab-mdp", "trial_index": 22, "time_elapsed": 1968789, "internal_node_id": "0.0-4.0-1.0-7.0"}}, {"uniqueid": "w79709549:a30844393", "current_trial": 23, "dateTime": 1691161507218, "trialdata": {"revealed_states": [], "clicked_states": ["23", "24", "25", "30", "33", "31", "32", "26", "29", "28", "27"], "num_clicks_accrued": [0, 0, 0, 0, 0, 0, 0, 0, 0, 0, 0, 0, 0], "stateRewards": ["", 2, -2, 7, -11, -76, -65, -23, 16, -58, 30, 81, 1, 2, 7, 14, 9, 55, -2, 6, 11, -15, 31, -1, -1, -3, 2, 15, 2, 46, 15, 18, 45, -34], "withholdReward": false, "trial_id": "mdp_trial_9", "block": "test", "trialIndex": 12, "score": 27.599999999999998, "costs": -15.400000000000002, "simulationMode": [null, null, null, null, null], "rewards": [-1, -1, -3, 2, 46], "path": ["0", "0", "23", "24", "25", "26", "29"], "rt": [27887, 365, 314, 313, 392], "actions": ["left", "left", "left", "up", "left"], "actionTimes": [37127, 37999, 38815, 39630, 40527], "queries": {"click": {"state": {"target": ["23", "24", "25", "30", "33", "31", "32", "26", "29", "28", "27"], "time": [10401, 12346, 14274, 15882, 18025, 19674, 21858, 23377, 25986, 28394, 30610]}, "edge": {"target": [], "time": []}}, "mouseover": {"state": {"target": ["23", "24", "33", "25", "30", "32", "32", "30", "33", "31", "32", "30", "25", "26", "29", "28", "27", "26", "25", "30", "32", "12", "18", "7", "1"], "time": [10125, 10982, 12777, 13938, 14673, 14725, 15194, 15489, 16634, 18960, 21490, 22742, 22812, 22950, 25622, 26418, 28965, 31564, 31583, 31600, 34225, 34593, 34628, 34873, 35029]}, "edge": {"target": [], "time": []}}, "mouseout": {"state": {"target": ["0", "23", "24", "33", "25", "25", "30", "32", "32", "30", "33", "31", "32", "30", "25", "26", "29", "26", "28", "27", "26", "25", "30", "32", "12", "18", "7", "1"], "time": [10017, 10948, 12708, 13851, 14368, 14638, 14708, 14743, 15331, 16321, 18387, 20613, 22691, 22760, 22846, 25534, 26350, 26401, 28862, 31546, 31582, 31599, 31616, 34451, 34611, 34645, 34890, 35802]}, "edge": {"target": [], "time": []}}}, "displayed_time": "41.03", "trialTime": 42671, "trial_type": "mouselab-mdp", "trial_index": 23, "time_elapsed": 2011549, "internal_node_id": "0.0-4.0-1.0-8.0"}}, {"uniqueid": "w79709549:a30844393", "current_trial": 24, "dateTime": 1691161545266, "trialdata": {"revealed_states": [], "clicked_states": ["1", "2", "3", "10", "8", "11", "9", "4", "5", "6", "7"], "num_clicks_accrued": [0, 0, 0, 0, 0, 0, 0, 0, 0, 0, 0, 0, 0], "stateRewards": ["", 1, 2, 7, 13, 88, -71, 27, 3, 60, 5, -53, -2, 2, -6, -1, -30, 79, 47, -4, -14, 46, 68, 1, 1, 8, 10, -14, 86, 48, -11, -67, -44, 5], "withholdReward": false, "trial_id": "mdp_trial_10", "block": "test", "trialIndex": 13, "score": 95.6, "costs": -15.400000000000002, "simulationMode": [null, null, null, null, null], "rewards": [1, 2, 7, 13, 88], "path": ["0", "0", "1", "2", "3", "4", "5"], "rt": [27543, 152, 280, 105, 303], "actions": ["up", "up", "up", "right", "up"], "actionTimes": [31491, 32147, 32930, 33538, 34346], "queries": {"click": {"state": {"target": ["1", "2", "3", "10", "8", "11", "9", "4", "5", "6", "7"], "time": [5301, 7158, 9101, 11758, 13702, 15669, 17606, 20389, 22302, 24429, 26574]}, "edge": {"target": [], "time": []}}, "mouseover": {"state": {"target": ["1", "2", "3", "3", "23", "10", "11", "8", "11", "11", "9", "9", "2", "3", "4", "5", "6", "7", "12"], "time": [4922, 5763, 7677, 7851, 9620, 11188, 12712, 12971, 14030, 14708, 16034, 17025, 18491, 19612, 20079, 20982, 23079, 25497, 27007]}, "edge": {"target": [], "time": []}}, "mouseout": {"state": {"target": ["0", "1", "2", "3", "3", "3", "2", "23", "10", "11", "8", "11", "11", "9", "9", "2", "3", "4", "5", "4", "6", "6", "7", "12"], "time": [4290, 5399, 7555, 7694, 9228, 9481, 9551, 10350, 12119, 12747, 14012, 14046, 15946, 16051, 17919, 18838, 19935, 20879, 22595, 22680, 24558, 24780, 26955, 27024]}, "edge": {"target": [], "time": []}}}, "displayed_time": "34.85", "trialTime": 37947, "trial_type": "mouselab-mdp", "trial_index": 24, "time_elapsed": 2049597, "internal_node_id": "0.0-4.0-1.0-9.0"}}, {"uniqueid": "w79709549:a30844393", "current_trial": 25, "dateTime": 1691161583762, "trialdata": {"revealed_states": [], "clicked_states": [], "num_clicks_accrued": [0, 0, 0, 0, 0, 0, 0, 0, 0, 0, 0, 0, 0], "stateRewards": ["", 1, 4, -8, -5, -15, -7, 21, 13, -30, 40, -65, 1, 1, 5, -14, 35, 27, -38, -11, 36, -58, -47, -2, 4, -3, 13, -16, -49, 22, 15, -56, -44, -10], "withholdReward": false, "trial_id": "mdp_trial_11", "block": "test", "trialIndex": 14, "score": -23, "costs": 0, "simulationMode": [null, null, null, null, null], "rewards": [1, 4, -8, -5, -15], "path": ["0", "0", "1", "2", "3", "4", "5"], "rt": [7812, 672, 269, 3919, 383], "actions": ["up", "up", "up", "right", "up"], "actionTimes": [28922, 30098, 30874, 35298, 36186], "queries": {"click": {"state": {"target": [], "time": []}, "edge": {"target": [], "time": []}}, "mouseover": {"state": {"target": ["0", "23", "28", "27", "29", "27", "27", "10", "1", "1", "1", "0", "0", "1", "1", "0"], "time": [21509, 22178, 22250, 23889, 24119, 24673, 24831, 25024, 25111, 25537, 25768, 27010, 27407, 27529, 27758, 27951]}, "edge": {"target": [], "time": []}}, "mouseout": {"state": {"target": ["0", "0", "23", "28", "27", "29", "27", "27", "10", "1", "1", "1", "0", "0", "1", "1", "0"], "time": [20572, 21615, 22197, 22286, 24050, 24136, 24743, 24919, 25042, 25253, 25554, 26975, 27028, 27442, 27564, 27811, 28074]}, "edge": {"target": [], "time": []}}}, "displayed_time": "36.69", "trialTime": 38386, "trial_type": "mouselab-mdp", "trial_index": 25, "time_elapsed": 2088092, "internal_node_id": "0.0-4.0-1.0-10.0"}}, {"uniqueid": "w79709549:a30844393", "current_trial": 26, "dateTime": 1691161628682, "trialdata": {"revealed_states": [], "clicked_states": ["23", "24", "25", "30", "33", "31", "32", "26", "29", "28", "27", "1", "2", "10"], "num_clicks_accrued": [0, 0, 0, 0, 0, 0, 0, 0, 0, 0, 0, 0, 0], "stateRewards": ["", -2, 2, -5, -6, 10, -66, -58, -10, -11, -63, -70, -1, -4, -5, 7, 66, -64, -43, -3, 45, -37, 4, -2, -2, -6, -4, -30, 33, 43, 15, -32, -65, -59], "withholdReward": false, "trial_id": "mdp_trial_12", "block": "test", "trialIndex": 15, "score": 9.400000000000006, "costs": -19.599999999999998, "simulationMode": [null, null, null, null, null], "rewards": [-2, -2, -6, -4, 43], "path": ["0", "0", "23", "24", "25", "26", "29"], "rt": [36877, 192, 246, 234, 405], "actions": ["left", "left", "left", "up", "left"], "actionTimes": [39624, 40320, 41072, 41808, 42720], "queries": {"click": {"state": {"target": ["23", "24", "25", "30", "33", "31", "32", "26", "29", "28", "27", "1", "2", "10"], "time": [3620, 5627, 7523, 9187, 10722, 12602, 14515, 16842, 18699, 20811, 22835, 25643, 28059, 30115]}, "edge": {"target": [], "time": []}}, "mouseover": {"state": {"target": ["0", "23", "24", "25", "30", "33", "31", "32", "25", "26", "26", "29", "28", "27", "30", "25", "1", "1", "2", "10", "9"], "time": [3046, 3363, 4105, 6220, 8437, 10033, 12013, 13421, 15743, 16389, 16644, 17620, 20345, 21572, 24890, 24942, 25346, 25569, 26545, 29711, 30983]}, "edge": {"target": [], "time": []}}, "mouseout": {"state": {"target": ["12", "12", "0", "23", "24", "25", "30", "33", "30", "31", "32", "25", "26", "26", "29", "26", "26", "28", "26", "27", "27", "30", "25", "28", "1", "1", "2", "10", "2", "9"], "time": [2313, 2385, 3081, 4071, 6063, 8299, 9336, 11629, 11768, 13264, 15102, 16161, 16512, 17533, 19098, 19564, 20048, 21224, 21277, 22936, 23167, 24907, 24960, 25012, 25537, 26059, 29530, 30688, 30965, 31001]}, "edge": {"target": [], "time": []}}}, "displayed_time": "43.22", "trialTime": 44816, "trial_type": "mouselab-mdp", "trial_index": 26, "time_elapsed": 2133012, "internal_node_id": "0.0-4.0-1.0-11.0"}}, {"uniqueid": "w79709549:a30844393", "current_trial": 27, "dateTime": 1691162620510, "trialdata": {"revealed_states": [], "clicked_states": ["23", "24", "25", "33", "30", "31", "32", "26", "27", "29", "28", "1", "2", "3", "10", "8", "9", "11", "4", "5", "6", "7", "16", "18", "15", "17", "14", "13", "12", "19", "22", "21", "20"], "num_clicks_accrued": [0, 0, 0, 0, 0, 0, 0, 0, 0, 0, 0, 0, 0], "stateRewards": ["", -1, 3, 1, -7, 56, 76, 57, 3, 11, -9, 14, 1, -2, 2, 8, -77, -3, 79, -5, 88, 24, -66, -2, -1, 7, -7, -30, 14, -76, 11, -36, 28, -6], "withholdReward": false, "trial_id": "mdp_trial_13", "block": "test", "trialIndex": 16, "score": -26.199999999999974, "costs": -46.199999999999974, "simulationMode": [null, null, null, null, null], "rewards": [1, -2, 2, -5, 24], "path": ["0", "0", "12", "13", "14", "19", "21"], "rt": [77068, 264, 336, 257, 398], "actions": ["right", "right", "right", "down", "down"], "actionTimes": [985696, 986463, 987287, 988047, 988951], "queries": {"click": {"state": {"target": ["23", "24", "25", "33", "30", "31", "32", "26", "27", "29", "28", "1", "2", "3", "10", "8", "9", "11", "4", "5", "6", "7", "16", "18", "15", "17", "14", "13", "12", "19", "22", "21", "20"], "time": [909738, 912914, 914834, 916683, 918578, 920163, 922483, 925075, 927282, 929546, 931482, 933747, 935675, 937787, 939643, 941457, 943291, 945371, 947635, 949587, 952420, 954475, 957075, 959122, 960859, 962803, 965539, 967162, 969267, 972162, 973946, 975970, 977659]}, "edge": {"target": [], "time": []}}, "mouseover": {"state": {"target": ["23", "23", "24", "25", "24", "25", "33", "30", "31", "32", "32", "30", "26", "25", "26", "27", "29", "26", "28", "0", "0", "1", "2", "2", "10", "8", "3", "10", "8", "9", "8", "9", "11", "4", "6", "4", "5", "6", "18", "7", "16", "15", "14", "18", "15", "17", "14", "13", "12", "22", "19", "20", "19", "22", "21", "20", "31", "0", "12", "13", "20"], "time": [909346, 909453, 910278, 911656, 912625, 913428, 915307, 917307, 918973, 921424, 922104, 923698, 924010, 924568, 924761, 926339, 929215, 930379, 930536, 932246, 932786, 933018, 935015, 935294, 936408, 937315, 937507, 938927, 940043, 940062, 940789, 942013, 944373, 945858, 945926, 947156, 948881, 950730, 953097, 953962, 956591, 958407, 958442, 958758, 959626, 961586, 964527, 965987, 967734, 971297, 971611, 971647, 971826, 973000, 974759, 976786, 980627, 980874, 981084, 982236, 982906]}, "edge": {"target": [], "time": []}}, "mouseout": {"state": {"target": ["0", "0", "23", "23", "24", "25", "24", "25", "33", "30", "31", "32", "31", "31", "32", "30", "26", "25", "26", "26", "27", "29", "26", "28", "0", "0", "1", "2", "2", "10", "8", "3", "2", "10", "8", "9", "10", "8", "9", "11", "4", "6", "4", "5", "6", "18", "7", "16", "15", "14", "18", "15", "17", "14", "13", "12", "22", "19", "20", "19", "22", "21", "20", "31", "0", "12", "20", "13", "20"], "time": [907905, 909328, 909382, 910082, 911531, 912589, 913339, 915167, 917203, 918940, 921372, 921752, 921822, 922069, 923296, 923733, 924079, 924586, 925941, 926236, 928860, 930345, 930430, 931899, 932316, 932875, 934735, 935068, 936305, 936461, 937455, 938097, 938149, 940008, 940060, 940077, 940546, 941576, 944106, 945787, 945892, 946256, 948067, 950089, 953027, 953391, 955135, 958389, 958425, 958459, 959574, 961533, 963324, 965953, 967666, 971118, 971594, 971629, 971718, 972929, 974673, 976542, 978368, 980645, 981015, 981119, 981693, 982522, 984340]}, "edge": {"target": [], "time": []}}}, "displayed_time": "989.45", "trialTime": 991719, "trial_type": "mouselab-mdp", "trial_index": 27, "time_elapsed": 3124841, "internal_node_id": "0.0-4.0-1.0-12.0"}}, {"uniqueid": "w79709549:a30844393", "current_trial": 28, "dateTime": 1691163078780, "trialdata": {"revealed_states": [], "clicked_states": ["23", "24", "25", "30", "33", "32", "31", "26", "29", "28", "27", "1", "2", "3", "10", "8", "11", "9", "4", "7", "5", "6", "16", "18", "17", "15", "14", "13", "22", "19", "20", "21", "12"], "num_clicks_accrued": [0, 0, 0, 0, 0, 0, 0, 0, 0, 0, 0, 0, 0], "stateRewards": ["", 1, -2, -8, -13, 4, 34, -84, -4, -49, 88, -70, -1, 3, -4, 10, -77, 13, -34, 15, -21, -16, 27, 1, -2, 8, -8, -6, 38, -26, 6, -15, 66, -3], "withholdReward": false, "trial_id": "mdp_trial_14", "block": "test", "trialIndex": 17, "score": -129.2, "costs": -46.199999999999974, "simulationMode": [null, null, null, null, null], "rewards": [1, -2, -8, -4, -70], "path": ["0", "0", "1", "2", "3", "8", "11"], "rt": [78329, 375, 358, 368, 258], "actions": ["up", "up", "up", "left", "left"], "actionTimes": [449421, 450301, 451165, 452037, 452797], "queries": {"click": {"state": {"target": ["23", "24", "25", "30", "33", "32", "31", "26", "29", "28", "27", "1", "2", "3", "10", "8", "11", "9", "4", "7", "5", "6", "16", "18", "17", "15", "14", "13", "22", "19", "20", "21", "12"], "time": [372201, 373744, 375600, 377656, 379929, 381809, 383800, 386016, 388049, 390103, 392169, 395465, 397343, 399200, 401376, 403201, 405001, 406889, 409304, 411697, 414383, 416408, 418472, 420801, 422849, 424945, 426881, 429031, 431112, 432944, 434776, 436791, 439551]}, "edge": {"target": [], "time": []}}, "mouseover": {"state": {"target": ["0", "23", "24", "23", "24", "25", "30", "32", "30", "33", "32", "32", "31", "31", "33", "26", "26", "29", "28", "27", "30", "13", "12", "0", "1", "3", "2", "3", "3", "3", "3", "10", "1", "2", "8", "11", "9", "31", "23", "1", "2", "7", "4", "7", "12", "1", "1", "7", "5", "5", "0", "6", "18", "18", "16", "15", "14", "22", "18", "15", "14", "22", "14", "17", "15", "14", "14", "13", "22", "22", "19", "20", "20", "21", "12", "11", "10", "2", "7", "8", "11", "11", "8", "2"], "time": [371496, 371676, 371712, 371928, 373415, 374063, 375976, 377085, 377279, 379432, 380275, 381071, 382224, 383035, 385208, 385384, 385860, 387266, 388620, 391685, 392964, 394403, 394543, 394789, 395070, 395863, 396368, 397614, 398019, 398434, 398850, 401170, 401757, 402034, 402766, 403967, 406426, 407461, 408143, 408301, 408440, 408615, 408773, 409720, 410396, 410992, 411134, 411414, 412399, 412937, 415269, 416120, 416844, 417453, 417749, 418924, 418958, 419791, 420545, 421395, 421500, 421551, 421935, 422535, 424500, 425395, 425900, 427398, 429352, 430013, 431526, 433284, 434287, 436570, 439263, 443384, 443527, 443578, 444107, 444783, 445099, 445946, 446998, 447154]}, "edge": {"target": [], "time": []}}, "mouseout": {"state": {"target": ["8", "23", "0", "0", "23", "24", "23", "24", "25", "30", "32", "30", "33", "32", "32", "31", "31", "31", "33", "26", "26", "29", "26", "28", "27", "30", "13", "12", "0", "1", "3", "2", "3", "3", "3", "3", "3", "2", "1", "2", "10", "1", "2", "3", "8", "8", "11", "9", "8", "31", "23", "1", "2", "7", "4", "7", "12", "1", "1", "7", "7", "4", "5", "5", "0", "6", "18", "18", "16", "15", "14", "22", "18", "15", "14", "22", "14", "17", "15", "14", "14", "13", "22", "22", "19", "20", "20", "21", "12", "21", "11", "10", "2", "7", "8", "11", "11", "8", "2"], "time": [369807, 370209, 370622, 371606, 371694, 371838, 373344, 374045, 375964, 376010, 377139, 377990, 380188, 380326, 382119, 383001, 383911, 384164, 385243, 385645, 386349, 388380, 388465, 390486, 392531, 393051, 394420, 394718, 394948, 395706, 396124, 397562, 397632, 398174, 398710, 399318, 399545, 399615, 399944, 401047, 401722, 401999, 402069, 402141, 403334, 403705, 405450, 407337, 407390, 407478, 408160, 408336, 408475, 408632, 409702, 409755, 410535, 411063, 411169, 411940, 412309, 412363, 412489, 414750, 415286, 416740, 416896, 417593, 418890, 418941, 418976, 419808, 421308, 421430, 421534, 421794, 422021, 424343, 425344, 425430, 427038, 429300, 429404, 431473, 433266, 433302, 435087, 437107, 439881, 441163, 443402, 443544, 443595, 444142, 445047, 445728, 446964, 447051, 447206]}, "edge": {"target": [], "time": []}}}, "displayed_time": "453.30", "trialTime": 458165, "trial_type": "mouselab-mdp", "trial_index": 28, "time_elapsed": 3583111, "internal_node_id": "0.0-4.0-1.0-13.0"}}, {"uniqueid": "w79709549:a30844393", "current_trial": 29, "dateTime": 1691163124868, "trialdata": {"revealed_states": [], "clicked_states": [], "num_clicks_accrued": [0, 0, 0, 0, 0, 0, 0, 0, 0, 0, 0, 0, 0], "stateRewards": ["", -2, 2, -2, -7, -50, -62, -45, 7, 36, -24, -72, -1, -1, 8, -1, -67, 20, -52, 2, 35, -50, 80, -1, 1, 6, -6, -70, 6, 88, 8, -47, 74, -19], "withholdReward": false, "trial_id": "mdp_trial_15", "block": "test", "trialIndex": 18, "score": 88, "costs": 0, "simulationMode": [null, null, null, null, null], "rewards": [-1, 1, 6, 8, 74], "path": ["0", "0", "23", "24", "25", "30", "32"], "rt": [15910, 300, 120, 158, 649], "actions": ["left", "left", "left", "down", "down"], "actionTimes": [18277, 19085, 19709, 20373, 21533], "queries": {"click": {"state": {"target": [], "time": []}, "edge": {"target": [], "time": []}}, "mouseover": {"state": {"target": ["12", "0", "1", "1", "2", "7", "24", "29", "25", "28", "4", "5"], "time": [2919, 3429, 4672, 5300, 7424, 7583, 8091, 10186, 16493, 16515, 16637, 16673]}, "edge": {"target": [], "time": []}}, "mouseout": {"state": {"target": ["3", "23", "0", "0", "12", "0", "1", "1", "2", "7", "24", "29", "25", "28", "4", "5"], "time": [1585, 1883, 1918, 2847, 2990, 4460, 4792, 7195, 7477, 7703, 8109, 10203, 16513, 16531, 16655, 25505]}, "edge": {"target": [], "time": []}}}, "displayed_time": "22.04", "trialTime": 45982, "trial_type": "mouselab-mdp", "trial_index": 29, "time_elapsed": 3629199, "internal_node_id": "0.0-4.0-1.0-14.0"}}, {"uniqueid": "w79709549:a30844393", "current_trial": 30, "dateTime": 1691163212701, "trialdata": {"revealed_states": [], "clicked_states": ["23", "24", "25", "33", "30", "31", "32", "26", "29", "27", "28", "1", "2", "10", "8", "11", "9", "3", "4", "5", "6", "7", "16", "18", "15", "17", "14", "13", "22", "19", "20", "21", "12"], "num_clicks_accrued": [0, 0, 0, 0, 0, 0, 0, 0, 0, 0, 0, 0, 0], "stateRewards": ["", -1, -4, -1, -11, 43, 69, 39, 4, 17, -20, -82, -2, -1, 4, 8, -79, 24, -79, 11, 36, 64, 41, 2, 4, -1, 11, -79, -47, 75, -3, 63, -36, -19], "withholdReward": false, "trial_id": "mdp_trial_16", "block": "test", "trialIndex": 19, "score": 44.800000000000026, "costs": -46.199999999999974, "simulationMode": [null, null, null, null, null], "rewards": [2, 4, -1, 11, 75], "path": ["0", "0", "23", "24", "25", "26", "29"], "rt": [80295, 388, 344, 190, 10], "actions": ["left", "left", "left", "up", "left"], "actionTimes": [82913, 83809, 84657, 85353, 85865], "queries": {"click": {"state": {"target": ["23", "24", "25", "33", "30", "31", "32", "26", "29", "27", "28", "1", "2", "10", "8", "11", "9", "3", "4", "5", "6", "7", "16", "18", "15", "17", "14", "13", "22", "19", "20", "21", "12"], "time": [4053, 5587, 7620, 9996, 12052, 13939, 16157, 18620, 20428, 23300, 25772, 27940, 30020, 31868, 33907, 35900, 38044, 40060, 44212, 46100, 48340, 50396, 52594, 54604, 56659, 58547, 60757, 62620, 64509, 66566, 68556, 70643, 73461]}, "edge": {"target": [], "time": []}}, "mouseover": {"state": {"target": ["23", "24", "25", "33", "30", "31", "32", "26", "26", "29", "27", "27", "28", "12", "13", "1", "1", "18", "7", "2", "10", "3", "3", "8", "27", "11", "7", "9", "3", "4", "7", "3", "2", "1", "2", "7", "4", "5", "4", "5", "6", "6", "7", "17", "16", "15", "18", "15", "17", "15", "17", "17", "17", "22", "22", "19", "14", "13", "22", "22", "19", "20", "19", "20", "21", "33", "24", "23", "0", "12", "23", "24", "12", "19", "0", "20", "21", "21", "19", "13", "12", "17"], "time": [3693, 5213, 7312, 9785, 11418, 13513, 15211, 18195, 18406, 19733, 22767, 23065, 25359, 26187, 26601, 27198, 27638, 28371, 28788, 29172, 31073, 32301, 33050, 33120, 34409, 34898, 36263, 37772, 38324, 38359, 38549, 39591, 41796, 42677, 42851, 43401, 43698, 43768, 43943, 45585, 47804, 47961, 49521, 50846, 52437, 53596, 54015, 54917, 55022, 55680, 56963, 57363, 57571, 58968, 60009, 60343, 60519, 61443, 62950, 63437, 64854, 64924, 65563, 66960, 70121, 71286, 71390, 71478, 71547, 71843, 72119, 72155, 72855, 73893, 76628, 77121, 77439, 78073, 78233, 78394, 78719, 80203]}, "edge": {"target": [], "time": []}}, "mouseout": {"state": {"target": ["13", "12", "0", "23", "24", "25", "33", "30", "31", "32", "32", "26", "26", "29", "26", "27", "27", "27", "28", "12", "13", "1", "1", "18", "7", "2", "10", "3", "3", "8", "8", "27", "11", "7", "9", "3", "4", "7", "3", "2", "1", "2", "7", "4", "5", "4", "4", "4", "5", "6", "6", "6", "7", "17", "16", "15", "18", "15", "17", "15", "17", "17", "17", "22", "22", "19", "14", "13", "22", "22", "19", "20", "19", "20", "21", "33", "24", "23", "0", "12", "23", "24", "12", "19", "0", "20", "21", "21", "19", "13", "12", "17"], "time": [1898, 1916, 3550, 5178, 7153, 9523, 11140, 13409, 14569, 17713, 18019, 18247, 19088, 21377, 22732, 22819, 23753, 25254, 26117, 26203, 26619, 27320, 28266, 28648, 28823, 30341, 32215, 32319, 33068, 34010, 34323, 34445, 36194, 37683, 38288, 38342, 38376, 38826, 40320, 42378, 42695, 43384, 43504, 43733, 43891, 44322, 44542, 45220, 46393, 47839, 48425, 48671, 50793, 50863, 52970, 53772, 54714, 54969, 55091, 56911, 57017, 57432, 58898, 58986, 60114, 60360, 61127, 62915, 63072, 64820, 64889, 65303, 66908, 68903, 71043, 71314, 71460, 71530, 71705, 72085, 72137, 72267, 73841, 73910, 76786, 77139, 77456, 78091, 78287, 78412, 79527, 80220]}, "edge": {"target": [], "time": []}}}, "displayed_time": "86.37", "trialTime": 87681, "trial_type": "mouselab-mdp", "trial_index": 30, "time_elapsed": 3717032, "internal_node_id": "0.0-4.0-1.0-15.0"}}, {"uniqueid": "w79709549:a30844393", "current_trial": 31, "dateTime": 1691163298923, "trialdata": {"revealed_states": [], "clicked_states": ["23", "24", "25", "33", "30", "32", "31", "29", "26", "28", "27", "11", "8", "10", "9", "3", "2", "1", "7", "4", "5", "6", "16", "18", "15", "17", "12", "13", "14", "19", "22", "21", "20"], "num_clicks_accrued": [0, 0, 0, 0, 0, 0, 0, 0, 0, 0, 0, 0, 0], "stateRewards": ["", -2, -4, 6, 14, -34, 49, 36, -8, -3, 32, -4, 1, -2, 1, -8, -20, -71, -57, -7, -86, -62, -16, -2, -3, -5, 11, 23, -21, 53, 5, -5, 85, 73], "withholdReward": false, "trial_id": "mdp_trial_17", "block": "test", "trialIndex": 20, "score": 33.800000000000026, "costs": -46.199999999999974, "simulationMode": [null, null, null, null, null], "rewards": [-2, -3, -5, 5, 85], "path": ["0", "0", "23", "24", "25", "30", "32"], "rt": [72890, 575, 324, 159, 329], "actions": ["left", "left", "left", "down", "down"], "actionTimes": [80010, 81090, 81914, 82570, 83402], "queries": {"click": {"state": {"target": ["23", "24", "25", "33", "30", "32", "31", "29", "26", "28", "27", "11", "8", "10", "9", "3", "2", "1", "7", "4", "5", "6", "16", "18", "15", "17", "12", "13", "14", "19", "22", "21", "20"], "time": [8311, 10517, 12582, 14477, 15991, 18438, 20237, 22565, 24534, 26405, 28295, 30510, 32613, 34461, 36750, 38636, 40629, 42436, 44404, 46436, 48654, 50532, 52525, 54692, 56599, 58421, 60325, 62109, 63932, 65773, 68300, 70077, 71813]}, "edge": {"target": [], "time": []}}, "mouseover": {"state": {"target": ["23", "24", "25", "33", "30", "32", "32", "31", "12", "9", "29", "26", "28", "28", "26", "28", "28", "28", "27", "10", "2", "7", "7", "3", "8", "11", "8", "11", "8", "3", "7", "2", "8", "10", "10", "2", "2", "9", "9", "4", "2", "3", "2", "2", "1", "7", "4", "5", "4", "5", "5", "6", "16", "17", "15", "18", "18", "15", "17", "15", "17", "14", "13", "12", "13", "14", "19", "19", "22", "22", "21", "20", "19", "0", "12", "12", "0", "12", "13", "14"], "time": [7806, 9279, 10935, 13691, 14841, 17251, 18075, 19128, 21726, 21852, 22302, 22887, 22924, 23727, 24103, 24867, 25164, 25667, 27514, 28658, 28693, 28728, 29022, 29058, 29075, 29389, 29701, 30298, 30825, 30876, 31033, 31260, 31451, 32992, 33737, 34932, 35298, 36259, 36593, 37097, 37309, 37707, 38922, 39655, 40988, 43531, 44745, 44799, 45230, 47400, 47615, 49000, 52220, 53239, 53257, 53290, 54474, 54972, 55059, 55372, 56977, 58770, 59377, 59728, 60741, 62475, 64259, 64380, 66330, 67709, 69020, 70806, 73406, 73918, 74425, 74710, 75634, 76025, 76373, 77829]}, "edge": {"target": [], "time": []}}, "mouseout": {"state": {"target": ["6", "7", "0", "23", "24", "25", "33", "30", "32", "32", "31", "12", "9", "29", "26", "28", "28", "26", "28", "28", "28", "27", "10", "2", "7", "7", "3", "8", "11", "8", "11", "8", "3", "7", "2", "8", "10", "10", "2", "2", "9", "9", "4", "2", "3", "2", "2", "1", "7", "4", "5", "4", "5", "5", "6", "16", "17", "15", "18", "18", "15", "17", "15", "17", "14", "13", "12", "13", "14", "19", "19", "22", "22", "21", "20", "19", "0", "12", "12", "0", "12", "13", "14"], "time": [6425, 6496, 7754, 8967, 10901, 13517, 14807, 16798, 17444, 18735, 21528, 21781, 21870, 22870, 22923, 22940, 23816, 24849, 24885, 25510, 26888, 28605, 28676, 28711, 28746, 29057, 29074, 29091, 29407, 29911, 30807, 30858, 30893, 31190, 31295, 32957, 33027, 34843, 35018, 36080, 36330, 37027, 37133, 37415, 38886, 39012, 40916, 42850, 44459, 44763, 44960, 46539, 47454, 48966, 50840, 52806, 53256, 53273, 53469, 54955, 55025, 55251, 56925, 58684, 59360, 59694, 60706, 62440, 64207, 64327, 66226, 67411, 68621, 70422, 73371, 73441, 74338, 74530, 75562, 76007, 76355, 77811, 77900]}, "edge": {"target": [], "time": []}}}, "displayed_time": "83.91", "trialTime": 86114, "trial_type": "mouselab-mdp", "trial_index": 31, "time_elapsed": 3803254, "internal_node_id": "0.0-4.0-1.0-16.0"}}, {"uniqueid": "w79709549:a30844393", "current_trial": 32, "dateTime": 1691163878308, "trialdata": {"revealed_states": [], "clicked_states": ["32", "30", "33", "31", "25", "26", "29", "28", "27", "14", "13", "12", "19", "20", "22", "21"], "num_clicks_accrued": [0, 0, 0, 0, 0, 0, 0, 0, 0, 0, 0, 0, 0], "stateRewards": ["", -2, -4, -6, 12, -58, -70, -80, 2, 16, -88, -62, 1, 2, -5, 11, 77, -35, -44, -5, 18, -83, 87, 1, -3, -5, 13, -44, -21, -86, 10, -52, 8, 29], "withholdReward": false, "trial_id": "mdp_trial_18", "block": "test", "trialIndex": 21, "score": -112.39999999999999, "costs": -22.399999999999995, "simulationMode": [null, null, null, null, null], "rewards": [1, 2, -5, -5, -83], "path": ["0", "0", "12", "13", "14", "19", "21"], "rt": [107470, 341, 1675, 129, 640], "actions": ["right", "right", "right", "down", "down"], "actionTimes": [568868, 569708, 571883, 572515, 573659], "queries": {"click": {"state": {"target": ["32", "30", "33", "31", "25", "26", "29", "28", "27", "14", "13", "12", "19", "20", "22", "21"], "time": [463200, 464807, 466598, 468231, 470257, 472407, 473950, 475736, 477320, 480975, 482630, 484150, 486207, 488199, 489935, 492126]}, "edge": {"target": [], "time": []}}, "mouseover": {"state": {"target": ["23", "30", "33", "32", "30", "33", "33", "31", "31", "25", "26", "29", "29", "28", "28", "27", "23", "30", "20", "14", "14", "13", "12", "19", "20", "19", "19", "20", "22", "21", "22", "1", "12", "12"], "time": [461748, 461784, 461819, 461999, 463775, 465235, 465434, 467034, 467557, 469744, 472240, 472775, 473155, 474331, 475086, 476206, 477734, 477787, 479336, 479496, 480767, 481448, 483237, 484870, 484906, 485102, 485365, 486502, 488617, 490281, 495420, 565019, 565451, 565692]}, "edge": {"target": [], "time": []}}, "mouseout": {"state": {"target": ["13", "12", "0", "0", "0", "31", "0", "23", "30", "33", "32", "30", "33", "33", "30", "31", "31", "30", "25", "26", "29", "29", "28", "28", "27", "23", "30", "20", "14", "14", "13", "12", "19", "20", "19", "19", "20", "19", "22", "21", "22", "22", "1", "12", "12", "4"], "time": [1012, 1135, 1647, 4699, 459318, 460445, 461729, 461766, 461801, 461855, 463415, 465199, 465290, 466893, 466999, 467226, 469065, 469275, 470690, 472768, 472893, 474069, 474942, 476068, 477597, 477751, 478149, 479371, 480537, 481411, 483028, 484528, 484888, 485085, 485138, 486485, 488459, 488529, 490229, 492403, 494754, 496059, 565420, 565468, 565710, 576533]}, "edge": {"target": [], "time": []}}}, "displayed_time": "574.16", "trialTime": 579276, "trial_type": "mouselab-mdp", "trial_index": 32, "time_elapsed": 4382639, "internal_node_id": "0.0-4.0-1.0-17.0"}}, {"uniqueid": "w79709549:a30844393", "current_trial": 33, "dateTime": 1691164054378, "trialdata": {"revealed_states": [], "clicked_states": ["23", "24", "25", "33", "30", "31", "32", "26", "29", "27", "28", "12", "13", "14", "19", "22", "20", "21", "15", "16", "18", "17", "7", "2", "10", "8", "9"], "num_clicks_accrued": [0, 0, 0, 0, 0, 0, 0, 0, 0, 0, 0, 0, 0], "stateRewards": ["", -2, 2, -4, -4, -59, 88, 62, -3, 69, -15, -34, 1, -2, -5, 7, -54, -20, 78, -16, -74, -53, -21, 2, -4, 2, 13, -8, -44, 26, 9, 72, 4, 17], "withholdReward": false, "trial_id": "mdp_trial_19", "block": "test", "trialIndex": 22, "score": 43.20000000000002, "costs": -37.79999999999998, "simulationMode": [null, null, null, null, null], "rewards": [2, -4, 2, 9, 72], "path": ["0", "0", "23", "24", "25", "30", "31"], "rt": [167433, 550, 324, 303, 371], "actions": ["left", "left", "left", "down", "right"], "actionTimes": [170627, 171682, 172514, 173322, 174195], "queries": {"click": {"state": {"target": ["23", "24", "25", "33", "30", "31", "32", "26", "29", "27", "28", "12", "13", "14", "19", "22", "20", "21", "15", "16", "18", "17", "7", "2", "10", "8", "9"], "time": [4701, 6391, 8135, 9694, 11360, 12934, 14711, 17590, 19727, 21519, 23375, 26687, 28381, 30063, 31838, 33471, 35255, 36837, 38526, 40487, 42183, 43943, 46239, 48367, 49878, 51647, 53430]}, "edge": {"target": [], "time": []}}, "mouseover": {"state": {"target": ["0", "0", "23", "24", "25", "25", "33", "30", "31", "30", "31", "32", "24", "24", "24", "26", "29", "29", "27", "28", "0", "17", "16", "12", "12", "13", "13", "14", "14", "14", "19", "19", "22", "20", "20", "21", "19", "14", "15", "16", "18", "17", "7", "7", "2", "11", "10", "10", "8", "9", "3", "2", "2", "23"], "time": [3367, 3934, 4351, 5117, 6756, 7038, 8482, 9962, 10030, 10379, 11753, 13298, 16306, 16764, 16956, 17301, 17988, 18145, 20678, 22349, 23845, 25819, 25980, 26192, 26450, 26964, 27258, 28799, 29059, 29320, 30443, 30880, 32184, 33765, 34060, 35882, 37254, 37342, 37638, 38979, 40917, 42740, 45714, 46010, 46640, 49267, 49475, 49617, 50819, 52809, 56740, 57092, 57393, 57552]}, "edge": {"target": [], "time": []}}, "mouseout": {"state": {"target": ["8", "7", "12", "0", "0", "0", "0", "0", "23", "24", "25", "25", "33", "30", "31", "30", "31", "32", "31", "24", "24", "24", "26", "29", "29", "27", "28", "0", "17", "16", "12", "12", "13", "13", "13", "14", "14", "14", "19", "19", "22", "19", "20", "20", "21", "19", "14", "15", "16", "18", "15", "17", "7", "7", "2", "2", "11", "10", "10", "8", "9", "8", "3", "2", "2", "23"], "time": [1055, 1196, 1460, 2102, 2392, 2954, 3647, 4192, 5082, 6720, 6792, 8430, 9928, 9996, 10204, 11682, 13246, 15300, 15712, 16499, 16869, 17008, 17954, 18023, 20004, 21812, 23758, 23862, 25838, 26016, 26380, 26912, 27016, 28642, 28798, 28833, 29163, 30408, 30460, 32149, 33697, 33748, 33854, 35673, 37184, 37289, 37429, 38875, 40777, 42532, 42602, 44950, 45749, 46356, 48591, 48938, 49369, 49528, 50350, 52566, 53953, 54353, 56899, 57341, 57411, 57569]}, "edge": {"target": [], "time": []}}}, "displayed_time": "174.70", "trialTime": 175938, "trial_type": "mouselab-mdp", "trial_index": 33, "time_elapsed": 4558709, "internal_node_id": "0.0-4.0-1.0-18.0"}}, {"uniqueid": "w79709549:a30844393", "current_trial": 34, "dateTime": 1691164129826, "trialdata": {"revealed_states": [], "clicked_states": ["23", "24", "25", "33", "30", "31", "32", "26", "27", "29", "28", "1", "2", "10", "8", "11", "9", "3", "4", "5", "6", "7", "12", "13", "14", "19", "22", "20", "21", "15", "18", "17", "16"], "num_clicks_accrued": [0, 0, 0, 0, 0, 0, 0, 0, 0, 0, 0, 0, 0], "stateRewards": ["", 1, -4, -4, 8, 1, -79, 68, -10, -79, 8, -74, -1, -3, -6, 14, 43, 23, 9, 5, -51, 63, 61, -2, 4, 6, -10, 69, -32, 57, 15, -80, -80, -77], "withholdReward": false, "trial_id": "mdp_trial_20", "block": "test", "trialIndex": 23, "score": 20.800000000000026, "costs": -46.199999999999974, "simulationMode": [null, null, null, null, null], "rewards": [-2, 4, 6, -10, 69], "path": ["0", "0", "23", "24", "25", "26", "27"], "rt": [68568, 307, 339, 294, 290], "actions": ["left", "left", "left", "up", "up"], "actionTimes": [70203, 71003, 71851, 72651, 73443], "queries": {"click": {"state": {"target": ["23", "24", "25", "33", "30", "31", "32", "26", "27", "29", "28", "1", "2", "10", "8", "11", "9", "3", "4", "5", "6", "7", "12", "13", "14", "19", "22", "20", "21", "15", "18", "17", "16"], "time": [2535, 4086, 6102, 7797, 10119, 11773, 13814, 15951, 17718, 19478, 21518, 24206, 25910, 27598, 29406, 31206, 32839, 34350, 35902, 37863, 39503, 41622, 43583, 45390, 47101, 49046, 51223, 53159, 55046, 57311, 59173, 60982, 62783]}, "edge": {"target": [], "time": []}}, "mouseover": {"state": {"target": ["23", "24", "23", "24", "25", "33", "30", "31", "30", "31", "31", "32", "22", "13", "12", "12", "12", "26", "27", "29", "28", "28", "1", "1", "2", "2", "10", "8", "11", "9", "3", "4", "5", "6", "6", "7", "15", "15", "18", "12", "13", "13", "14", "19", "22", "22", "20", "21", "21", "15", "16", "15", "14", "15", "16", "15", "18", "17", "16", "15", "18", "12", "0", "12", "14", "15"], "time": [2037, 2056, 2283, 2829, 4341, 6396, 8183, 9634, 9929, 10421, 10789, 12187, 14385, 14490, 14524, 14733, 14838, 15324, 16435, 18082, 19782, 20008, 22582, 23900, 24503, 25421, 26619, 28553, 29874, 31603, 33203, 34746, 36395, 38156, 38537, 39870, 41951, 42284, 42793, 43162, 44631, 45136, 45797, 47413, 49365, 51043, 51572, 53659, 53903, 55583, 55618, 55896, 56225, 56398, 56727, 56937, 57725, 59521, 61790, 63286, 65711, 65815, 66003, 66276, 67922, 68287]}, "edge": {"target": [], "time": []}}, "mouseout": {"state": {"target": ["0", "23", "24", "23", "24", "25", "33", "30", "31", "30", "31", "31", "32", "32", "22", "13", "12", "12", "12", "26", "27", "29", "28", "28", "1", "1", "2", "2", "10", "8", "11", "9", "3", "4", "5", "6", "6", "7", "15", "15", "18", "12", "13", "13", "14", "19", "22", "19", "19", "22", "19", "20", "21", "21", "15", "16", "15", "14", "15", "16", "15", "18", "15", "17", "16", "15", "16", "18", "12", "0", "12", "14"], "time": [1312, 2055, 2248, 2760, 4323, 6378, 8110, 9597, 9911, 10386, 10458, 12101, 13903, 14127, 14438, 14507, 14558, 14785, 14872, 16331, 18014, 19588, 19836, 22022, 22667, 24227, 24712, 26428, 28483, 29856, 31466, 33134, 34728, 36151, 38104, 38225, 39816, 41898, 41969, 42320, 43111, 44019, 44979, 45711, 47395, 49260, 50577, 50665, 51008, 51484, 51519, 53555, 53694, 55513, 55600, 55878, 55913, 56311, 56450, 56745, 57708, 59453, 59504, 61407, 63216, 63632, 65393, 65763, 65950, 66101, 67235, 68182]}, "edge": {"target": [], "time": []}}}, "displayed_time": "73.95", "trialTime": 75323, "trial_type": "mouselab-mdp", "trial_index": 34, "time_elapsed": 4634157, "internal_node_id": "0.0-4.0-1.0-19.0"}}, {"uniqueid": "w79709549:a30844393", "current_trial": 35, "dateTime": 1691164513271, "trialdata": {"revealed_states": [], "clicked_states": ["23", "24", "25", "30", "33", "31", "32", "26", "29", "27", "28", "21", "22", "20", "19"], "num_clicks_accrued": [0, 0, 0, 0, 0, 0, 0, 0, 0, 0, 0, 0, 0], "stateRewards": ["", 2, 3, -2, -8, -8, -41, 74, 15, -23, -80, 1, 1, 3, 3, -15, -63, -78, 67, 13, 75, -41, 86, 2, -2, 6, -3, -8, -49, 50, -6, 83, 74, 80], "withholdReward": false, "trial_id": "mdp_trial_21", "block": "test", "trialIndex": 24, "score": 85, "costs": -20.999999999999996, "simulationMode": [null, null, null, null, null], "rewards": [1, 3, 3, 13, 86], "path": ["0", "0", "12", "13", "14", "19", "22"], "rt": [108974, 309, 302, 735, 242], "actions": ["right", "right", "right", "down", "left"], "actionTimes": [377865, 378664, 379472, 380713, 381456], "queries": {"click": {"state": {"target": ["23", "24", "25", "30", "33", "31", "32", "26", "29", "27", "28", "21", "22", "20", "19"], "time": [270228, 272133, 274051, 276027, 278131, 280147, 282091, 286228, 287772, 289645, 291483, 293844, 295628, 297436, 300004]}, "edge": {"target": [], "time": []}}, "mouseover": {"state": {"target": ["0", "23", "24", "25", "25", "30", "33", "31", "31", "32", "30", "30", "25", "29", "26", "26", "29", "27", "24", "28", "21", "22", "19", "20", "20", "19", "22"], "time": [268978, 269833, 270606, 272419, 272652, 274354, 276260, 278372, 278598, 280531, 284156, 284959, 285120, 285808, 285915, 285986, 286679, 288273, 290087, 290713, 293576, 294773, 295927, 295963, 296485, 299809, 301169]}, "edge": {"target": [], "time": []}}, "mouseout": {"state": {"target": ["15", "0", "0", "23", "24", "25", "25", "30", "33", "30", "31", "31", "32", "32", "32", "30", "31", "30", "25", "29", "26", "26", "29", "27", "26", "24", "28", "21", "22", "19", "20", "20", "19", "22"], "time": [1160, 268904, 269280, 270533, 272419, 272436, 274319, 276224, 278282, 278354, 278389, 280462, 282766, 283423, 284068, 284209, 284623, 284994, 285209, 285897, 285933, 286626, 288168, 289962, 290051, 290299, 291831, 294174, 295910, 295945, 295981, 299152, 300805, 302730]}, "edge": {"target": [], "time": []}}}, "displayed_time": "381.96", "trialTime": 383328, "trial_type": "mouselab-mdp", "trial_index": 35, "time_elapsed": 5017602, "internal_node_id": "0.0-4.0-1.0-20.0"}}, {"uniqueid": "w79709549:a30844393", "current_trial": 36, "dateTime": 1691164642182, "trialdata": {"revealed_states": [], "clicked_states": ["23", "24", "25", "30", "33", "31", "32", "26", "29", "27", "28", "21", "22", "20", "19", "14", "17", "18", "16", "15", "9", "11", "3", "8", "10"], "num_clicks_accrued": [0, 0, 0, 0, 0, 0, 0, 0, 0, 0, 0, 0, 0], "stateRewards": ["", -2, -4, -2, -13, -15, 87, -19, -6, -80, 30, 12, 1, 1, -8, 2, 55, 56, 15, 11, -68, -7, 55, -2, 3, -3, -3, 48, 62, 4, 1, -3, 69, -33], "withholdReward": false, "trial_id": "mdp_trial_22", "block": "test", "trialIndex": 25, "score": 33.000000000000014, "costs": -34.999999999999986, "simulationMode": [null, null, null, null, null], "rewards": [-2, 3, -3, 1, 69], "path": ["0", "0", "23", "24", "25", "30", "32"], "rt": [77200, 360, 337, 224, 360], "actions": ["left", "left", "left", "down", "down"], "actionTimes": [122584, 123447, 124287, 125015, 125879], "queries": {"click": {"state": {"target": ["23", "24", "25", "30", "33", "31", "32", "26", "29", "27", "28", "21", "22", "20", "19", "14", "17", "18", "16", "15", "9", "11", "3", "8", "10"], "time": [46309, 48179, 49826, 51555, 53082, 54891, 56691, 59202, 61802, 63675, 65490, 74899, 76667, 78684, 80651, 82475, 84939, 86779, 88771, 90539, 93427, 95242, 97131, 98883, 100643]}, "edge": {"target": [], "time": []}}, "mouseover": {"state": {"target": ["23", "24", "25", "30", "30", "33", "31", "32", "24", "28", "27", "29", "27", "26", "29", "30", "29", "27", "28", "24", "31", "21", "22", "19", "20", "20", "19", "19", "14", "15", "14", "17", "17", "17", "15", "18", "15", "16", "15", "13", "23", "28", "27", "27", "1", "2", "3", "9", "8", "10", "11", "11", "8", "3", "8", "10", "2", "7", "7", "7"], "time": [45775, 46811, 48538, 50112, 50362, 52025, 53546, 55447, 57177, 57265, 57389, 57755, 58562, 58773, 59806, 60797, 61509, 62584, 64508, 65972, 66025, 74832, 76013, 77110, 77183, 77579, 79239, 79669, 81014, 81117, 81520, 82872, 83200, 84694, 85267, 85336, 87282, 88235, 89238, 91040, 91216, 91354, 91475, 92224, 92539, 92715, 92891, 93211, 93773, 93843, 94156, 94330, 95545, 95617, 97512, 99250, 100981, 103288, 107558, 108324]}, "edge": {"target": [], "time": []}}, "mouseout": {"state": {"target": ["32", "0", "0", "23", "24", "25", "30", "30", "33", "30", "31", "32", "24", "28", "27", "29", "27", "26", "29", "30", "29", "27", "28", "24", "31", "21", "22", "19", "20", "20", "19", "19", "14", "15", "14", "17", "17", "17", "15", "18", "15", "16", "15", "13", "23", "28", "27", "27", "1", "2", "3", "9", "8", "10", "11", "11", "8", "3", "8", "10", "2", "7", "7", "7"], "time": [7894, 44638, 45757, 46649, 48520, 50076, 50148, 51869, 53389, 53495, 55289, 57089, 57230, 57319, 57424, 57946, 58596, 59631, 59907, 60833, 62172, 63917, 65936, 66007, 66042, 75957, 76828, 77147, 77273, 79203, 79543, 80926, 81066, 81415, 82751, 82889, 84539, 85250, 85302, 87176, 87905, 89168, 91005, 91058, 91250, 91371, 91596, 92259, 92679, 92820, 93015, 93739, 93809, 94035, 94190, 95369, 95563, 97460, 99160, 100945, 103235, 103378, 108045, 108342]}, "edge": {"target": [], "time": []}}}, "displayed_time": "126.38", "trialTime": 128783, "trial_type": "mouselab-mdp", "trial_index": 36, "time_elapsed": 5146512, "internal_node_id": "0.0-4.0-1.0-21.0"}}, {"uniqueid": "w79709549:a30844393", "current_trial": 37, "dateTime": 1691164831583, "trialdata": {"revealed_states": [], "clicked_states": ["23", "24", "25", "33", "30", "31", "32", "29", "26", "28", "27", "1", "2", "3", "10", "8", "11", "9", "5", "6", "4", "7", "16", "18", "17", "20", "22", "21", "19", "14", "15", "13", "12"], "num_clicks_accrued": [0, 0, 0, 0, 0, 0, 0, 0, 0, 0, 0, 0, 0], "stateRewards": ["", -1, -2, -1, -10, -57, 73, -72, -16, 75, -14, -46, -2, -3, -7, -1, -61, -60, 76, -4, 50, 4, 14, 2, 2, -7, 12, -65, -32, 15, -8, -76, -25, -61], "withholdReward": false, "trial_id": "mdp_trial_23", "block": "test", "trialIndex": 26, "score": 16.800000000000026, "costs": -46.199999999999974, "simulationMode": [null, null, null, null, null], "rewards": [-2, -3, -7, -1, 76], "path": ["0", "0", "12", "13", "14", "15", "18"], "rt": [74252, 347, 338, 487, 216], "actions": ["right", "right", "right", "up", "left"], "actionTimes": [184112, 184965, 185798, 186790, 187518], "queries": {"click": {"state": {"target": ["23", "24", "25", "33", "30", "31", "32", "29", "26", "28", "27", "1", "2", "3", "10", "8", "11", "9", "5", "6", "4", "7", "16", "18", "17", "20", "22", "21", "19", "14", "15", "13", "12"], "time": [111315, 112912, 117377, 119097, 120681, 122225, 124304, 126057, 128410, 130242, 132034, 134898, 136688, 138434, 140304, 142025, 143793, 145546, 149690, 151569, 153354, 155098, 157345, 159306, 161362, 164466, 166289, 168193, 170032, 171810, 173528, 175565, 177425]}, "edge": {"target": [], "time": []}}, "mouseover": {"state": {"target": ["31", "0", "23", "24", "25", "25", "33", "33", "30", "31", "32", "27", "29", "26", "28", "26", "28", "27", "12", "0", "1", "1", "2", "3", "10", "8", "11", "9", "5", "3", "3", "3", "3", "4", "7", "2", "3", "5", "5", "4", "7", "6", "2", "4", "7", "16", "15", "13", "18", "15", "17", "17", "17", "14", "13", "14", "20", "19", "22", "21", "19", "14", "15", "15", "13", "13", "12", "12", "12", "13", "12"], "time": [110676, 110820, 111071, 111781, 113181, 116856, 118081, 118934, 119393, 120992, 122728, 124680, 125133, 126344, 127904, 128208, 128637, 130866, 133381, 133855, 134534, 134647, 135626, 137140, 139229, 140706, 142423, 144485, 146224, 147271, 147717, 147839, 148190, 148278, 148629, 148877, 149015, 149138, 149366, 150002, 150159, 150439, 151977, 152362, 153650, 156867, 157760, 158092, 158599, 159598, 159649, 159930, 160242, 163249, 163374, 163834, 164100, 165143, 165232, 167432, 169225, 170864, 172224, 172417, 174257, 175560, 176115, 176324, 176981, 181923, 183251]}, "edge": {"target": [], "time": []}}, "mouseout": {"state": {"target": ["0", "31", "0", "23", "24", "25", "25", "33", "33", "30", "31", "32", "27", "29", "26", "28", "26", "28", "27", "12", "0", "1", "1", "2", "3", "3", "10", "8", "11", "9", "5", "3", "3", "3", "3", "4", "7", "2", "3", "5", "5", "5", "4", "7", "6", "6", "2", "4", "4", "7", "16", "15", "13", "18", "15", "17", "17", "17", "17", "14", "13", "14", "20", "19", "22", "21", "19", "14", "15", "15", "13", "13", "13", "12", "12", "12", "12", "13", "12", "13", "12"], "time": [110406, 110748, 110837, 111727, 113163, 116628, 117743, 118776, 119219, 120940, 122590, 124524, 124888, 126291, 127799, 128085, 128603, 130503, 132482, 133502, 134482, 134587, 135365, 137036, 138599, 138831, 140567, 142406, 144052, 145962, 146867, 147466, 147734, 147944, 148208, 148402, 148823, 148894, 149050, 149190, 149807, 149984, 150054, 150228, 151719, 151941, 151994, 153471, 153632, 155410, 157707, 158023, 158198, 159563, 159615, 159719, 160103, 161901, 163006, 163267, 163798, 163940, 165056, 165196, 166631, 168764, 170370, 172189, 172261, 173822, 175034, 175579, 176080, 176149, 176739, 177849, 179703, 180290, 181728, 182776, 183269]}, "edge": {"target": [], "time": []}}}, "displayed_time": "188.03", "trialTime": 189271, "trial_type": "mouselab-mdp", "trial_index": 37, "time_elapsed": 5335914, "internal_node_id": "0.0-4.0-1.0-22.0"}}, {"uniqueid": "w79709549:a30844393", "current_trial": 38, "dateTime": 1691164909372, "trialdata": {"revealed_states": [], "clicked_states": ["12", "13", "14", "20", "22", "21", "17", "16", "18", "15", "19", "32", "31", "33", "30", "25", "28", "29", "27", "9", "11", "3", "10", "8", "5", "6", "4", "7", "2", "1", "23", "24", "26"], "num_clicks_accrued": [0, 0, 0, 0, 0, 0, 0, 0, 0, 0, 0, 0, 0], "stateRewards": ["", 1, 4, 5, -5, 58, -80, 75, 6, 25, -39, 46, 2, -2, 4, 2, 59, 31, -22, -12, -61, 15, 72, 1, -2, -7, 8, 77, 76, -23, -7, 71, -15, -3], "withholdReward": false, "trial_id": "mdp_trial_24", "block": "test", "trialIndex": 27, "score": 30.800000000000026, "costs": -46.199999999999974, "simulationMode": [null, null, null, null, null], "rewards": [1, -2, -7, 8, 77], "path": ["0", "0", "23", "24", "25", "26", "27"], "rt": [68672, 279, 296, 281, 374], "actions": ["left", "left", "left", "up", "up"], "actionTimes": [72187, 72971, 73771, 74555, 75419], "queries": {"click": {"state": {"target": ["12", "13", "14", "20", "22", "21", "17", "16", "18", "15", "19", "32", "31", "33", "30", "25", "28", "29", "27", "9", "11", "3", "10", "8", "5", "6", "4", "7", "2", "1", "23", "24", "26"], "time": [4453, 6206, 7990, 10005, 11830, 13638, 16221, 18118, 19941, 22069, 23733, 25382, 27709, 29549, 31366, 33110, 34838, 36742, 39094, 42270, 44021, 45750, 47559, 49613, 51310, 53174, 54966, 56782, 58494, 60517, 62774, 64726, 66694]}, "edge": {"target": [], "time": []}}, "mouseover": {"state": {"target": ["0", "12", "13", "13", "14", "20", "19", "22", "21", "21", "14", "15", "16", "16", "17", "15", "16", "16", "18", "15", "15", "15", "15", "14", "19", "22", "31", "30", "33", "32", "31", "31", "33", "25", "30", "25", "26", "27", "26", "28", "26", "29", "27", "8", "9", "11", "8", "3", "10", "8", "5", "4", "6", "4", "3", "4", "7", "2", "2", "1", "0", "0", "23", "24", "24", "24", "25", "26", "25", "23", "23"], "time": [3980, 4266, 4906, 5112, 7659, 8649, 10318, 10525, 12193, 12679, 14595, 14664, 14717, 15347, 15683, 16920, 17216, 17734, 18620, 20303, 20791, 20965, 21825, 22357, 22976, 24038, 24142, 24473, 24491, 25083, 26578, 27405, 29195, 30355, 30844, 31679, 33420, 33490, 33768, 33976, 35183, 35358, 38812, 41518, 42110, 42755, 44317, 44663, 46149, 47869, 50170, 51609, 52855, 53538, 53660, 54219, 55435, 57144, 57594, 58929, 61679, 62010, 62396, 63217, 63440, 64438, 65714, 65819, 67195, 68900, 70071]}, "edge": {"target": [], "time": []}}, "mouseout": {"state": {"target": ["1", "0", "0", "12", "13", "13", "14", "20", "19", "22", "21", "21", "14", "15", "16", "16", "17", "15", "16", "16", "16", "18", "15", "15", "15", "15", "14", "19", "22", "31", "30", "33", "32", "31", "31", "33", "25", "30", "25", "26", "27", "26", "28", "26", "29", "27", "8", "9", "9", "11", "8", "3", "10", "8", "3", "5", "4", "6", "4", "3", "4", "7", "2", "2", "1", "0", "0", "23", "24", "24", "24", "25", "26", "25", "24", "23", "23"], "time": [2504, 3911, 3997, 4888, 4958, 7590, 8320, 10318, 10352, 12108, 12540, 14229, 14613, 14699, 14769, 15365, 16869, 17111, 17596, 18251, 18480, 20269, 20338, 20826, 21739, 22302, 22410, 24020, 24072, 24439, 24490, 24509, 25726, 26945, 27979, 30193, 30791, 31593, 33198, 33455, 33629, 33941, 35149, 35270, 37384, 40049, 41915, 42397, 42545, 44299, 44403, 46079, 47750, 49855, 49907, 51573, 52786, 53520, 53573, 54185, 55223, 57110, 57266, 58858, 61626, 61714, 62238, 63146, 63302, 64169, 65125, 65750, 67109, 67284, 68811, 69641, 70765]}, "edge": {"target": [], "time": []}}}, "displayed_time": "75.93", "trialTime": 77658, "trial_type": "mouselab-mdp", "trial_index": 38, "time_elapsed": 5413703, "internal_node_id": "0.0-4.0-1.0-23.0"}}, {"uniqueid": "w79709549:a30844393", "current_trial": 39, "dateTime": 1691164932181, "trialdata": {"revealed_states": [], "clicked_states": [], "num_clicks_accrued": [0, 0, 0, 0, 0, 0, 0, 0, 0, 0, 0, 0, 0], "stateRewards": ["", -1, 2, 6, 11, 21, -21, -21, -6, 48, -71, 88, -1, -3, 3, 7, 64, 2, 9, -4, 37, -67, 72, 2, 2, -8, -8, -10, 71, -40, -3, 73, 80, 47], "withholdReward": false, "trial_id": "mdp_trial_25", "block": "test", "trialIndex": 28, "score": 73, "costs": 0, "simulationMode": [null, null, null, null, null], "rewards": [2, 2, -8, -3, 80], "path": ["0", "0", "23", "24", "25", "30", "32"], "rt": [15185, 313, 377, 819, 166], "actions": ["left", "left", "left", "down", "down"], "actionTimes": [16973, 17789, 18669, 19989, 20661], "queries": {"click": {"state": {"target": [], "time": []}, "edge": {"target": [], "time": []}}, "mouseover": {"state": {"target": ["0", "23", "31", "32"], "time": [2042, 3693, 4522, 4906]}, "edge": {"target": [], "time": []}}, "mouseout": {"state": {"target": ["12", "0", "0", "23", "31", "32"], "time": [1392, 1602, 2612, 4434, 4594, 10224]}, "edge": {"target": [], "time": []}}}, "displayed_time": "21.18", "trialTime": 22693, "trial_type": "mouselab-mdp", "trial_index": 39, "time_elapsed": 5436511, "internal_node_id": "0.0-4.0-1.0-24.0"}}, {"uniqueid": "w79709549:a30844393", "current_trial": 40, "dateTime": 1691165006572, "trialdata": {"revealed_states": [], "clicked_states": ["23", "24", "25", "33", "32", "31", "27", "29", "28", "26", "9", "11", "3", "10", "2", "1", "5", "6", "7", "4", "16", "17", "15", "18", "13", "14", "20", "22", "21", "19", "30", "8", "12"], "num_clicks_accrued": [0, 0, 0, 0, 0, 0, 0, 0, 0, 0, 0, 0, 0], "stateRewards": ["", -1, -3, 1, 13, -64, -29, 12, -4, -33, 50, 56, 2, -3, 4, 11, -64, -58, -55, 12, 47, 38, -25, -2, 2, 5, -15, 85, 7, 84, 10, 8, 57, 26], "withholdReward": false, "trial_id": "mdp_trial_26", "block": "test", "trialIndex": 29, "score": 28.800000000000026, "costs": -46.199999999999974, "simulationMode": [null, null, null, null, null], "rewards": [-2, 2, 5, -15, 85], "path": ["0", "0", "23", "24", "25", "26", "27"], "rt": [67135, 303, 456, 335, 361], "actions": ["left", "left", "left", "up", "up"], "actionTimes": [68776, 69584, 70544, 71384, 72248], "queries": {"click": {"state": {"target": ["23", "24", "25", "33", "32", "31", "27", "29", "28", "26", "9", "11", "3", "10", "2", "1", "5", "6", "7", "4", "16", "17", "15", "18", "13", "14", "20", "22", "21", "19", "30", "8", "12"], "time": [2477, 4036, 5843, 7427, 9236, 11132, 13594, 15380, 17588, 19372, 21228, 22891, 24410, 26203, 28428, 30107, 31852, 34044, 36244, 37826, 40428, 42276, 44347, 46282, 48010, 49746, 51674, 53506, 55059, 57115, 59428, 61795, 63379]}, "edge": {"target": [], "time": []}}, "mouseover": {"state": {"target": ["23", "24", "25", "33", "32", "31", "28", "27", "27", "29", "26", "28", "28", "25", "26", "6", "5", "9", "11", "8", "3", "10", "2", "2", "1", "7", "4", "5", "6", "6", "4", "7", "7", "4", "16", "17", "17", "15", "18", "13", "14", "20", "19", "22", "21", "21", "19", "31", "30", "28", "10", "8", "10", "12", "0"], "time": [2168, 3050, 4540, 6258, 7932, 10465, 12949, 13036, 13120, 14558, 15865, 15934, 16576, 18005, 18965, 19841, 20103, 20486, 21629, 23221, 23256, 25359, 26530, 28265, 28758, 30420, 30507, 30698, 32302, 33819, 34570, 35773, 36046, 36660, 38612, 40877, 41189, 42747, 44733, 46559, 48338, 50305, 51986, 52194, 53853, 54288, 55954, 57719, 58224, 60417, 60475, 60682, 62123, 62766, 64243]}, "edge": {"target": [], "time": []}}, "mouseout": {"state": {"target": ["31", "0", "23", "24", "25", "33", "32", "31", "28", "27", "27", "29", "26", "28", "28", "25", "26", "6", "5", "9", "9", "11", "8", "3", "10", "2", "2", "1", "7", "4", "5", "6", "6", "4", "7", "7", "4", "16", "17", "17", "15", "18", "13", "14", "20", "19", "22", "21", "21", "19", "22", "31", "30", "28", "10", "8", "10", "12", "0"], "time": [888, 2027, 3016, 4401, 6189, 7791, 9771, 11673, 12966, 13054, 13960, 15497, 15899, 15986, 17936, 18091, 19717, 19912, 20137, 21369, 21560, 23041, 23238, 25089, 26313, 28056, 28656, 30351, 30454, 30612, 32146, 33693, 34360, 35755, 35824, 36573, 38018, 40806, 40947, 42624, 44698, 46524, 48304, 50026, 51968, 52073, 53801, 53870, 55902, 57477, 57529, 57860, 60328, 60435, 60489, 62088, 62142, 64105, 66257]}, "edge": {"target": [], "time": []}}}, "displayed_time": "72.75", "trialTime": 74256, "trial_type": "mouselab-mdp", "trial_index": 40, "time_elapsed": 5510903, "internal_node_id": "0.0-4.0-1.0-25.0"}}, {"uniqueid": "w79709549:a30844393", "current_trial": 41, "dateTime": 1691165029420, "trialdata": {"revealed_states": [], "clicked_states": [], "num_clicks_accrued": [0, 0, 0, 0, 0, 0, 0, 0, 0, 0, 0, 0, 0], "stateRewards": ["", 1, 1, 6, -14, -40, 37, 16, -13, 33, -68, 49, 2, 4, 3, 6, 55, 27, 32, 10, -65, 20, -87, 2, 1, -6, -5, -42, 12, 29, -8, 16, 76, -33], "withholdReward": false, "trial_id": "mdp_trial_27", "block": "test", "trialIndex": 30, "score": 65, "costs": 0, "simulationMode": [null, null, null, null, null], "rewards": [2, 1, -6, -8, 76], "path": ["0", "0", "23", "24", "25", "30", "32"], "rt": [12450, 339, 206, 150, 641], "actions": ["left", "left", "left", "down", "down"], "actionTimes": [17590, 18430, 19142, 19798, 20942], "queries": {"click": {"state": {"target": [], "time": []}, "edge": {"target": [], "time": []}}, "mouseover": {"state": {"target": ["31", "31", "23", "0", "0", "11", "10", "0", "23", "12", "22", "22", "0", "23"], "time": [8410, 8586, 8690, 8759, 9087, 9762, 9832, 10060, 11603, 15033, 16150, 16203, 16274, 16327]}, "edge": {"target": [], "time": []}}, "mouseout": {"state": {"target": ["0", "6", "5", "0", "0", "0", "0", "31", "31", "23", "0", "0", "11", "10", "0", "23", "12", "22", "22", "0"], "time": [2475, 2704, 2860, 2913, 3354, 4462, 5987, 8550, 8603, 8742, 8794, 9322, 9779, 9902, 11550, 14478, 15834, 16167, 16238, 16310]}, "edge": {"target": [], "time": []}}}, "displayed_time": "21.45", "trialTime": 22718, "trial_type": "mouselab-mdp", "trial_index": 41, "time_elapsed": 5533751, "internal_node_id": "0.0-4.0-1.0-26.0"}}, {"uniqueid": "w79709549:a30844393", "current_trial": 42, "dateTime": 1691165094395, "trialdata": {"revealed_states": [], "clicked_states": ["23", "24", "25", "30", "33", "31", "32", "21", "19", "22", "20", "14", "13", "12", "18", "17", "16", "27", "29", "28", "9", "11", "5", "6", "7"], "num_clicks_accrued": [0, 0, 0, 0, 0, 0, 0, 0, 0, 0, 0, 0, 0], "stateRewards": ["", -2, 2, 3, -7, -31, -33, 29, -8, -57, 50, -83, -1, -1, 5, 13, -23, -62, 25, 5, -66, -85, 14, 1, -2, -1, 16, 71, 33, -19, -14, 5, -43, 79], "withholdReward": false, "trial_id": "mdp_trial_28", "block": "test", "trialIndex": 31, "score": 28.000000000000014, "costs": -34.999999999999986, "simulationMode": [null, null, null, null, null], "rewards": [1, -2, -1, -14, 79], "path": ["0", "0", "23", "24", "25", "30", "33"], "rt": [56656, 279, 368, 293, 568], "actions": ["left", "left", "left", "down", "left"], "actionTimes": [59534, 60318, 61190, 61990, 63062], "queries": {"click": {"state": {"target": ["23", "24", "25", "30", "33", "31", "32", "21", "19", "22", "20", "14", "13", "12", "18", "17", "16", "27", "29", "28", "9", "11", "5", "6", "7"], "time": [5122, 7344, 9210, 11032, 12736, 14569, 16290, 18529, 20217, 21768, 23337, 25073, 26864, 28722, 30584, 32673, 34465, 37585, 40000, 41833, 45049, 46905, 49065, 50881, 52952]}, "edge": {"target": [], "time": []}}, "mouseover": {"state": {"target": ["0", "0", "23", "24", "25", "30", "30", "33", "31", "32", "21", "21", "19", "22", "20", "14", "13", "12", "0", "12", "18", "18", "15", "17", "15", "16", "26", "26", "26", "26", "27", "26", "29", "26", "28", "28", "1", "2", "3", "9", "11", "8", "3", "4", "5", "5", "6", "7", "7", "0", "1", "2"], "time": [3336, 3729, 4463, 6106, 7723, 9494, 9776, 11499, 13379, 15245, 18102, 18246, 18972, 20669, 22213, 24322, 25368, 27210, 27263, 27662, 29139, 29713, 31018, 31070, 33057, 33474, 36010, 36479, 36723, 36886, 37029, 38347, 38505, 40340, 40393, 40775, 44114, 44343, 44588, 44799, 46059, 47268, 47286, 47338, 48190, 48771, 49516, 51803, 52290, 55228, 55929, 56072]}, "edge": {"target": [], "time": []}}, "mouseout": {"state": {"target": ["23", "0", "12", "23", "0", "0", "23", "24", "25", "30", "30", "33", "30", "31", "32", "21", "21", "19", "22", "19", "20", "14", "13", "12", "0", "12", "18", "18", "15", "17", "15", "16", "16", "26", "26", "26", "26", "27", "26", "29", "26", "28", "28", "28", "1", "2", "3", "9", "11", "8", "3", "4", "5", "5", "5", "6", "6", "7", "7", "7", "0", "1", "2", "7"], "time": [1256, 1327, 1539, 1750, 3518, 3852, 6055, 7693, 9475, 9547, 11445, 13047, 13099, 15106, 17562, 18120, 18868, 20634, 22039, 22108, 24112, 25350, 27193, 27246, 27419, 29016, 29244, 30965, 31054, 33040, 33265, 34607, 35623, 36029, 36514, 36793, 36959, 38174, 38365, 40143, 40375, 40445, 42824, 43449, 44219, 44499, 44605, 45466, 47251, 47286, 47304, 47632, 48590, 49256, 49430, 51073, 51281, 51889, 53704, 54784, 55559, 56019, 56246, 56354]}, "edge": {"target": [], "time": []}}}, "displayed_time": "63.57", "trialTime": 64837, "trial_type": "mouselab-mdp", "trial_index": 42, "time_elapsed": 5598726, "internal_node_id": "0.0-4.0-1.0-27.0"}}, {"uniqueid": "w79709549:a30844393", "current_trial": 43, "dateTime": 1691165170651, "trialdata": {"revealed_states": [], "clicked_states": ["23", "24", "25", "30", "33", "31", "32", "27", "29", "28", "9", "11", "10", "3", "5", "6", "7", "16", "17", "18", "22", "21", "20", "14", "13", "19", "12", "15", "2", "4"], "num_clicks_accrued": [0, 0, 0, 0, 0, 0, 0, 0, 0, 0, 0, 0, 0], "stateRewards": ["", 2, 3, 8, 14, 69, -27, 17, 2, -71, -65, -10, 2, -3, 7, 8, 65, -10, 65, -12, 73, -12, 13, -2, -2, 6, 10, -79, -69, -18, 10, -85, 67, 74], "withholdReward": false, "trial_id": "mdp_trial_29", "block": "test", "trialIndex": 32, "score": 44.00000000000002, "costs": -41.99999999999998, "simulationMode": [null, null, null, null, null], "rewards": [-2, -2, 6, 10, 74], "path": ["0", "0", "23", "24", "25", "30", "33"], "rt": [66935, 444, 321, 301, 441], "actions": ["left", "left", "left", "down", "left"], "actionTimes": [70168, 71119, 71944, 72751, 73695], "queries": {"click": {"state": {"target": ["23", "24", "25", "30", "33", "31", "32", "27", "29", "28", "9", "11", "10", "3", "5", "6", "7", "16", "17", "18", "22", "21", "20", "14", "13", "19", "12", "15", "2", "4"], "time": [4675, 7579, 9581, 11355, 13179, 15147, 17059, 19827, 21691, 23531, 26019, 27803, 29395, 31307, 33139, 35059, 36842, 39179, 41028, 42802, 45259, 47026, 48859, 50627, 52267, 55907, 57650, 59730, 61274, 63043]}, "edge": {"target": [], "time": []}}, "mouseover": {"state": {"target": ["0", "23", "24", "25", "24", "24", "25", "30", "25", "30", "33", "31", "32", "32", "30", "25", "26", "29", "27", "29", "26", "28", "10", "8", "9", "8", "11", "8", "3", "10", "3", "5", "5", "4", "6", "7", "16", "16", "17", "17", "15", "18", "15", "14", "19", "22", "21", "21", "20", "14", "13", "12", "19", "12", "18", "15", "7", "2", "4", "7", "1", "0"], "time": [3980, 4484, 5230, 6664, 7110, 7372, 7892, 9052, 9264, 9855, 12065, 13765, 15496, 15844, 17738, 17820, 18072, 19306, 19499, 20548, 22020, 22349, 25158, 25230, 25653, 26367, 26716, 28150, 28272, 29155, 29882, 31950, 32281, 33624, 34200, 35746, 37397, 38995, 39492, 39820, 41410, 41619, 43304, 44325, 44711, 45034, 45573, 46091, 47443, 49448, 51336, 52837, 55268, 56435, 58135, 58343, 60310, 60363, 61696, 63562, 67401, 68549]}, "edge": {"target": [], "time": []}}, "mouseout": {"state": {"target": ["18", "14", "19", "14", "18", "1", "23", "23", "0", "23", "24", "25", "24", "23", "24", "25", "30", "25", "25", "30", "33", "30", "31", "32", "32", "30", "25", "26", "29", "27", "29", "26", "28", "10", "8", "9", "8", "11", "8", "3", "10", "3", "5", "5", "5", "4", "6", "7", "16", "16", "17", "17", "15", "18", "15", "14", "19", "22", "21", "21", "20", "14", "13", "12", "13", "19", "12", "18", "15", "7", "2", "4", "4", "7", "1", "0"], "time": [1575, 1609, 1679, 1927, 1996, 2206, 2276, 2346, 4291, 5107, 6611, 7093, 7127, 7267, 7841, 8878, 9211, 9586, 9803, 11770, 13592, 13644, 15478, 15515, 17597, 17773, 17830, 18850, 19465, 20249, 21849, 22071, 25055, 25194, 25299, 26314, 26384, 28115, 28202, 29102, 29759, 31741, 32107, 33265, 33589, 33642, 35495, 37207, 38142, 39456, 39527, 41375, 41552, 43200, 44272, 44361, 44800, 45521, 45650, 47355, 49239, 51145, 52733, 54656, 54727, 56313, 58031, 58204, 60049, 60345, 61591, 63192, 63545, 63580, 68444, 68584]}, "edge": {"target": [], "time": []}}}, "displayed_time": "74.20", "trialTime": 76119, "trial_type": "mouselab-mdp", "trial_index": 43, "time_elapsed": 5674982, "internal_node_id": "0.0-4.0-1.0-28.0"}}, {"uniqueid": "w79709549:a30844393", "current_trial": 44, "dateTime": 1691165245307, "trialdata": {"revealed_states": [], "clicked_states": ["23", "24", "25", "30", "33", "31", "32", "27", "29", "28", "21", "22", "20", "14", "16", "17", "18", "5", "6", "7", "9", "11", "10", "3", "2", "8", "26", "1", "13", "12", "19"], "num_clicks_accrued": [0, 0, 0, 0, 0, 0, 0, 0, 0, 0, 0, 0, 0], "stateRewards": ["", -1, 3, 1, -11, -22, -36, 19, -5, -70, -52, 50, -2, -4, 4, -2, -41, -83, 29, -2, 22, 10, -6, -2, 3, -2, 14, 54, 44, 77, -9, -65, -37, -40], "withholdReward": false, "trial_id": "mdp_trial_30", "block": "test", "trialIndex": 33, "score": 46.60000000000002, "costs": -43.39999999999998, "simulationMode": [null, null, null, null, null], "rewards": [-2, 3, -2, 14, 77], "path": ["0", "0", "23", "24", "25", "26", "29"], "rt": [67875, 320, 293, 326, 150], "actions": ["left", "left", "left", "up", "left"], "actionTimes": [69881, 70705, 71505, 72337, 72993], "queries": {"click": {"state": {"target": ["23", "24", "25", "30", "33", "31", "32", "27", "29", "28", "21", "22", "20", "14", "16", "17", "18", "5", "6", "7", "9", "11", "10", "3", "2", "8", "26", "1", "13", "12", "19"], "time": [3197, 4925, 6989, 8852, 10668, 12508, 14580, 17348, 19292, 21364, 23652, 25940, 27907, 29860, 31716, 33436, 35203, 37347, 39412, 41116, 42844, 44349, 47083, 49060, 50627, 53003, 55324, 58508, 60084, 61755, 64147]}, "edge": {"target": [], "time": []}}, "mouseover": {"state": {"target": ["23", "24", "25", "30", "30", "33", "31", "32", "23", "24", "25", "26", "27", "29", "28", "23", "21", "13", "22", "22", "20", "20", "13", "13", "14", "14", "14", "13", "18", "15", "16", "17", "17", "15", "18", "5", "5", "6", "7", "7", "3", "9", "11", "10", "3", "10", "10", "2", "3", "2", "1", "8", "10", "23", "26", "23", "0", "1", "12", "19", "14", "13", "12", "24", "19", "21", "20", "14"], "time": [2863, 3611, 5650, 7594, 7908, 9477, 11259, 13871, 15358, 16142, 16585, 16777, 17127, 18076, 19882, 21876, 23481, 24052, 24331, 24801, 27159, 27471, 28259, 28502, 28554, 29198, 29514, 30396, 30642, 30745, 30866, 32047, 32394, 33751, 33943, 35756, 36144, 38882, 39845, 40158, 41639, 41796, 43561, 45014, 46355, 46753, 46858, 48371, 48563, 49426, 51029, 52593, 53375, 53635, 55145, 55706, 56717, 57986, 58871, 59027, 59201, 59308, 60362, 62436, 63905, 65428, 66365, 67774]}, "edge": {"target": [], "time": []}}, "mouseout": {"state": {"target": ["12", "0", "23", "24", "25", "30", "30", "33", "30", "31", "32", "31", "23", "24", "25", "26", "27", "29", "28", "23", "21", "13", "22", "22", "20", "20", "13", "13", "14", "14", "14", "13", "18", "15", "16", "17", "17", "15", "18", "5", "5", "5", "6", "7", "7", "3", "9", "11", "10", "3", "10", "10", "2", "3", "2", "1", "2", "8", "10", "23", "26", "23", "0", "1", "12", "19", "14", "13", "12", "24", "19", "21", "19", "20", "14"], "time": [1322, 2654, 3593, 5583, 7543, 7768, 9336, 11050, 11120, 13835, 15185, 15323, 15375, 16337, 16672, 17041, 17781, 19585, 21805, 21911, 24000, 24245, 24452, 26256, 27176, 28223, 28276, 28536, 28571, 29233, 30362, 30467, 30693, 30762, 32013, 32185, 33715, 33856, 35599, 35773, 38049, 38327, 39741, 39880, 41570, 41656, 43276, 44909, 46233, 46719, 46770, 47326, 48493, 49409, 50977, 52435, 52488, 53323, 53410, 54895, 55601, 55723, 57828, 58818, 58923, 59095, 59273, 60344, 62087, 62541, 65149, 65497, 66240, 67705, 68079]}, "edge": {"target": [], "time": []}}}, "displayed_time": "73.50", "trialTime": 74537, "trial_type": "mouselab-mdp", "trial_index": 44, "time_elapsed": 5749637, "internal_node_id": "0.0-4.0-1.0-29.0"}}, {"uniqueid": "w79709549:a30844393", "current_trial": 45, "dateTime": 1691165307722, "trialdata": {"revealed_states": [], "clicked_states": ["23", "24", "25", "30", "33", "31", "32", "29", "27", "28", "26", "9", "11", "3", "10", "5", "6", "7", "16", "17", "18", "20", "21", "22", "14"], "num_clicks_accrued": [0, 0, 0, 0, 0, 0, 0, 0, 0, 0, 0, 0, 0], "stateRewards": ["", 1, 2, -8, 9, 18, -83, -11, 6, -64, -48, 17, -2, -2, -5, -3, -24, -3, -86, -2, 48, -41, -22, -2, 4, 7, 8, 81, 13, -48, 10, 61, 19, 57], "withholdReward": false, "trial_id": "mdp_trial_31", "block": "test", "trialIndex": 34, "score": 63.000000000000014, "costs": -34.999999999999986, "simulationMode": [null, null, null, null, null], "rewards": [-2, 4, 7, 8, 81], "path": ["0", "0", "23", "24", "25", "26", "27"], "rt": [54443, 479, 294, 144, 224], "actions": ["left", "left", "left", "up", "up"], "actionTimes": [57111, 58095, 58895, 59543, 60271], "queries": {"click": {"state": {"target": ["23", "24", "25", "30", "33", "31", "32", "29", "27", "28", "26", "9", "11", "3", "10", "5", "6", "7", "16", "17", "18", "20", "21", "22", "14"], "time": [5387, 8050, 9795, 11378, 13123, 14891, 16675, 18907, 20667, 22435, 24307, 26563, 28435, 30427, 32194, 34435, 36211, 37939, 39691, 41755, 43739, 45739, 47483, 49251, 51058]}, "edge": {"target": [], "time": []}}, "mouseover": {"state": {"target": ["23", "24", "25", "24", "25", "30", "33", "31", "32", "30", "28", "29", "27", "27", "26", "28", "26", "8", "9", "9", "11", "11", "8", "10", "3", "10", "2", "4", "5", "5", "4", "4", "6", "7", "7", "16", "16", "15", "17", "15", "18", "18", "14", "20", "21", "22", "14", "19", "19", "23", "29", "27", "27", "27"], "time": [3793, 6081, 7293, 7567, 8570, 10141, 11749, 13678, 15531, 17162, 17249, 18640, 19306, 19671, 21135, 21483, 23272, 24795, 24848, 25477, 26914, 27212, 28942, 29175, 29644, 30777, 32804, 33679, 33803, 34253, 34854, 35394, 35636, 36610, 36959, 38356, 38825, 40835, 41375, 42323, 43298, 43510, 44138, 44818, 46034, 48177, 49752, 51357, 51582, 53020, 53335, 53529, 53914, 54471]}, "edge": {"target": [], "time": []}}, "mouseout": {"state": {"target": ["13", "13", "12", "0", "23", "24", "25", "24", "25", "30", "33", "30", "31", "32", "30", "28", "29", "27", "27", "27", "26", "28", "26", "8", "9", "9", "11", "11", "8", "10", "3", "10", "2", "4", "5", "5", "4", "4", "6", "7", "7", "16", "16", "15", "17", "15", "18", "18", "14", "20", "21", "22", "14", "19", "19", "23", "29", "27", "27"], "time": [1622, 1853, 1888, 3113, 5999, 7257, 7515, 8413, 10107, 11696, 13435, 13506, 15268, 17108, 17179, 17336, 19219, 19357, 20816, 21066, 21362, 23081, 24601, 24812, 24884, 26844, 26950, 28816, 29050, 29296, 30724, 32732, 33521, 33733, 33960, 34837, 34888, 35445, 36558, 36628, 38268, 38496, 40766, 40904, 42113, 42376, 43334, 44034, 44190, 45981, 47847, 49597, 51307, 51496, 52932, 53037, 53425, 53600, 54277]}, "edge": {"target": [], "time": []}}}, "displayed_time": "60.78", "trialTime": 62287, "trial_type": "mouselab-mdp", "trial_index": 45, "time_elapsed": 5812053, "internal_node_id": "0.0-4.0-1.0-30.0"}}, {"uniqueid": "w79709549:a30844393", "current_trial": 46, "dateTime": 1691165345682, "trialdata": {"revealed_states": [], "clicked_states": ["32", "33", "31", "27", "29", "28"], "num_clicks_accrued": [0, 0, 0, 0, 0, 0, 0, 0, 0, 0, 0, 0, 0], "stateRewards": ["", -1, 2, -6, 6, 43, 78, 78, -2, 55, -29, -17, -2, -4, 1, -15, 13, 7, -79, 8, -28, -68, 36, -1, -3, 3, -16, 84, -18, 87, 10, 32, 13, -81], "withholdReward": false, "trial_id": "mdp_trial_32", "block": "test", "trialIndex": 35, "score": 61.6, "costs": -8.4, "simulationMode": [null, null, null, null, null], "rewards": [-1, -3, 3, -16, 87], "path": ["0", "0", "23", "24", "25", "26", "29"], "rt": [30297, 430, 327, 184, 111], "actions": ["left", "left", "left", "up", "left"], "actionTimes": [33061, 33996, 34827, 35516, 36132], "queries": {"click": {"state": {"target": ["32", "33", "31", "27", "29", "28"], "time": [4774, 6519, 8431, 10991, 12775, 14423]}, "edge": {"target": [], "time": []}}, "mouseover": {"state": {"target": ["23", "23", "24", "25", "30", "32", "33", "30", "31", "30", "26", "27", "26", "29", "29", "29", "26", "28", "24", "31", "31", "25", "24", "26", "25", "25", "26"], "time": [3488, 3722, 3958, 4027, 4063, 4532, 5161, 6832, 7302, 9094, 10420, 10788, 11360, 11639, 11882, 12160, 13174, 13371, 15051, 15174, 16039, 16529, 16651, 17066, 17458, 17737, 32242]}, "edge": {"target": [], "time": []}}, "mouseout": {"state": {"target": ["27", "13", "20", "19", "19", "20", "1", "23", "0", "23", "23", "24", "25", "30", "32", "33", "30", "31", "30", "33", "26", "27", "26", "29", "29", "29", "26", "28", "24", "31", "31", "25", "24", "26", "29", "25", "25"], "time": [1464, 1585, 1620, 1638, 1726, 1779, 1956, 2291, 3471, 3523, 3941, 3992, 4046, 4461, 5044, 6797, 6866, 9058, 9130, 9254, 10666, 11308, 11378, 11690, 11917, 13156, 13243, 14999, 15104, 15954, 16248, 16599, 16668, 17084, 17406, 17493, 17754]}, "edge": {"target": [], "time": []}}}, "displayed_time": "36.64", "trialTime": 37836, "trial_type": "mouselab-mdp", "trial_index": 46, "time_elapsed": 5850012, "internal_node_id": "0.0-4.0-1.0-31.0"}}, {"uniqueid": "w79709549:a30844393", "current_trial": 47, "dateTime": 1691165405714, "trialdata": {"revealed_states": [], "clicked_states": ["27", "29", "28", "32", "31", "33", "21", "22", "20", "17", "16", "18", "13", "12", "14", "15", "5", "6", "7"], "num_clicks_accrued": [0, 0, 0, 0, 0, 0, 0, 0, 0, 0, 0, 0, 0], "stateRewards": ["", -1, 2, 7, 8, 75, 67, -11, 6, 52, -17, 38, -1, 4, -8, 14, 74, -37, -17, -12, 52, 55, 71, -2, -1, -5, 2, 21, 6, -88, -14, 64, -61, -47], "withholdReward": false, "trial_id": "mdp_trial_33", "block": "test", "tria