{"condition": 1, "counterbalance": 0, "assignmentId": "a78937511", "workerId": "w61773108", "hitId": "h21908818", "currenttrial": 56, "bonus": 0, "data": [{"uniqueid": "w61773108:a78937511", "current_trial": 0, "dateTime": 1693481063412, "trialdata": {"success": true, "trial_type": "fullscreen", "trial_index": 0, "time_elapsed": 3355, "internal_node_id": "0.0-0.0"}}, {"uniqueid": "w61773108:a78937511", "current_trial": 1, "dateTime": 1693481070902, "trialdata": {"view_history": [{"page_index": 0, "viewing_time": 7476}], "rt": 7476, "trial_id": "exp_instructions_misaligned", "trial_type": "instructions", "trial_index": 1, "time_elapsed": 10846, "internal_node_id": "0.0-1.0"}}, {"uniqueid": "w61773108:a78937511", "current_trial": 2, "dateTime": 1693481223772, "trialdata": {"view_history": [{"page_index": 0, "viewing_time": 39866}, {"page_index": 1, "viewing_time": 54949}, {"page_index": 2, "viewing_time": 21480}, {"page_index": 3, "viewing_time": 36569}], "rt": 152866, "trial_id": "mouselab_instructions_1_misaligned", "trial_type": "instructions", "trial_index": 2, "time_elapsed": 163715, "internal_node_id": "0.0-2.0-1.0"}}, {"uniqueid": "w61773108:a78937511", "current_trial": 3, "dateTime": 1693481262018, "trialdata": {"revealed_states": [], "clicked_states": ["12", "1", "23", "2", "7", "10", "3", "4", "5", "8", "9"], "num_clicks_accrued": [0, 0, 0, 0, 0, 0, 0, 0, 0, 0, 0, 0, 0], "stateRewards": ["", 10, 10, 10, -10, 10, 10, -10, 10, 10, 10, 10, -10, -10, -10, -10, -10, -10, 10, 10, -10, -10, -10, -10, -10, 10, -10, -10, -10, -10, -10, -10, -10, 10], "withholdReward": false, "trial_id": "practice_1", "block": "test", "trialIndex": 0, "score": 48, "costs": -5.5, "simulationMode": [null, null, null, null, null], "rewards": [10, 10, 10, 10, 10], "path": ["0", "0", "1", "2", "3", "8", "9"], "rt": [19528, 292, 3768, 216, 147], "actions": ["up", "up", "up", "left", "up"], "actionTimes": [22123, 22924, 27215, 27930, 28596], "queries": {"click": {"state": {"target": ["12", "1", "23", "2", "7", "10", "3", "4", "5", "8", "9"], "time": [3828, 4918, 6198, 7874, 9232, 10963, 12168, 13675, 15336, 16813, 18314]}, "edge": {"target": [], "time": []}}, "mouseover": {"state": {"target": ["12", "1", "23", "23", "2", "7", "10", "3", "4", "5", "8", "9", "3", "2", "1"], "time": [3420, 4496, 5413, 5714, 7399, 8696, 10433, 11628, 13012, 14781, 16245, 17528, 19946, 20030, 20720]}, "edge": {"target": [], "time": []}}, "mouseout": {"state": {"target": ["0", "12", "1", "23", "23", "2", "7", "2", "10", "3", "4", "5", "8", "9", "3", "2", "1", "0"], "time": [3284, 4379, 5363, 5513, 7030, 8546, 10063, 10253, 11546, 12896, 14595, 15897, 17345, 19902, 19963, 20113, 20761, 33415]}, "edge": {"target": [], "time": []}}}, "displayed_time": "29.11", "trialTime": 37751, "trial_type": "mouselab-mdp", "trial_index": 3, "time_elapsed": 201960, "internal_node_id": "0.0-2.0-2.0-0.0"}}, {"uniqueid": "w61773108:a78937511", "current_trial": 4, "dateTime": 1693481294088, "trialdata": {"revealed_states": [], "clicked_states": ["12", "23", "1", "2", "24", "13", "18", "14", "15", "16"], "num_clicks_accrued": [0, 0, 0, 0, 0, 0, 0, 0, 0, 0, 0, 0, 0], "stateRewards": ["", -10, -10, 10, 10, -10, 10, -10, -10, -10, 10, 10, -10, 10, -10, 10, 10, 10, 10, -10, 10, 10, -10, -10, -10, 10, -10, -10, 10, 10, -10, -10, 10, 10], "withholdReward": false, "trial_id": "practice_2", "block": "test", "trialIndex": 1, "score": 8.5, "costs": -5, "simulationMode": [null, null, null, null, null], "rewards": [-10, 10, -10, 10, 10], "path": ["0", "0", "12", "13", "14", "15", "16"], "rt": [17442, 183, 958, 113, 314], "actions": ["right", "right", "right", "up", "up"], "actionTimes": [19898, 20602, 22076, 22698, 23532], "queries": {"click": {"state": {"target": ["12", "23", "1", "2", "24", "13", "18", "14", "15", "16"], "time": [3364, 5845, 7081, 8464, 9836, 11211, 12672, 14068, 15530, 17027]}, "edge": {"target": [], "time": []}}, "mouseover": {"state": {"target": ["12", "1", "23", "1", "2", "10", "28", "24", "23", "12", "13", "18", "14", "15", "16", "12"], "time": [2956, 3967, 5092, 6618, 7800, 9100, 9267, 9367, 10434, 10501, 10800, 12150, 13419, 15033, 16483, 19056]}, "edge": {"target": [], "time": []}}, "mouseout": {"state": {"target": ["0", "12", "1", "23", "1", "2", "10", "28", "24", "23", "12", "13", "18", "14", "15", "16", "12"], "time": [2926, 3818, 4906, 6551, 7701, 9068, 9134, 9300, 10417, 10451, 10617, 11967, 13303, 14900, 16350, 18222, 29354]}, "edge": {"target": [], "time": []}}}, "displayed_time": "24.05", "trialTime": 31745, "trial_type": "mouselab-mdp", "trial_index": 4, "time_elapsed": 234030, "internal_node_id": "0.0-2.0-2.0-1.0"}}, {"uniqueid": "w61773108:a78937511", "current_trial": 5, "dateTime": 1693481322716, "trialdata": {"view_history": [{"page_index": 0, "viewing_time": 20000}, {"page_index": 1, "viewing_time": 8620}], "rt": 28621, "trial_id": "mouselab_instructions_2_misaligned", "trial_type": "instructions", "trial_index": 5, "time_elapsed": 262660, "internal_node_id": "0.0-2.0-3.0"}}, {"uniqueid": "w61773108:a78937511", "current_trial": 6, "dateTime": 1693481348619, "trialdata": {"rt": 25891, "response": {"Q0": "The cost for clicking on nodes may vary between nodes.", "Q1": "The better I perform the higher my bonus will be.", "Q2": "No, the amount of cash at each node of the web may be different each time.", "Q3": "To get the highest total score.", "Q4": "Only before moving the spider.", "Q5": "3 seconds"}, "question_order": [0, 1, 2, 3, 4, 5], "correct": {"Q0": "The cost for clicking on nodes may vary between nodes.", "Q1": "The better I perform the higher my bonus will be.", "Q2": "No, the amount of cash at each node of the web may be different each time.", "Q3": "To get the highest total score.", "Q4": "Only before moving the spider.", "Q5": "3 seconds"}, "trial_id": "mouselab_quiz_misaligned", "trial_type": "survey-multi-choice", "trial_index": 6, "time_elapsed": 288562, "internal_node_id": "0.0-2.0-4.0"}}, {"uniqueid": "w61773108:a78937511", "current_trial": 7, "dateTime": 1693481355264, "trialdata": {"rt": 6626, "response": {"Q0": "No"}, "question_order": [0], "trial_id": "repeat_check", "trial_type": "survey-multi-choice", "trial_index": 7, "time_elapsed": 295207, "internal_node_id": "0.0-4.0-0.0"}}, {"uniqueid": "w61773108:a78937511", "current_trial": 8, "dateTime": 1693481364566, "trialdata": {"rt": 9290, "stimulus": "\n<h1> Get ready to start the game! </h1>\n\nThank you for reading the instructions. Get ready start with the 40 rounds of this game.\n<br><br>\nIf you need to take a break, feel free to take one after the end of a round, before continuing to the next one.\n<br><br>\nRemember, the more money the spider gets, the bigger your bonus will be!\n<br><br>\n<div style='text-align: center;'>Press <code>space</code> to begin.</div>\n\n<br><br>\n(If, at any point, the <code>space</code> key does not take you to the next page, click once on the text and try again.)", "response": " ", "trial_id": "mdp_ready", "trial_type": "html-keyboard-response", "trial_index": 8, "time_elapsed": 304510, "internal_node_id": "0.0-6.0-0.0"}}, {"uniqueid": "w61773108:a78937511", "current_trial": 9, "dateTime": 1693481388375, "trialdata": {"revealed_states": [], "clicked_states": ["23", "24", "1", "2", "10", "3", "4", "5"], "num_clicks_accrued": [0, 0, 0, 0, 0, 0, 0, 0, 0, 0, 0, 0, 0], "stateRewards": ["", 2, 3, 8, 14, 69, -27, 17, 2, -71, -65, -10, 2, -3, 7, 8, 65, -10, 65, -12, 73, -12, 13, -2, -2, 6, 10, -79, -69, -18, 10, -85, 67, 74], "withholdReward": false, "trial_id": "mdp_trial_1", "block": "test", "trialIndex": 2, "score": 89, "costs": -7, "simulationMode": [null, null, null, null, null], "rewards": [2, 3, 8, 14, 69], "path": ["0", "0", "1", "2", "3", "4", "5"], "rt": [16081, 144, 96, 274, 70], "actions": ["up", "up", "up", "right", "up"], "actionTimes": [17558, 18221, 18839, 19635, 20214], "queries": {"click": {"state": {"target": ["23", "24", "1", "2", "10", "3", "4", "5"], "time": [2236, 3251, 4492, 5778, 6972, 10408, 11448, 12703]}, "edge": {"target": [], "time": []}}, "mouseover": {"state": {"target": ["23", "24", "1", "2", "10", "8", "3", "4", "5", "3", "8", "3", "4"], "time": [1829, 2876, 3859, 5343, 6543, 7860, 10043, 11059, 12208, 14958, 15043, 16583, 16692]}, "edge": {"target": [], "time": []}}, "mouseout": {"state": {"target": ["1", "23", "24", "1", "2", "10", "2", "8", "3", "4", "5", "3", "8", "3", "4", "16"], "time": [597, 2793, 3726, 5076, 6476, 7594, 7759, 9996, 11026, 12108, 14892, 14992, 16567, 16625, 23146, 23208]}, "edge": {"target": [], "time": []}}}, "displayed_time": "20.73", "trialTime": 23482, "trial_type": "mouselab-mdp", "trial_index": 9, "time_elapsed": 328317, "internal_node_id": "0.0-6.0-1.0-0.0"}}, {"uniqueid": "w61773108:a78937511", "current_trial": 10, "dateTime": 1693481421124, "trialdata": {"revealed_states": [], "clicked_states": ["23", "1", "12", "2", "7", "3", "8", "24", "25", "13", "14", "15", "4", "5", "9"], "num_clicks_accrued": [0, 0, 0, 0, 0, 0, 0, 0, 0, 0, 0, 0, 0], "stateRewards": ["", 1, 2, 3, 16, 63, -25, 16, -4, -14, 82, -66, -1, -3, -3, -11, -14, 19, 46, 3, -34, -82, 66, -2, -3, 4, -5, -63, 77, -37, -1, -45, -41, 84], "withholdReward": false, "trial_id": "mdp_trial_2", "block": "test", "trialIndex": 3, "score": 70.75, "costs": -14.250000000000002, "simulationMode": [null, null, null, null, null, null], "rewards": [1, 2, 3, 16, 63], "path": ["0", "0", "1", "2", "3", "4", "5"], "rt": [24494, 388, 268, 91, 159, 89], "actions": ["up", "up", "up", "up", "right", "up"], "actionTimes": [26741, 27133, 27930, 28547, 29215, 29812], "queries": {"click": {"state": {"target": ["23", "1", "12", "2", "7", "3", "8", "24", "25", "13", "14", "15", "4", "5", "9"], "time": [3098, 4070, 5079, 6178, 7132, 10650, 11645, 13303, 14198, 16500, 19069, 20080, 21098, 22101, 25093]}, "edge": {"target": [], "time": []}}, "mouseover": {"state": {"target": ["23", "1", "12", "2", "7", "3", "3", "8", "10", "28", "24", "25", "23", "12", "12", "13", "12", "18", "14", "15", "4", "5", "9", "8", "2"], "time": [2762, 3604, 4604, 5787, 6772, 7739, 8022, 11272, 12388, 12824, 12890, 13855, 14664, 14722, 14971, 15990, 17188, 17922, 18694, 19621, 20743, 21704, 22770, 25887, 26004]}, "edge": {"target": [], "time": []}}, "mouseout": {"state": {"target": ["15", "18", "23", "1", "1", "12", "2", "7", "3", "3", "8", "10", "28", "24", "25", "24", "23", "12", "12", "13", "12", "18", "14", "15", "4", "5", "9", "8", "2", "1", "13", "14"], "time": [1076, 1393, 3554, 4282, 4554, 5654, 6739, 7688, 7839, 11222, 12274, 12789, 12857, 13772, 14622, 14659, 14683, 14771, 15939, 17038, 17877, 18420, 19604, 20295, 21637, 22605, 25837, 25921, 32024, 32077, 32154, 32203]}, "edge": {"target": [], "time": []}}}, "displayed_time": "30.32", "trialTime": 32412, "trial_type": "mouselab-mdp", "trial_index": 10, "time_elapsed": 361067, "internal_node_id": "0.0-6.0-1.0-1.0"}}, {"uniqueid": "w61773108:a78937511", "current_trial": 11, "dateTime": 1693481444085, "trialdata": {"revealed_states": [], "clicked_states": ["23", "24", "1", "2", "12", "13", "14", "19", "15", "16", "18"], "num_clicks_accrued": [0, 0, 0, 0, 0, 0, 0, 0, 0, 0, 0, 0, 0], "stateRewards": ["", 2, 4, 4, 9, -88, -10, 44, 16, -54, 64, 78, 1, 2, 5, 16, 80, 36, 7, -4, 9, -47, -70, -1, -3, 6, -16, 11, 80, 28, 8, -1, 34, -17], "withholdReward": false, "trial_id": "mdp_trial_3", "block": "test", "trialIndex": 4, "score": 95.35, "costs": -8.65, "simulationMode": [null, null, null, null, null, null], "rewards": [1, 2, 5, 16, 80], "path": ["0", "0", "12", "13", "14", "15", "16"], "rt": [15020, 509, 392, 310, 412, 197], "actions": ["right", "right", "right", "right", "up", "up"], "actionTimes": [16454, 16966, 17895, 18711, 19645, 20348], "queries": {"click": {"state": {"target": ["23", "24", "1", "2", "12", "13", "14", "19", "15", "16", "18"], "time": [2186, 3206, 4243, 5314, 6300, 7159, 8237, 9686, 10757, 11829, 15415]}, "edge": {"target": [], "time": []}}, "mouseover": {"state": {"target": ["23", "24", "1", "2", "12", "13", "14", "19", "19", "15", "16", "17", "15", "18"], "time": [1822, 2867, 3867, 4916, 5900, 6716, 7883, 8832, 9317, 10383, 11482, 12348, 14804, 15035]}, "edge": {"target": [], "time": []}}, "mouseout": {"state": {"target": ["14", "13", "12", "23", "24", "1", "2", "12", "13", "14", "19", "19", "14", "15", "16", "17", "15"], "time": [604, 637, 656, 2750, 3751, 4733, 5783, 6524, 7835, 8799, 8915, 10284, 10316, 11399, 12232, 14785, 14919]}, "edge": {"target": [], "time": []}}}, "displayed_time": "20.87", "trialTime": 22619, "trial_type": "mouselab-mdp", "trial_index": 11, "time_elapsed": 384028, "internal_node_id": "0.0-6.0-1.0-2.0"}}, {"uniqueid": "w61773108:a78937511", "current_trial": 12, "dateTime": 1693481500662, "trialdata": {"revealed_states": [], "clicked_states": ["23", "1", "12", "13", "14", "19", "15", "16", "17", "18", "2", "7", "3", "10", "8", "24", "25", "26", "27", "28", "29", "33", "32"], "num_clicks_accrued": [0, 0, 0, 0, 0, 0, 0, 0, 0, 0, 0, 0, 0], "stateRewards": ["", -1, -4, -1, -5, -28, -23, -15, -15, -38, 59, -87, 2, 2, -5, 9, -55, -39, -71, -6, 85, -85, -11, -1, -2, 5, -10, 1, 25, 41, -4, 69, -35, 86], "withholdReward": false, "trial_id": "mdp_trial_4", "block": "test", "trialIndex": 5, "score": 53.150000000000006, "costs": -30.849999999999994, "simulationMode": [null, null, null, null, null], "rewards": [-1, -2, 5, -4, 86], "path": ["0", "0", "23", "24", "25", "30", "33"], "rt": [48233, 112, 173, 104, 245], "actions": ["left", "left", "left", "down", "left"], "actionTimes": [50912, 51555, 52250, 52847, 53605], "queries": {"click": {"state": {"target": ["23", "1", "12", "13", "14", "19", "15", "16", "17", "18", "2", "7", "3", "10", "8", "24", "25", "26", "27", "28", "29", "33", "32"], "time": [3429, 5010, 5916, 7015, 7954, 8938, 10039, 11090, 14805, 17579, 21728, 22719, 26029, 27182, 30342, 31902, 33043, 34064, 35127, 38087, 41268, 44290, 48136]}, "edge": {"target": [], "time": []}}, "mouseover": {"state": {"target": ["23", "1", "1", "12", "13", "14", "19", "15", "16", "17", "18", "15", "17", "15", "18", "2", "1", "2", "7", "3", "10", "8", "28", "24", "25", "26", "27", "28", "26", "29", "33", "32", "30", "31"], "time": [3081, 4044, 4534, 5495, 6378, 7495, 8515, 9627, 10676, 11827, 13044, 14278, 14465, 15294, 15377, 18427, 20496, 21296, 22327, 23296, 26743, 27743, 31407, 31541, 32676, 33626, 34675, 35757, 38710, 38925, 42092, 45092, 49174, 49291]}, "edge": {"target": [], "time": []}}, "mouseout": {"state": {"target": ["18", "0", "23", "1", "1", "12", "13", "14", "19", "15", "16", "17", "15", "18", "15", "17", "15", "18", "2", "1", "2", "7", "3", "10", "8", "28", "24", "25", "26", "27", "28", "26", "29", "33", "32", "30", "31"], "time": [1780, 3049, 3994, 4111, 5396, 6131, 7460, 8411, 9561, 10627, 11544, 12960, 13011, 14253, 14327, 15277, 15344, 18210, 20360, 21251, 21948, 23243, 26626, 27693, 31159, 31474, 32543, 33592, 34625, 35591, 38675, 38792, 41959, 44941, 48875, 49191, 55712]}, "edge": {"target": [], "time": []}}}, "displayed_time": "54.13", "trialTime": 56244, "trial_type": "mouselab-mdp", "trial_index": 12, "time_elapsed": 440605, "internal_node_id": "0.0-6.0-1.0-3.0"}}, {"uniqueid": "w61773108:a78937511", "current_trial": 13, "dateTime": 1693481519580, "trialdata": {"revealed_states": [], "clicked_states": ["32", "31", "33"], "num_clicks_accrued": [0, 0, 0, 0, 0, 0, 0, 0, 0, 0, 0, 0, 0], "stateRewards": ["", -2, 2, 5, -14, -56, 64, 84, -5, 52, 39, 85, -2, 1, 7, 8, 21, 29, -78, -9, -10, -69, 10, -2, -1, -7, 15, 72, 20, 41, -2, 52, 80, 22], "withholdReward": false, "trial_id": "mdp_trial_5", "block": "test", "trialIndex": 6, "score": 61.55, "costs": -6.449999999999999, "simulationMode": [null, null, null, null, null], "rewards": [-2, -1, -7, -2, 80], "path": ["0", "0", "23", "24", "25", "30", "32"], "rt": [11793, 66, 162, 79, 137], "actions": ["left", "left", "left", "down", "down"], "actionTimes": [13906, 14492, 15171, 15772, 16429], "queries": {"click": {"state": {"target": ["32", "31", "33"], "time": [3472, 6741, 10145]}, "edge": {"target": [], "time": []}}, "mouseover": {"state": {"target": ["23", "30", "32", "31", "30", "33", "29"], "time": [2627, 2756, 3011, 4058, 7307, 7424, 10857]}, "edge": {"target": [], "time": []}}, "mouseout": {"state": {"target": ["12", "0", "23", "30", "32", "31", "30", "33"], "time": [1155, 1525, 2650, 2806, 3924, 7291, 7358, 10757]}, "edge": {"target": [], "time": []}}}, "displayed_time": "16.94", "trialTime": 18579, "trial_type": "mouselab-mdp", "trial_index": 13, "time_elapsed": 459523, "internal_node_id": "0.0-6.0-1.0-4.0"}}, {"uniqueid": "w61773108:a78937511", "current_trial": 14, "dateTime": 1693481548885, "trialdata": {"revealed_states": [], "clicked_states": ["9", "5", "6", "7", "16", "18"], "num_clicks_accrued": [0, 0, 0, 0, 0, 0, 0, 0, 0, 0, 0, 0, 0], "stateRewards": ["", 2, 4, 7, 7, -79, -2, -21, -5, -53, 47, -21, 1, -3, -1, 7, 83, 7, 84, -7, 80, -37, 69, 2, -4, 5, 2, 4, -20, -30, 7, 71, 44, -81], "withholdReward": false, "trial_id": "mdp_trial_6", "block": "test", "trialIndex": 7, "score": 75.1, "costs": -12.9, "simulationMode": [null, null, null, null, null], "rewards": [1, -3, -1, 7, 84], "path": ["0", "0", "12", "13", "14", "15", "18"], "rt": [19842, 493, 339, 144, 174], "actions": ["right", "right", "right", "up", "left"], "actionTimes": [23640, 24643, 25504, 26165, 26856], "queries": {"click": {"state": {"target": ["9", "5", "6", "7", "16", "18"], "time": [4706, 7897, 11092, 14334, 17431, 20741]}, "edge": {"target": [], "time": []}}, "mouseover": {"state": {"target": ["9", "5", "6", "7", "16", "18"], "time": [4253, 5231, 8531, 11897, 15197, 18214]}, "edge": {"target": [], "time": []}}, "mouseout": {"state": {"target": ["29", "11", "9", "3", "2", "1", "9", "5", "6", "7", "16"], "time": [418, 566, 2730, 2797, 2880, 3133, 4909, 8431, 11666, 15031, 18047]}, "edge": {"target": [], "time": []}}}, "displayed_time": "27.36", "trialTime": 28959, "trial_type": "mouselab-mdp", "trial_index": 14, "time_elapsed": 488828, "internal_node_id": "0.0-6.0-1.0-5.0"}}, {"uniqueid": "w61773108:a78937511", "current_trial": 15, "dateTime": 1693481568659, "trialdata": {"revealed_states": [], "clicked_states": ["17", "20", "21"], "num_clicks_accrued": [0, 0, 0, 0, 0, 0, 0, 0, 0, 0, 0, 0, 0], "stateRewards": ["", -1, -1, 4, -16, -75, 81, -51, -7, -84, 73, -30, -2, 1, -3, -16, -77, 33, 14, 1, 45, 87, -66, 2, 2, -5, -7, -19, -17, 79, -3, 8, 49, 47], "withholdReward": false, "trial_id": "mdp_trial_7", "block": "test", "trialIndex": 8, "score": 77.55, "costs": -6.449999999999999, "simulationMode": [null, null, null, null, null], "rewards": [-2, 1, -3, 1, 87], "path": ["0", "0", "12", "13", "14", "19", "21"], "rt": [11811, 92, 146, 88, 165], "actions": ["right", "right", "right", "down", "down"], "actionTimes": [14044, 14659, 15329, 15938, 16614], "queries": {"click": {"state": {"target": ["17", "20", "21"], "time": [3351, 6627, 9891]}, "edge": {"target": [], "time": []}}, "mouseover": {"state": {"target": ["18", "15", "17", "14", "20", "21", "22"], "time": [2768, 2799, 2951, 4314, 5064, 7230, 11147]}, "edge": {"target": [], "time": []}}, "mouseout": {"state": {"target": ["18", "1", "0", "18", "15", "17", "14", "20", "21", "22"], "time": [586, 1316, 2688, 2784, 2814, 4081, 4898, 7147, 10664, 19218]}, "edge": {"target": [], "time": []}}}, "displayed_time": "17.13", "trialTime": 19418, "trial_type": "mouselab-mdp", "trial_index": 15, "time_elapsed": 508601, "internal_node_id": "0.0-6.0-1.0-6.0"}}, {"uniqueid": "w61773108:a78937511", "current_trial": 16, "dateTime": 1693481585915, "trialdata": {"revealed_states": [], "clicked_states": ["32", "31", "33"], "num_clicks_accrued": [0, 0, 0, 0, 0, 0, 0, 0, 0, 0, 0, 0, 0], "stateRewards": ["", 1, -3, -4, -11, -56, 61, -47, -16, -28, -9, 69, -2, -3, -4, -8, 40, -86, 59, -4, 80, 27, 54, -1, 3, -1, 8, 67, 23, 50, 6, 83, -43, -29], "withholdReward": false, "trial_id": "mdp_trial_8", "block": "test", "trialIndex": 9, "score": 83.55, "costs": -6.449999999999999, "simulationMode": [null, null, null, null, null], "rewards": [-1, 3, -1, 6, 83], "path": ["0", "0", "23", "24", "25", "30", "31"], "rt": [11021, 87, 146, 230, 193], "actions": ["left", "left", "left", "down", "right"], "actionTimes": [12504, 13110, 13767, 14519, 15232], "queries": {"click": {"state": {"target": ["32", "31", "33"], "time": [2853, 6193, 9397]}, "edge": {"target": [], "time": []}}, "mouseover": {"state": {"target": ["23", "24", "25", "30", "30", "32", "31", "30", "33"], "time": [1876, 1922, 2020, 2192, 2338, 2421, 3371, 6903, 7037]}, "edge": {"target": [], "time": []}}, "mouseout": {"state": {"target": ["0", "23", "24", "25", "30", "30", "32", "31", "30"], "time": [457, 1906, 1978, 2070, 2221, 2355, 3321, 6870, 6936]}, "edge": {"target": [], "time": []}}}, "displayed_time": "15.76", "trialTime": 16897, "trial_type": "mouselab-mdp", "trial_index": 16, "time_elapsed": 525857, "internal_node_id": "0.0-6.0-1.0-7.0"}}, {"uniqueid": "w61773108:a78937511", "current_trial": 17, "dateTime": 1693481642228, "trialdata": {"revealed_states": [], "clicked_states": ["9", "11", "27", "28", "29", "32", "31", "33", "21", "20", "22", "17", "16", "18"], "num_clicks_accrued": [0, 0, 0, 0, 0, 0, 0, 0, 0, 0, 0, 0, 0], "stateRewards": ["", 1, -1, 4, -2, -75, -75, 84, -9, -60, -79, 59, 2, -4, 8, 9, -17, -82, 80, 14, -4, 49, 49, -1, 3, 6, -11, -33, 34, 55, 9, -57, 5, 59], "withholdReward": false, "trial_id": "mdp_trial_9", "block": "test", "trialIndex": 10, "score": 64.9, "costs": -30.09999999999999, "simulationMode": [null, null, null, null, null], "rewards": [2, -4, 8, 9, 80], "path": ["0", "0", "12", "13", "14", "15", "18"], "rt": [47639, 6, 73, 78, 84], "actions": ["right", "right", "right", "up", "left"], "actionTimes": [50256, 50779, 51379, 51968, 52574], "queries": {"click": {"state": {"target": ["9", "11", "27", "28", "29", "32", "31", "33", "21", "20", "22", "17", "16", "18"], "time": [3723, 6911, 10101, 13346, 16671, 20016, 23318, 26571, 29665, 32972, 36297, 39611, 42931, 46193]}, "edge": {"target": [], "time": []}}, "mouseover": {"state": {"target": ["10", "8", "9", "11", "27", "27", "28", "26", "29", "25", "30", "32", "31", "30", "33", "24", "23", "0", "21", "20", "19", "22", "14", "17", "17", "16", "18", "7"], "time": [3048, 3076, 3243, 4541, 7574, 7890, 11057, 15306, 15473, 17306, 17356, 17840, 20956, 24606, 25206, 27439, 28022, 28672, 29089, 30539, 33772, 34538, 37022, 37155, 37888, 42088, 44020, 47821]}, "edge": {"target": [], "time": []}}, "mouseout": {"state": {"target": ["33", "29", "27", "8", "10", "8", "9", "11", "27", "27", "28", "28", "26", "29", "25", "30", "32", "31", "30", "33", "24", "23", "0", "21", "20", "19", "22", "14", "17", "17", "16", "18"], "time": [444, 560, 625, 1562, 3064, 3139, 4424, 7508, 7724, 10774, 13545, 15274, 15373, 17273, 17323, 17373, 20806, 24556, 24672, 27289, 27956, 28306, 28689, 29864, 33755, 33822, 36971, 37072, 37238, 39820, 43654, 47188]}, "edge": {"target": [], "time": []}}}, "displayed_time": "53.09", "trialTime": 55949, "trial_type": "mouselab-mdp", "trial_index": 17, "time_elapsed": 582170, "internal_node_id": "0.0-6.0-1.0-8.0"}}, {"uniqueid": "w61773108:a78937511", "current_trial": 18, "dateTime": 1693481705202, "trialdata": {"revealed_states": [], "clicked_states": ["9", "11", "10", "5", "6", "7", "18", "16", "17", "20", "21", "22", "31", "32", "33", "29", "27"], "num_clicks_accrued": [0, 0, 0, 0, 0, 0, 0, 0, 0, 0, 0, 0, 0], "stateRewards": ["", 1, 2, -6, -13, -51, 22, -4, -12, -44, -12, 6, -2, -2, -2, -14, -46, -4, -77, -2, 36, -79, 41, 2, -4, 2, -6, -55, 59, 70, -5, 39, -19, 24], "withholdReward": false, "trial_id": "mdp_trial_10", "block": "test", "trialIndex": 11, "score": 27.45000000000001, "costs": -36.54999999999999, "simulationMode": [null, null, null, null, null], "rewards": [2, -4, 2, -6, 70], "path": ["0", "0", "23", "24", "25", "26", "29"], "rt": [56496, 493, 116, 183, 88], "actions": ["left", "left", "left", "up", "left"], "actionTimes": [57967, 58985, 59622, 60326, 60927], "queries": {"click": {"state": {"target": ["9", "11", "10", "5", "6", "7", "18", "16", "17", "20", "21", "22", "31", "32", "33", "29", "27"], "time": [2713, 5973, 9227, 12415, 15652, 18967, 22226, 25488, 28725, 32122, 35322, 38582, 41782, 44765, 48016, 51510, 54824]}, "edge": {"target": [], "time": []}}, "mouseover": {"state": {"target": ["10", "8", "9", "11", "10", "3", "5", "5", "6", "7", "16", "18", "16", "16", "17", "20", "19", "21", "22", "31", "32", "33", "29", "27"], "time": [1992, 2059, 2359, 3758, 6624, 9741, 9791, 9974, 13124, 16707, 19607, 20190, 22807, 23040, 26523, 31173, 32889, 33372, 36205, 40489, 43005, 46438, 50690, 52304]}, "edge": {"target": [], "time": []}}, "mouseout": {"state": {"target": ["7", "1", "0", "10", "8", "9", "11", "10", "3", "5", "5", "6", "7", "16", "18", "16", "16", "17", "20", "19", "21", "22", "31", "32", "33", "29"], "time": [527, 641, 1928, 2025, 2263, 3475, 6491, 9434, 9758, 9841, 12991, 16274, 19524, 20094, 22740, 22873, 26190, 29406, 32840, 33189, 36022, 39972, 42839, 45744, 49524, 52221]}, "edge": {"target": [], "time": []}}}, "displayed_time": "61.44", "trialTime": 62627, "trial_type": "mouselab-mdp", "trial_index": 18, "time_elapsed": 645144, "internal_node_id": "0.0-6.0-1.0-9.0"}}, {"uniqueid": "w61773108:a78937511", "current_trial": 19, "dateTime": 1693481733836, "trialdata": {"revealed_states": [], "clicked_states": ["9", "5", "6", "7", "16", "18"], "num_clicks_accrued": [0, 0, 0, 0, 0, 0, 0, 0, 0, 0, 0, 0, 0], "stateRewards": ["", -1, -4, -3, 1, -45, -67, -24, 14, 32, 22, 22, -1, 1, -5, -7, 72, 84, -79, -5, 19, -40, -2, -1, -2, 8, -3, 84, -25, -28, 11, 64, -66, 77], "withholdReward": false, "trial_id": "mdp_trial_11", "block": "test", "trialIndex": 12, "score": 47.1, "costs": -12.9, "simulationMode": [null, null, null, null, null], "rewards": [-1, 1, -5, -7, 72], "path": ["0", "0", "12", "13", "14", "15", "16"], "rt": [20312, 567, 145, 210, 41], "actions": ["right", "right", "right", "up", "up"], "actionTimes": [23461, 24534, 25203, 25926, 26490], "queries": {"click": {"state": {"target": ["9", "5", "6", "7", "16", "18"], "time": [4249, 7618, 10834, 14076, 17244, 20378]}, "edge": {"target": [], "time": []}}, "mouseover": {"state": {"target": ["10", "8", "9", "5", "4", "6", "7", "16", "18"], "time": [3632, 3652, 3697, 4932, 8265, 8732, 11581, 14671, 18430]}, "edge": {"target": [], "time": []}}, "mouseout": {"state": {"target": ["27", "28", "2", "1", "0", "10", "8", "9", "5", "4", "6", "7", "16"], "time": [302, 402, 548, 2367, 3587, 3648, 3681, 4765, 8231, 8365, 11365, 14581, 18147]}, "edge": {"target": [], "time": []}}}, "displayed_time": "27.00", "trialTime": 28272, "trial_type": "mouselab-mdp", "trial_index": 19, "time_elapsed": 673778, "internal_node_id": "0.0-6.0-1.0-10.0"}}, {"uniqueid": "w61773108:a78937511", "current_trial": 20, "dateTime": 1693481768788, "trialdata": {"revealed_states": [], "clicked_states": ["29", "33", "32", "31", "22", "21", "20", "17"], "num_clicks_accrued": [0, 0, 0, 0, 0, 0, 0, 0, 0, 0, 0, 0, 0], "stateRewards": ["", -1, 4, -6, -5, -22, -38, -38, -2, -56, 88, 14, -1, -1, -7, -6, 61, -60, 21, 11, 57, 31, -30, -2, -2, 6, -9, -44, -70, -44, -15, 34, 16, -78], "withholdReward": false, "trial_id": "mdp_trial_12", "block": "test", "trialIndex": 13, "score": 41.8, "costs": -17.2, "simulationMode": [null, null, null, null, null], "rewards": [-1, -1, -7, 11, 57], "path": ["0", "0", "12", "13", "14", "19", "20"], "rt": [27508, 577, 103, 203, 158], "actions": ["right", "right", "right", "down", "right"], "actionTimes": [29178, 30274, 30899, 31616, 32288], "queries": {"click": {"state": {"target": ["29", "33", "32", "31", "22", "21", "20", "17"], "time": [2807, 6019, 9337, 12703, 16017, 19250, 22527, 26079]}, "edge": {"target": [], "time": []}}, "mouseover": {"state": {"target": ["23", "26", "29", "33", "32", "31", "21", "22", "21", "20", "17"], "time": [2129, 2245, 2433, 3764, 6762, 10396, 13796, 14295, 16645, 19728, 23828]}, "edge": {"target": [], "time": []}}, "mouseout": {"state": {"target": ["18", "2", "7", "0", "23", "26", "29", "33", "32", "31", "21", "22", "21", "20", "17", "15", "18"], "time": [334, 550, 767, 2120, 2148, 2279, 3496, 6596, 9979, 13162, 14112, 16512, 19662, 23594, 34166, 34199, 34228]}, "edge": {"target": [], "time": []}}}, "displayed_time": "32.80", "trialTime": 34576, "trial_type": "mouselab-mdp", "trial_index": 20, "time_elapsed": 708730, "internal_node_id": "0.0-6.0-1.0-11.0"}}, {"uniqueid": "w61773108:a78937511", "current_trial": 21, "dateTime": 1693481785918, "trialdata": {"revealed_states": [], "clicked_states": ["9"], "num_clicks_accrued": [0, 0, 0, 0, 0, 0, 0, 0, 0, 0, 0, 0, 0], "stateRewards": ["", -1, 1, -6, -1, 80, 23, 2, -11, 73, -81, 59, 1, 3, 5, -1, -26, 28, -3, 16, -59, -13, -50, -2, -2, 2, 15, -50, 86, 17, -4, 37, 35, 44], "withholdReward": false, "trial_id": "mdp_trial_13", "block": "test", "trialIndex": 14, "score": 53.85, "costs": -2.15, "simulationMode": [null, null, null, null, null], "rewards": [-1, 1, -6, -11, 73], "path": ["0", "0", "1", "2", "3", "8", "9"], "rt": [5070, 45, 74, 55, 44], "actions": ["up", "up", "up", "left", "up"], "actionTimes": [6351, 6907, 7518, 8091, 8655], "queries": {"click": {"state": {"target": ["9"], "time": [2507]}, "edge": {"target": [], "time": []}}, "mouseover": {"state": {"target": ["10", "8", "9", "11"], "time": [1761, 1798, 2116, 4911]}, "edge": {"target": [], "time": []}}, "mouseout": {"state": {"target": ["1", "0", "10", "8", "9", "11"], "time": [398, 1700, 1794, 1860, 3511, 12348]}, "edge": {"target": [], "time": []}}}, "displayed_time": "15.28", "trialTime": 16739, "trial_type": "mouselab-mdp", "trial_index": 21, "time_elapsed": 725860, "internal_node_id": "0.0-6.0-1.0-12.0"}}, {"uniqueid": "w61773108:a78937511", "current_trial": 22, "dateTime": 1693481835989, "trialdata": {"revealed_states": [], "clicked_states": ["5", "6", "7", "16", "17", "18", "20", "21", "22", "31", "32", "33"], "num_clicks_accrued": [0, 0, 0, 0, 0, 0, 0, 0, 0, 0, 0, 0, 0], "stateRewards": ["", -2, 2, -1, -6, 22, 6, 6, -5, 70, -42, 65, 1, 3, 5, -6, -67, -9, 3, 14, 7, -62, -13, -2, 4, 1, 16, 42, -21, -52, -8, 32, 53, 81], "withholdReward": false, "trial_id": "mdp_trial_14", "block": "test", "trialIndex": 15, "score": 50.2, "costs": -25.799999999999994, "simulationMode": [null, null, null, null, null], "rewards": [-2, 4, 1, -8, 81], "path": ["0", "0", "23", "24", "25", "30", "33"], "rt": [42753, 526, 123, 117, 137], "actions": ["left", "left", "left", "down", "left"], "actionTimes": [44306, 45347, 45993, 46622, 47273], "queries": {"click": {"state": {"target": ["5", "6", "7", "16", "17", "18", "20", "21", "22", "31", "32", "33"], "time": [2818, 6123, 9376, 12687, 15999, 19256, 22514, 26020, 29490, 33191, 36545, 41229]}, "edge": {"target": [], "time": []}}, "mouseover": {"state": {"target": ["1", "2", "4", "5", "6", "7", "16", "17", "18", "20", "21", "22", "31", "32", "33", "33"], "time": [2071, 2107, 2190, 2408, 4670, 6820, 10020, 14237, 17920, 20871, 25438, 28536, 32757, 35602, 39789, 39921]}, "edge": {"target": [], "time": []}}, "mouseout": {"state": {"target": ["1", "0", "1", "2", "4", "5", "6", "7", "16", "17", "18", "20", "21", "22", "31", "31", "32", "33", "33", "32"], "time": [639, 2036, 2089, 2136, 2257, 3404, 6637, 9920, 13354, 16837, 19720, 23054, 26837, 30636, 33396, 33936, 39436, 39819, 48907, 48970]}, "edge": {"target": [], "time": []}}}, "displayed_time": "47.79", "trialTime": 49621, "trial_type": "mouselab-mdp", "trial_index": 22, "time_elapsed": 775931, "internal_node_id": "0.0-6.0-1.0-13.0"}}, {"uniqueid": "w61773108:a78937511", "current_trial": 23, "dateTime": 1693481854886, "trialdata": {"revealed_states": [], "clicked_states": ["9", "11", "10"], "num_clicks_accrued": [0, 0, 0, 0, 0, 0, 0, 0, 0, 0, 0, 0, 0], "stateRewards": ["", -1, 1, 8, -8, -49, 62, -78, 16, 28, -81, 78, -2, -3, -1, -4, 67, 49, -2, -13, -16, -39, 83, 1, -4, 4, -5, -20, 7, 84, 7, -32, -59, 19], "withholdReward": false, "trial_id": "mdp_trial_15", "block": "test", "trialIndex": 16, "score": 95.55, "costs": -6.449999999999999, "simulationMode": [null, null, null, null, null], "rewards": [-1, 1, 8, 16, 78], "path": ["0", "0", "1", "2", "3", "8", "11"], "rt": [12247, 2, 48, 28, 118], "actions": ["up", "up", "up", "left", "left"], "actionTimes": [14099, 14626, 15205, 15767, 16390], "queries": {"click": {"state": {"target": ["9", "11", "10"], "time": [3009, 6686, 10511]}, "edge": {"target": [], "time": []}}, "mouseover": {"state": {"target": ["10", "8", "9", "8", "11", "10", "10"], "time": [2337, 2372, 2437, 6107, 6241, 7288, 10093]}, "edge": {"target": [], "time": []}}, "mouseout": {"state": {"target": ["0", "1", "1", "0", "10", "8", "9", "8", "11", "10", "10", "23", "0"], "time": [592, 691, 1091, 2292, 2370, 2404, 3889, 6137, 6894, 7405, 13442, 17971, 18003]}, "edge": {"target": [], "time": []}}}, "displayed_time": "16.91", "trialTime": 18472, "trial_type": "mouselab-mdp", "trial_index": 23, "time_elapsed": 794828, "internal_node_id": "0.0-6.0-1.0-14.0"}}, {"uniqueid": "w61773108:a78937511", "current_trial": 24, "dateTime": 1693481893781, "trialdata": {"revealed_states": [], "clicked_states": ["5", "6", "7", "16", "17", "18", "21", "20", "32"], "num_clicks_accrued": [0, 0, 0, 0, 0, 0, 0, 0, 0, 0, 0, 0, 0], "stateRewards": ["", -2, 2, -5, 1, 42, -63, -58, -6, 2, 16, 81, -2, 4, 7, -10, 33, 3, -33, -2, -52, -84, -27, 2, -3, -3, 15, -74, -14, -5, -5, -84, 79, -31], "withholdReward": false, "trial_id": "mdp_trial_16", "block": "test", "trialIndex": 17, "score": 50.650000000000006, "costs": -19.349999999999998, "simulationMode": [null, null, null, null, null], "rewards": [2, -3, -3, -5, 79], "path": ["0", "0", "23", "24", "25", "30", "32"], "rt": [32864, 9, 87, 2, 97], "actions": ["left", "left", "left", "down", "down"], "actionTimes": [34693, 35214, 35826, 36341, 36970], "queries": {"click": {"state": {"target": ["5", "6", "7", "16", "17", "18", "21", "20", "32"], "time": [3133, 6410, 9865, 13236, 16908, 20768, 24055, 27479, 30705]}, "edge": {"target": [], "time": []}}, "mouseover": {"state": {"target": ["1", "2", "4", "5", "4", "6", "6", "7", "16", "17", "15", "18", "14", "20", "21", "20", "19", "22", "32", "24", "27"], "time": [2445, 2477, 2538, 2684, 3955, 4039, 4589, 9543, 11694, 16512, 20226, 20289, 21288, 21588, 21855, 26854, 28087, 28137, 29054, 32304, 33103]}, "edge": {"target": [], "time": []}}, "mouseout": {"state": {"target": ["22", "13", "0", "1", "2", "4", "5", "4", "6", "6", "7", "16", "17", "15", "18", "14", "20", "21", "20", "19", "22", "32", "24"], "time": [293, 642, 2420, 2474, 2492, 2572, 3872, 4005, 4122, 7023, 10323, 13755, 17671, 20256, 21255, 21305, 21708, 24571, 28054, 28104, 28554, 31387, 32337]}, "edge": {"target": [], "time": []}}}, "displayed_time": "37.49", "trialTime": 38473, "trial_type": "mouselab-mdp", "trial_index": 24, "time_elapsed": 833724, "internal_node_id": "0.0-6.0-1.0-15.0"}}, {"uniqueid": "w61773108:a78937511", "current_trial": 25, "dateTime": 1693481915790, "trialdata": {"revealed_states": [], "clicked_states": ["27", "29", "33", "32"], "num_clicks_accrued": [0, 0, 0, 0, 0, 0, 0, 0, 0, 0, 0, 0, 0], "stateRewards": ["", -2, -2, -7, -13, -10, 49, -68, -1, 84, 70, 88, 1, 4, 4, 12, -57, 25, 30, 8, -1, -77, 57, 2, 3, 2, 3, -18, -80, 23, -15, -41, 70, 11], "withholdReward": false, "trial_id": "mdp_trial_17", "block": "test", "trialIndex": 18, "score": 53.4, "costs": -8.6, "simulationMode": [null, null, null, null, null], "rewards": [2, 3, 2, -15, 70], "path": ["0", "0", "23", "24", "25", "30", "32"], "rt": [15319, 36, 160, 42, 106], "actions": ["left", "left", "left", "down", "down"], "actionTimes": [16981, 17530, 18204, 18776, 19415], "queries": {"click": {"state": {"target": ["27", "29", "33", "32"], "time": [2735, 6071, 9343, 12734]}, "edge": {"target": [], "time": []}}, "mouseover": {"state": {"target": ["27", "29", "29", "25", "33", "32", "21"], "time": [2398, 3343, 3959, 6676, 7083, 11876, 14109]}, "edge": {"target": [], "time": []}}, "mouseout": {"state": {"target": ["27", "27", "29", "29", "25", "33", "32", "21", "22"], "time": [498, 3260, 3476, 6576, 6709, 9893, 13159, 21314, 21475]}, "edge": {"target": [], "time": []}}}, "displayed_time": "19.93", "trialTime": 21621, "trial_type": "mouselab-mdp", "trial_index": 25, "time_elapsed": 855733, "internal_node_id": "0.0-6.0-1.0-16.0"}}, {"uniqueid": "w61773108:a78937511", "current_trial": 26, "dateTime": 1693481932416, "trialdata": {"revealed_states": [], "clicked_states": ["27"], "num_clicks_accrued": [0, 0, 0, 0, 0, 0, 0, 0, 0, 0, 0, 0, 0], "stateRewards": ["", 1, -2, -8, -3, 31, -84, -55, -14, 15, -58, 17, -2, -3, 7, 7, -12, 48, 67, 4, -44, -68, 46, 2, 3, -5, -7, 76, 27, 5, 11, 57, 52, 59], "withholdReward": false, "trial_id": "mdp_trial_18", "block": "test", "trialIndex": 19, "score": 66.85, "costs": -2.15, "simulationMode": [null, null, null, null, null], "rewards": [2, 3, -5, -7, 76], "path": ["0", "0", "23", "24", "25", "26", "27"], "rt": [5006, 34, 107, 25, 60], "actions": ["left", "left", "left", "up", "up"], "actionTimes": [6362, 6922, 7544, 8079, 8665], "queries": {"click": {"state": {"target": ["27"], "time": [2552]}, "edge": {"target": [], "time": []}}, "mouseover": {"state": {"target": ["28", "27"], "time": [1925, 2191]}, "edge": {"target": [], "time": []}}, "mouseout": {"state": {"target": ["13", "0", "28", "27"], "time": [421, 1808, 1959, 3503]}, "edge": {"target": [], "time": []}}}, "displayed_time": "15.36", "trialTime": 16209, "trial_type": "mouselab-mdp", "trial_index": 26, "time_elapsed": 872359, "internal_node_id": "0.0-6.0-1.0-17.0"}}, {"uniqueid": "w61773108:a78937511", "current_trial": 27, "dateTime": 1693481965295, "trialdata": {"revealed_states": [], "clicked_states": ["20", "21", "16", "18", "22", "17", "5"], "num_clicks_accrued": [0, 0, 0, 0, 0, 0, 0, 0, 0, 0, 0, 0, 0], "stateRewards": ["", 2, 4, -5, 7, 81, 35, 6, 11, 14, -72, 42, -1, 2, 3, -7, -77, -44, -40, -15, -85, 51, -32, -2, -1, -5, 7, -74, 47, 52, 16, -49, 48, -46], "withholdReward": false, "trial_id": "mdp_trial_19", "block": "test", "trialIndex": 20, "score": 73.95, "costs": -15.05, "simulationMode": [null, null, null, null, null], "rewards": [2, 4, -5, 7, 81], "path": ["0", "0", "1", "2", "3", "4", "5"], "rt": [25655, 30, 43, 50, 62], "actions": ["up", "up", "up", "right", "up"], "actionTimes": [27395, 27943, 28504, 29060, 29641], "queries": {"click": {"state": {"target": ["20", "21", "16", "18", "22", "17", "5"], "time": [3723, 7087, 10320, 13619, 16862, 20197, 23338]}, "edge": {"target": [], "time": []}}, "mouseover": {"state": {"target": ["12", "13", "14", "19", "20", "21", "19", "14", "15", "16", "18", "13", "22", "14", "17", "15", "4", "5", "8", "9"], "time": [2550, 2663, 2794, 3079, 3349, 4496, 7595, 7628, 7662, 7961, 12595, 14394, 14611, 17411, 17527, 20797, 20911, 21328, 24229, 24827]}, "edge": {"target": [], "time": []}}, "mouseout": {"state": {"target": ["26", "0", "12", "13", "14", "19", "20", "21", "19", "14", "15", "16", "18", "13", "22", "14", "17", "15", "4", "5", "8", "9", "10"], "time": [811, 2467, 2612, 2711, 2984, 3266, 4330, 7578, 7612, 7645, 7711, 11012, 14344, 14461, 17361, 17461, 20794, 20812, 20927, 24063, 24778, 31748, 32096]}, "edge": {"target": [], "time": []}}}, "displayed_time": "30.16", "trialTime": 32414, "trial_type": "mouselab-mdp", "trial_index": 27, "time_elapsed": 905238, "internal_node_id": "0.0-6.0-1.0-18.0"}}, {"uniqueid": "w61773108:a78937511", "current_trial": 28, "dateTime": 1693482036865, "trialdata": {"revealed_states": [], "clicked_states": ["22", "21", "17", "16", "18", "6", "9", "27", "32", "5", "7", "11", "28", "10", "29", "33", "31", "20"], "num_clicks_accrued": [0, 0, 0, 0, 0, 0, 0, 0, 0, 0, 0, 0, 0], "stateRewards": ["", 1, 4, -8, -5, -15, -7, 21, 13, -30, 40, -65, 1, 1, 5, -14, 35, 27, -38, -11, 36, -58, -47, -2, 4, -3, 13, -16, -49, 22, 15, -56, -44, -10], "withholdReward": false, "trial_id": "mdp_trial_20", "block": "test", "trialIndex": 21, "score": 11.300000000000011, "costs": -38.69999999999999, "simulationMode": [null, null, null, null, null], "rewards": [1, 4, -8, 13, 40], "path": ["0", "0", "1", "2", "3", "8", "10"], "rt": [64480, 11, 121, 67, 60], "actions": ["up", "up", "up", "left", "down"], "actionTimes": [65773, 66300, 66957, 67538, 68115], "queries": {"click": {"state": {"target": ["22", "21", "17", "16", "18", "6", "9", "27", "32", "5", "7", "11", "28", "10", "29", "33", "31", "20"], "time": [3359, 6742, 9946, 13179, 16895, 20177, 23334, 26826, 30192, 33483, 36755, 40215, 43817, 47556, 51492, 55134, 58451, 62001]}, "edge": {"target": [], "time": []}}, "mouseover": {"state": {"target": ["12", "13", "14", "19", "22", "21", "21", "20", "17", "16", "18", "6", "9", "5", "8", "11", "27", "26", "24", "32", "31", "2", "4", "5", "3", "2", "7", "10", "11", "28", "10", "26", "29", "33", "30", "31", "19", "20", "19", "22"], "time": [2114, 2273, 2390, 2691, 2905, 3840, 6390, 7190, 7440, 10839, 16445, 17507, 21523, 24122, 25639, 25675, 25905, 27506, 27655, 28605, 31139, 31239, 31273, 31655, 34324, 34439, 34788, 37222, 37722, 43410, 47188, 48106, 48253, 54690, 55653, 55737, 60920, 61285, 62506, 62553]}, "edge": {"target": [], "time": []}}, "mouseout": {"state": {"target": ["1", "0", "12", "13", "14", "19", "22", "21", "21", "20", "17", "16", "18", "6", "9", "5", "8", "11", "27", "27", "26", "24", "32", "31", "2", "4", "5", "3", "2", "7", "10", "11", "28", "10", "26", "29", "33", "30", "31", "19", "20", "19", "22"], "time": [494, 2094, 2156, 2341, 2662, 2855, 3807, 3957, 7157, 7207, 10490, 13790, 17389, 20906, 23956, 25589, 25656, 25762, 27029, 27489, 27539, 28089, 31105, 31155, 31255, 31621, 34255, 34354, 34688, 37188, 37238, 41371, 47092, 48020, 48174, 52453, 55620, 55688, 60353, 61086, 62502, 62536, 62586]}, "edge": {"target": [], "time": []}}}, "displayed_time": "68.64", "trialTime": 71147, "trial_type": "mouselab-mdp", "trial_index": 28, "time_elapsed": 976808, "internal_node_id": "0.0-6.0-1.0-19.0"}}, {"uniqueid": "w61773108:a78937511", "current_trial": 29, "dateTime": 1693482076791, "trialdata": {"revealed_states": [], "clicked_states": ["9", "11", "10", "5", "6", "16", "17", "20", "21"], "num_clicks_accrued": [0, 0, 0, 0, 0, 0, 0, 0, 0, 0, 0, 0, 0], "stateRewards": ["", 1, -1, -7, -7, -22, 15, -13, 13, 26, -32, 38, -1, 1, -7, -4, 16, -62, 86, 12, -54, 56, 64, -2, -1, 6, 14, -57, 37, 62, -6, -25, 50, -70], "withholdReward": false, "trial_id": "mdp_trial_21", "block": "test", "trialIndex": 22, "score": 41.650000000000006, "costs": -19.349999999999998, "simulationMode": [null, null, null, null, null], "rewards": [-1, 1, -7, 12, 56], "path": ["0", "0", "12", "13", "14", "19", "21"], "rt": [33238, 29, 157, 38, 139], "actions": ["right", "right", "right", "down", "down"], "actionTimes": [34664, 35209, 35886, 36438, 37085], "queries": {"click": {"state": {"target": ["9", "11", "10", "5", "6", "16", "17", "20", "21"], "time": [2514, 5741, 10073, 13398, 16829, 20116, 23431, 27220, 30500]}, "edge": {"target": [], "time": []}}, "mouseover": {"state": {"target": ["10", "8", "9", "11", "4", "6", "5", "3", "10", "10", "3", "5", "6", "16", "17", "20", "21", "22"], "time": [1901, 1961, 2133, 3963, 6397, 6730, 7296, 9385, 9414, 9681, 10513, 10630, 14329, 17479, 20912, 26796, 28694, 33498]}, "edge": {"target": [], "time": []}}, "mouseout": {"state": {"target": ["0", "10", "8", "9", "11", "4", "6", "5", "3", "10", "10", "3", "5", "6", "16", "17", "20", "21", "22"], "time": [634, 1930, 1995, 3780, 6196, 6496, 6796, 9352, 9397, 9445, 10462, 10529, 13866, 17396, 20845, 24162, 27845, 31178, 38749]}, "edge": {"target": [], "time": []}}}, "displayed_time": "37.60", "trialTime": 39485, "trial_type": "mouselab-mdp", "trial_index": 29, "time_elapsed": 1016734, "internal_node_id": "0.0-6.0-1.0-20.0"}}, {"uniqueid": "w61773108:a78937511", "current_trial": 30, "dateTime": 1693482099404, "trialdata": {"revealed_states": [], "clicked_states": ["29", "28", "33", "31", "32"], "num_clicks_accrued": [0, 0, 0, 0, 0, 0, 0, 0, 0, 0, 0, 0, 0], "stateRewards": ["", 2, 3, 6, -5, -74, -53, 17, -12, 46, 44, 18, -2, 4, 1, -8, 22, -23, -49, 9, -45, 55, 81, 1, -1, -7, -16, -83, -71, -45, 2, 51, 82, 61], "withholdReward": false, "trial_id": "mdp_trial_22", "block": "test", "trialIndex": 23, "score": 66.25, "costs": -10.75, "simulationMode": [null, null, null, null, null], "rewards": [1, -1, -7, 2, 82], "path": ["0", "0", "23", "24", "25", "30", "32"], "rt": [17288, 31, 98, 5, 104], "actions": ["left", "left", "left", "down", "down"], "actionTimes": [18505, 19045, 19660, 20185, 20817], "queries": {"click": {"state": {"target": ["29", "28", "33", "31", "32"], "time": [2331, 5617, 8823, 12134, 15402]}, "edge": {"target": [], "time": []}}, "mouseover": {"state": {"target": ["23", "24", "29", "26", "28", "25", "30", "33", "30", "31", "32"], "time": [1646, 1665, 1934, 3113, 3212, 6262, 6329, 6546, 9262, 9329, 14011]}, "edge": {"target": [], "time": []}}, "mouseout": {"state": {"target": ["0", "0", "23", "24", "29", "26", "28", "25", "30", "33", "30", "31"], "time": [378, 1618, 1662, 1680, 3096, 3162, 6212, 6296, 6445, 9245, 9295, 12961]}, "edge": {"target": [], "time": []}}}, "displayed_time": "21.33", "trialTime": 22167, "trial_type": "mouselab-mdp", "trial_index": 30, "time_elapsed": 1039346, "internal_node_id": "0.0-6.0-1.0-21.0"}}, {"uniqueid": "w61773108:a78937511", "current_trial": 31, "dateTime": 1693482131739, "trialdata": {"revealed_states": [], "clicked_states": ["5", "21", "20", "22", "17", "16", "18"], "num_clicks_accrued": [0, 0, 0, 0, 0, 0, 0, 0, 0, 0, 0, 0, 0], "stateRewards": ["", -2, -1, -5, 10, -36, -70, 68, -9, 86, 71, -10, 2, -4, 7, -7, 66, 44, -66, -13, -69, 43, 15, -2, 2, 6, -13, 62, 57, 50, -10, -69, 42, -72], "withholdReward": false, "trial_id": "mdp_trial_23", "block": "test", "trialIndex": 24, "score": 48.95, "costs": -15.05, "simulationMode": [null, null, null, null, null], "rewards": [2, -4, 7, -7, 66], "path": ["0", "0", "12", "13", "14", "15", "16"], "rt": [25548, 504, 87, 110, 70], "actions": ["right", "right", "right", "up", "up"], "actionTimes": [26999, 28023, 28621, 29246, 29838], "queries": {"click": {"state": {"target": ["5", "21", "20", "22", "17", "16", "18"], "time": [2977, 6195, 9518, 12906, 16243, 19786, 23904]}, "edge": {"target": [], "time": []}}, "mouseover": {"state": {"target": ["1", "2", "4", "5", "18", "19", "21", "20", "19", "22", "22", "14", "17", "15", "16", "18"], "time": [1785, 1836, 1884, 2641, 3735, 3835, 4268, 6751, 10184, 10318, 11968, 13384, 13501, 18966, 19049, 22000]}, "edge": {"target": [], "time": []}}, "mouseout": {"state": {"target": ["32", "0", "1", "2", "4", "5", "18", "19", "21", "20", "19", "22", "22", "14", "17", "15", "16"], "time": [241, 1738, 1819, 1855, 1972, 3618, 3768, 4202, 6684, 10167, 10234, 10818, 13351, 13418, 18934, 19006, 20516]}, "edge": {"target": [], "time": []}}}, "displayed_time": "30.35", "trialTime": 31926, "trial_type": "mouselab-mdp", "trial_index": 31, "time_elapsed": 1071681, "internal_node_id": "0.0-6.0-1.0-22.0"}}, {"uniqueid": "w61773108:a78937511", "current_trial": 32, "dateTime": 1693482150481, "trialdata": {"revealed_states": [], "clicked_states": ["31", "33"], "num_clicks_accrued": [0, 0, 0, 0, 0, 0, 0, 0, 0, 0, 0, 0, 0], "stateRewards": ["", -2, -3, 8, -4, -30, 31, 69, 9, 66, 87, 64, -2, 2, 8, 5, 47, 16, -39, -8, -54, 51, -19, 1, -2, -2, -11, -25, -26, 43, -9, 19, -84, 86], "withholdReward": false, "trial_id": "mdp_trial_24", "block": "test", "trialIndex": 25, "score": 69.7, "costs": -4.3, "simulationMode": [null, null, null, null, null], "rewards": [1, -2, -2, -9, 86], "path": ["0", "0", "23", "24", "25", "30", "33"], "rt": [8355, 578, 200, 144, 137], "actions": ["left", "left", "left", "down", "left"], "actionTimes": [9652, 10741, 11462, 12123, 12785], "queries": {"click": {"state": {"target": ["31", "33"], "time": [2426, 5678]}, "edge": {"target": [], "time": []}}, "mouseover": {"state": {"target": ["23", "24", "31", "32", "33", "32"], "time": [1723, 1792, 2078, 3427, 3846, 8360]}, "edge": {"target": [], "time": []}}, "mouseout": {"state": {"target": ["18", "1", "0", "23", "24", "31", "32", "33", "32"], "time": [313, 376, 1701, 1759, 1893, 3043, 3644, 6196, 14214]}, "edge": {"target": [], "time": []}}}, "displayed_time": "15.30", "trialTime": 18296, "trial_type": "mouselab-mdp", "trial_index": 32, "time_elapsed": 1090423, "internal_node_id": "0.0-6.0-1.0-23.0"}}, {"uniqueid": "w61773108:a78937511", "current_trial": 33, "dateTime": 1693482178642, "trialdata": {"revealed_states": [], "clicked_states": ["17", "16", "6", "5", "7"], "num_clicks_accrued": [0, 0, 0, 0, 0, 0, 0, 0, 0, 0, 0, 0, 0], "stateRewards": ["", -2, -3, 7, -13, 60, 9, 37, -6, 37, 20, 1, 2, -2, -8, 6, -80, -31, -10, -7, 70, -65, -44, -1, 1, 7, 6, -11, 73, -85, 16, -21, 47, 34], "withholdReward": false, "trial_id": "mdp_trial_25", "block": "test", "trialIndex": 26, "score": 38.25, "costs": -10.75, "simulationMode": [null, null, null, null, null], "rewards": [-2, -3, 7, -13, 60], "path": ["0", "0", "1", "2", "3", "4", "5"], "rt": [18181, 3, 140, 60, 118], "actions": ["up", "up", "up", "right", "up"], "actionTimes": [22108, 22622, 23292, 23863, 24502], "queries": {"click": {"state": {"target": ["17", "16", "6", "5", "7"], "time": [5275, 8555, 11753, 15073, 18502]}, "edge": {"target": [], "time": []}}, "mouseover": {"state": {"target": ["12", "13", "14", "17", "16", "16", "6", "5", "7", "7"], "time": [4428, 4461, 4500, 4956, 5967, 7417, 9201, 12551, 16119, 16517]}, "edge": {"target": [], "time": []}}, "mouseout": {"state": {"target": ["0", "12", "13", "14", "17", "16", "16", "6", "5", "7", "7", "0"], "time": [4405, 4447, 4472, 4549, 5901, 6001, 8759, 11959, 15634, 16269, 20651, 26433]}, "edge": {"target": [], "time": []}}}, "displayed_time": "25.02", "trialTime": 27699, "trial_type": "mouselab-mdp", "trial_index": 33, "time_elapsed": 1118585, "internal_node_id": "0.0-6.0-1.0-24.0"}}, {"uniqueid": "w61773108:a78937511", "current_trial": 34, "dateTime": 1693482200992, "trialdata": {"revealed_states": [], "clicked_states": ["9", "27", "33", "21"], "num_clicks_accrued": [0, 0, 0, 0, 0, 0, 0, 0, 0, 0, 0, 0, 0], "stateRewards": ["", -1, -3, 1, -4, -48, -63, -49, -2, -84, -19, 65, 2, -2, -2, -12, -4, 59, 9, 6, 75, 69, -13, -1, -3, -3, -2, -37, -68, -36, 13, 32, 18, -14], "withholdReward": false, "trial_id": "mdp_trial_26", "block": "test", "trialIndex": 27, "score": 64.4, "costs": -8.6, "simulationMode": [null, null, null, null, null], "rewards": [2, -2, -2, 6, 69], "path": ["0", "0", "12", "13", "14", "19", "21"], "rt": [15812, 101, 118, 41, 141], "actions": ["right", "right", "right", "down", "down"], "actionTimes": [17628, 18270, 18904, 19460, 20110], "queries": {"click": {"state": {"target": ["9", "27", "33", "21"], "time": [2971, 6279, 9562, 12803]}, "edge": {"target": [], "time": []}}, "mouseover": {"state": {"target": ["10", "8", "9", "11", "27", "29", "33", "21", "20", "17"], "time": [2318, 2370, 2604, 3601, 3818, 7017, 7868, 11000, 13350, 13967]}, "edge": {"target": [], "time": []}}, "mouseout": {"state": {"target": ["0", "10", "8", "9", "11", "27", "29", "33", "21", "20"], "time": [2189, 2351, 2505, 3518, 3635, 6934, 7301, 10134, 13300, 13367]}, "edge": {"target": [], "time": []}}}, "displayed_time": "20.62", "trialTime": 21885, "trial_type": "mouselab-mdp", "trial_index": 34, "time_elapsed": 1140935, "internal_node_id": "0.0-6.0-1.0-25.0"}}, {"uniqueid": "w61773108:a78937511", "current_trial": 35, "dateTime": 1693482217811, "trialdata": {"revealed_states": [], "clicked_states": ["32", "33"], "num_clicks_accrued": [0, 0, 0, 0, 0, 0, 0, 0, 0, 0, 0, 0, 0], "stateRewards": ["", -2, 2, 3, -7, -31, -33, 29, -8, -57, 50, -83, -1, -1, 5, 13, -23, -62, 25, 5, -66, -85, 14, 1, -2, -1, 16, 71, 33, -19, -14, 5, -43, 79], "withholdReward": false, "trial_id": "mdp_trial_27", "block": "test", "trialIndex": 28, "score": 58.7, "costs": -4.3, "simulationMode": [null, null, null, null, null], "rewards": [1, -2, -1, -14, 79], "path": ["0", "0", "23", "24", "25", "30", "33"], "rt": [8235, 55, 85, 91, 148], "actions": ["left", "left", "left", "down", "left"], "actionTimes": [9622, 10193, 10804, 11412, 12069], "queries": {"click": {"state": {"target": ["32", "33"], "time": [2416, 5747]}, "edge": {"target": [], "time": []}}, "mouseover": {"state": {"target": ["23", "30", "32", "33", "29"], "time": [1743, 1907, 1969, 3453, 6486]}, "edge": {"target": [], "time": []}}, "mouseout": {"state": {"target": ["17", "15", "14", "13", "12", "0", "23", "30", "32", "33"], "time": [171, 269, 489, 536, 602, 1718, 1765, 1931, 3203, 6386]}, "edge": {"target": [], "time": []}}}, "displayed_time": "15.39", "trialTime": 16342, "trial_type": "mouselab-mdp", "trial_index": 35, "time_elapsed": 1157754, "internal_node_id": "0.0-6.0-1.0-26.0"}}, {"uniqueid": "w61773108:a78937511", "current_trial": 36, "dateTime": 1693482235531, "trialdata": {"revealed_states": [], "clicked_states": ["17"], "num_clicks_accrued": [0, 0, 0, 0, 0, 0, 0, 0, 0, 0, 0, 0, 0], "stateRewards": ["", 2, -3, -8, 14, -7, -51, 73, 2, 36, 36, -43, -1, 3, -4, 1, 6, 87, -65, 15, 61, -42, -83, -1, 3, -2, -7, 30, -48, 35, 13, 26, 60, 78], "withholdReward": false, "trial_id": "mdp_trial_28", "block": "test", "trialIndex": 29, "score": 83.85, "costs": -2.15, "simulationMode": [null, null, null, null, null], "rewards": [-1, 3, -4, 1, 87], "path": ["0", "0", "12", "13", "14", "15", "17"], "rt": [4927, 79, 143, 100, 78], "actions": ["right", "right", "right", "up", "right"], "actionTimes": [6991, 7581, 8246, 8868, 9478], "queries": {"click": {"state": {"target": ["17"], "time": [3061]}, "edge": {"target": [], "time": []}}, "mouseover": {"state": {"target": ["18", "15", "17", "16"], "time": [2549, 2585, 2634, 3749]}, "edge": {"target": [], "time": []}}, "mouseout": {"state": {"target": ["29", "0", "12", "12", "0", "18", "15", "17"], "time": [814, 980, 1015, 1282, 2503, 2568, 2617, 3261]}, "edge": {"target": [], "time": []}}}, "displayed_time": "16.07", "trialTime": 17258, "trial_type": "mouselab-mdp", "trial_index": 36, "time_elapsed": 1175474, "internal_node_id": "0.0-6.0-1.0-27.0"}}, {"uniqueid": "w61773108:a78937511", "current_trial": 37, "dateTime": 1693482281716, "trialdata": {"revealed_states": [], "clicked_states": ["9", "11", "10", "5", "6", "16", "17", "20", "21", "22"], "num_clicks_accrued": [0, 0, 0, 0, 0, 0, 0, 0, 0, 0, 0, 0, 0], "stateRewards": ["", 1, 1, 1, -3, -7, -1, -41, -10, 20, -72, -63, 1, -4, -2, 2, -66, 30, -84, -2, 49, 23, 71, -1, -4, 4, -12, 67, 5, 18, -16, 88, 56, -5], "withholdReward": false, "trial_id": "mdp_trial_29", "block": "test", "trialIndex": 30, "score": 42.5, "costs": -21.499999999999996, "simulationMode": [null, null, null, null, null], "rewards": [1, -4, -2, -2, 71], "path": ["0", "0", "12", "13", "14", "19", "22"], "rt": [38066, 78, 128, 66, 167], "actions": ["right", "right", "right", "down", "left"], "actionTimes": [41129, 41729, 42379, 42967, 43651], "queries": {"click": {"state": {"target": ["9", "11", "10", "5", "6", "16", "17", "20", "21", "22"], "time": [4197, 8246, 12262, 15547, 19174, 23187, 26616, 29972, 33492, 37161]}, "edge": {"target": [], "time": []}}, "mouseover": {"state": {"target": ["1", "2", "8", "9", "11", "8", "10", "10", "3", "5", "6", "16", "17", "20", "21", "22"], "time": [3515, 3553, 3652, 3843, 7857, 8735, 8901, 11387, 12684, 12784, 18775, 22320, 26121, 27666, 31149, 36771]}, "edge": {"target": [], "time": []}}, "mouseout": {"state": {"target": ["16", "0", "1", "2", "8", "9", "9", "9", "11", "8", "10", "10", "3", "5", "6", "16", "17", "20", "21", "22"], "time": [2004, 3490, 3533, 3567, 3720, 4407, 4705, 7607, 8701, 8751, 9134, 12667, 12717, 17667, 19751, 24117, 27050, 30500, 34116, 37749]}, "edge": {"target": [], "time": []}}}, "displayed_time": "44.17", "trialTime": 45713, "trial_type": "mouselab-mdp", "trial_index": 37, "time_elapsed": 1221659, "internal_node_id": "0.0-6.0-1.0-28.0"}}, {"uniqueid": "w61773108:a78937511", "current_trial": 38, "dateTime": 1693482307942, "trialdata": {"revealed_states": [], "clicked_states": ["28", "31", "22", "18", "7"], "num_clicks_accrued": [0, 0, 0, 0, 0, 0, 0, 0, 0, 0, 0, 0, 0], "stateRewards": ["", 2, -1, -1, -9, -81, -30, 55, -6, 78, 25, 62, 2, 4, -1, 9, -85, 1, -19, 1, -60, 12, -34, 1, 4, -1, -13, -24, -16, -83, -8, 16, 43, 9], "withholdReward": false, "trial_id": "mdp_trial_30", "block": "test", "trialIndex": 31, "score": 35.25, "costs": -10.75, "simulationMode": [null, null, null, null, null], "rewards": [2, -1, -1, -9, 55], "path": ["0", "0", "1", "2", "3", "4", "7"], "rt": [20316, 22, 42, 47, 117], "actions": ["up", "up", "up", "right", "down"], "actionTimes": [21797, 22339, 22907, 23480, 24116], "queries": {"click": {"state": {"target": ["28", "31", "22", "18", "7"], "time": [2858, 6275, 9684, 13586, 17405]}, "edge": {"target": [], "time": []}}, "mouseover": {"state": {"target": ["28", "28", "23", "31", "22", "22", "18", "18", "12", "7", "2"], "time": [2051, 2454, 3517, 5462, 6783, 9251, 12899, 13139, 14233, 16888, 18232]}, "edge": {"target": [], "time": []}}, "mouseout": {"state": {"target": ["0", "28", "28", "23", "31", "22", "22", "18", "18", "12", "7", "2"], "time": [836, 2173, 3467, 3533, 6633, 7333, 9888, 12948, 14200, 14285, 18182, 18432]}, "edge": {"target": [], "time": []}}}, "displayed_time": "24.63", "trialTime": 25756, "trial_type": "mouselab-mdp", "trial_index": 38, "time_elapsed": 1247884, "internal_node_id": "0.0-6.0-1.0-29.0"}}, {"uniqueid": "w61773108:a78937511", "current_trial": 39, "dateTime": 1693482326144, "trialdata": {"revealed_states": [], "clicked_states": ["5"], "num_clicks_accrued": [0, 0, 0, 0, 0, 0, 0, 0, 0, 0, 0, 0, 0], "stateRewards": ["", -2, -3, -3, 9, 79, 67, 22, -15, -56, 27, -85, -2, 4, -4, -15, -20, -32, 60, 15, 71, 57, 17, 1, 2, -8, 15, -37, -81, 82, 15, 21, -3, 2], "withholdReward": false, "trial_id": "mdp_trial_31", "block": "test", "trialIndex": 32, "score": 77.85, "costs": -2.15, "simulationMode": [null, null, null, null, null], "rewards": [-2, -3, -3, 9, 79], "path": ["0", "0", "1", "2", "3", "4", "5"], "rt": [5062, 17, 41, 70, 71], "actions": ["up", "up", "up", "right", "up"], "actionTimes": [6431, 6971, 7543, 8139, 8709], "queries": {"click": {"state": {"target": ["5"], "time": [2603]}, "edge": {"target": [], "time": []}}, "mouseover": {"state": {"target": ["1", "5", "6"], "time": [2008, 2118, 3936]}, "edge": {"target": [], "time": []}}, "mouseout": {"state": {"target": ["1", "5"], "time": [2036, 3369]}, "edge": {"target": [], "time": []}}}, "displayed_time": "15.37", "trialTime": 17733, "trial_type": "mouselab-mdp", "trial_index": 39, "time_elapsed": 1266088, "internal_node_id": "0.0-6.0-1.0-30.0"}}, {"uniqueid": "w61773108:a78937511", "current_trial": 40, "dateTime": 1693482378843, "trialdata": {"revealed_states": [], "clicked_states": ["10", "5", "16", "22", "21", "20", "32", "33", "29", "27", "31"], "num_clicks_accrued": [0, 0, 0, 0, 0, 0, 0, 0, 0, 0, 0, 0, 0], "stateRewards": ["", 1, 1, -5, 8, -6, 45, 16, -6, -7, -22, -38, -1, -4, 8, -11, -16, 21, -45, -15, -59, -32, 42, -1, 3, 6, 11, -7, 34, -27, -8, 85, 43, -9], "withholdReward": false, "trial_id": "mdp_trial_32", "block": "test", "trialIndex": 33, "score": 61.35000000000001, "costs": -23.649999999999995, "simulationMode": [null, null, null, null, null], "rewards": [-1, 3, 6, -8, 85], "path": ["0", "0", "23", "24", "25", "30", "31"], "rt": [45374, 71, 77, 7, 63], "actions": ["left", "left", "left", "down", "right"], "actionTimes": [48037, 48622, 49212, 49741, 50332], "queries": {"click": {"state": {"target": ["10", "5", "16", "22", "21", "20", "32", "33", "29", "27", "31"], "time": [3928, 8455, 12077, 15883, 19974, 23746, 28045, 32100, 36987, 40868, 44180]}, "edge": {"target": [], "time": []}}, "mouseover": {"state": {"target": ["28", "10", "2", "10", "2", "2", "8", "9", "5", "5", "16", "17", "19", "22", "21", "20", "19", "31", "32", "33", "31", "25", "26", "29", "27", "24", "31"], "time": [3170, 3269, 3403, 3603, 4551, 7224, 7302, 7469, 7676, 8122, 11618, 12727, 14867, 15208, 19540, 23268, 24601, 27292, 27583, 31616, 35706, 35933, 35985, 36351, 40334, 41549, 42532]}, "edge": {"target": [], "time": []}}, "mouseout": {"state": {"target": ["6", "0", "0", "28", "10", "2", "10", "2", "2", "8", "9", "5", "5", "16", "17", "19", "22", "21", "20", "19", "31", "32", "33", "31", "25", "26", "29", "29", "27", "24", "31"], "time": [1388, 1605, 3074, 3203, 3320, 3554, 4503, 4595, 7253, 7368, 7486, 7711, 8969, 12635, 12804, 15000, 16502, 23223, 24568, 24619, 27503, 29601, 32733, 35869, 35955, 36288, 38183, 40239, 41450, 41633, 44949]}, "edge": {"target": [], "time": []}}}, "displayed_time": "50.85", "trialTime": 52214, "trial_type": "mouselab-mdp", "trial_index": 40, "time_elapsed": 1318785, "internal_node_id": "0.0-6.0-1.0-31.0"}}, {"uniqueid": "w61773108:a78937511", "current_trial": 41, "dateTime": 1693482397974, "trialdata": {"revealed_states": [], "clicked_states": ["11", "10", "9"], "num_clicks_accrued": [0, 0, 0, 0, 0, 0, 0, 0, 0, 0, 0, 0, 0], "stateRewards": ["", 1, 4, -8, -13, -13, -87, -77, -10, -44, 54, 42, 2, -3, -4, 12, -9, -80, 52, 9, 84, -2, -65, 1, -4, -5, -6, 8, 80, 32, 13, -59, -5, -13], "withholdReward": false, "trial_id": "mdp_trial_33", "block": "test", "trialIndex": 34, "score": 34.55, "costs": -6.449999999999999, "simulationMode": [null, null, null, null, null], "rewards": [1, 4, -8, -10, 54], "path": ["0", "0", "1", "2", "3", "8", "10"], "rt": [12962, 3, 42, 25, 71], "actions": ["up", "up", "up", "left", "down"], "actionTimes": [14311, 14833, 15405, 15938, 16532], "queries": {"click": {"state": {"target": ["11", "10", "9"], "time": [2426, 6461, 10370]}, "edge": {"target": [], "time": []}}, "mouseover": {"state": {"target": ["10", "11", "10", "10", "2", "7", "2", "10", "9"], "time": [1865, 2044, 2995, 3328, 4189, 5583, 5745, 6046, 9995]}, "edge": {"target": [], "time": []}}, "mouseout": {"state": {"target": ["0", "0", "10", "11", "11", "10", "10", "2", "7", "2", "10", "9", "2"], "time": [546, 1750, 1887, 2633, 2945, 3094, 4144, 4211, 5715, 5912, 6894, 10832, 18194]}, "edge": {"target": [], "time": []}}}, "displayed_time": "17.05", "trialTime": 18640, "trial_type": "mouselab-mdp", "trial_index": 41, "time_elapsed": 1337916, "internal_node_id": "0.0-6.0-1.0-32.0"}}, {"uniqueid": "w61773108:a78937511", "current_trial": 42, "dateTime": 1693482426244, "trialdata": {"revealed_states": [], "clicked_states": ["16", "18", "17", "21", "22", "31"], "num_clicks_accrued": [0, 0, 0, 0, 0, 0, 0, 0, 0, 0, 0, 0, 0], "stateRewards": ["", -1, -4, 8, 8, -68, 47, 24, -7, -61, 49, -69, -1, -1, 8, -7, 42, 1, -45, -11, 10, -63, -6, 1, 4, 6, -16, 79, -37, -58, -12, 81, 18, -53], "withholdReward": false, "trial_id": "mdp_trial_34", "block": "test", "trialIndex": 35, "score": 67.1, "costs": -12.9, "simulationMode": [null, null, null, null, null], "rewards": [1, 4, 6, -12, 81], "path": ["0", "0", "23", "24", "25", "30", "31"], "rt": [22664, 49, 77, 30, 47], "actions": ["left", "left", "left", "down", "right"], "actionTimes": [23868, 24426, 25036, 25574, 26139], "queries": {"click": {"state": {"target": ["16", "18", "17", "21", "22", "31"], "time": [2041, 6030, 9808, 13074, 16686, 19953]}, "edge": {"target": [], "time": []}}, "mouseover": {"state": {"target": ["16", "7", "18", "15", "17", "17", "20", "21", "22", "31", "30"], "time": [1661, 4293, 5661, 6446, 6479, 9415, 10392, 11592, 16144, 17208, 23094]}, "edge": {"target": [], "time": []}}, "mouseout": {"state": {"target": ["12", "0", "16", "7", "18", "15", "17", "17", "20", "21", "22", "22", "31", "31"], "time": [279, 1464, 2660, 5515, 6443, 6476, 6526, 10226, 11342, 13626, 16898, 17109, 20164, 20798]}, "edge": {"target": [], "time": []}}}, "displayed_time": "26.66", "trialTime": 27777, "trial_type": "mouselab-mdp", "trial_index": 42, "time_elapsed": 1366187, "internal_node_id": "0.0-6.0-1.0-33.0"}}, {"uniqueid": "w61773108:a78937511", "current_trial": 43, "dateTime": 1693482443077, "trialdata": {"revealed_states": [], "clicked_states": ["27"], "num_clicks_accrued": [0, 0, 0, 0, 0, 0, 0, 0, 0, 0, 0, 0, 0], "stateRewards": ["", 2, -1, 5, 6, 10, 86, 55, 10, -45, 63, -71, 1, -2, 5, -8, -50, -72, 36, 15, 61, 12, 33, -1, -4, 6, 5, 79, -56, -21, -16, -87, 60, -81], "withholdReward": false, "trial_id": "mdp_trial_35", "block": "test", "trialIndex": 36, "score": 82.85, "costs": -2.15, "simulationMode": [null, null, null, null, null], "rewards": [-1, -4, 6, 5, 79], "path": ["0", "0", "23", "24", "25", "26", "27"], "rt": [5212, 65, 79, 536, 107], "actions": ["left", "left", "left", "up", "up"], "actionTimes": [6533, 7114, 7710, 8771, 9390], "queries": {"click": {"state": {"target": ["27"], "time": [2468]}, "edge": {"target": [], "time": []}}, "mouseover": {"state": {"target": ["23", "28", "27", "28"], "time": [1818, 1863, 2117, 5700]}, "edge": {"target": [], "time": []}}, "mouseout": {"state": {"target": ["30", "31", "23", "0", "23", "28", "27"], "time": [266, 298, 382, 1802, 1835, 1913, 3064]}, "edge": {"target": [], "time": []}}}, "displayed_time": "15.32", "trialTime": 16383, "trial_type": "mouselab-mdp", "trial_index": 43, "time_elapsed": 1383020, "internal_node_id": "0.0-6.0-1.0-34.0"}}, {"uniqueid": "w61773108:a78937511", "current_trial": 44, "dateTime": 1693482460107, "trialdata": {"revealed_states": [], "clicked_states": ["31"], "num_clicks_accrued": [0, 0, 0, 0, 0, 0, 0, 0, 0, 0, 0, 0, 0], "stateRewards": ["", 2, 3, 3, 10, 19, -21, 6, 9, 54, 68, 16, 2, 2, -6, -8, 40, -2, -75, -2, -42, 55, 59, -1, 2, 4, -14, 11, -34, -30, -6, 61, -53, 13], "withholdReward": false, "trial_id": "mdp_trial_36", "block": "test", "trialIndex": 37, "score": 57.85, "costs": -2.15, "simulationMode": [null, null, null, null, null], "rewards": [-1, 2, 4, -6, 61], "path": ["0", "0", "23", "24", "25", "30", "31"], "rt": [6158, 56, 103, 51, 8], "actions": ["left", "left", "left", "down", "right"], "actionTimes": [7879, 8459, 9093, 9653, 10194], "queries": {"click": {"state": {"target": ["31"], "time": [2711]}, "edge": {"target": [], "time": []}}, "mouseover": {"state": {"target": ["23", "31", "32"], "time": [2181, 2284, 6751]}, "edge": {"target": [], "time": []}}, "mouseout": {"state": {"target": ["28", "0", "23", "31", "32"], "time": [738, 2172, 2207, 3235, 11918]}, "edge": {"target": [], "time": []}}}, "displayed_time": "15.72", "trialTime": 16519, "trial_type": "mouselab-mdp", "trial_index": 44, "time_elapsed": 1400050, "internal_node_id": "0.0-6.0-1.0-35.0"}}, {"uniqueid": "w61773108:a78937511", "current_trial": 45, "dateTime": 1693482479164, "trialdata": {"revealed_states": [], "clicked_states": ["27", "29", "28"], "num_clicks_accrued": [0, 0, 0, 0, 0, 0, 0, 0, 0, 0, 0, 0, 0], "stateRewards": ["", -1, 4, -8, 12, 14, 69, -8, 5, -72, -14, 56, -1, -1, -1, 9, 67, 19, 11, -9, -88, -58, 3, 2, -4, -8, 4, 62, 77, -74, 5, -31, 65, 88], "withholdReward": false, "trial_id": "mdp_trial_37", "block": "test", "trialIndex": 38, "score": 64.55, "costs": -6.449999999999999, "simulationMode": [null, null, null, null, null], "rewards": [2, -4, -8, 4, 77], "path": ["0", "0", "23", "24", "25", "26", "28"], "rt": [12298, 61, 107, 94, 46], "actions": ["left", "left", "left", "up", "right"], "actionTimes": [13980, 14553, 15182, 15786, 16354], "queries": {"click": {"state": {"target": ["27", "29", "28"], "time": [2706, 7415, 10850]}, "edge": {"target": [], "time": []}}, "mouseover": {"state": {"target": ["23", "28", "27", "10", "2", "28", "26", "29", "26", "28"], "time": [2094, 2139, 2344, 5792, 5855, 6661, 6838, 6990, 7839, 7906]}, "edge": {"target": [], "time": []}}, "mouseout": {"state": {"target": ["0", "23", "28", "27", "10", "2", "28", "26", "29", "26", "28"], "time": [2077, 2122, 2189, 3190, 5827, 6163, 6807, 6929, 7622, 7873, 11223]}, "edge": {"target": [], "time": []}}}, "displayed_time": "16.89", "trialTime": 18548, "trial_type": "mouselab-mdp", "trial_index": 45, "time_elapsed": 1419107, "internal_node_id": "0.0-6.0-1.0-36.0"}}, {"uniqueid": "w61773108:a78937511", "current_trial": 46, "dateTime": 1693482529970, "trialdata": {"revealed_states": [], "clicked_states": ["5", "16", "20", "32", "33", "29", "27", "28", "10", "11", "31"], "num_clicks_accrued": [0, 0, 0, 0, 0, 0, 0, 0, 0, 0, 0, 0, 0], "stateRewards": ["", -2, 2, -4, -4, -59, 88, 62, -3, 69, -15, -34, 1, -2, -5, 7, -54, -20, 78, -16, -74, -53, -21, 2, -4, 2, 13, -8, -44, 26, 9, 72, 4, 17], "withholdReward": false, "trial_id": "mdp_trial_38", "block": "test", "trialIndex": 39, "score": 57.35000000000001, "costs": -23.649999999999995, "simulationMode": [null, null, null, null, null], "rewards": [2, -4, 2, 9, 72], "path": ["0", "0", "23", "24", "25", "30", "31"], "rt": [43973, 48, 69, 46, 116], "actions": ["left", "left", "left", "down", "right"], "actionTimes": [45301, 45862, 46465, 47040, 47677], "queries": {"click": {"state": {"target": ["5", "16", "20", "32", "33", "29", "27", "28", "10", "11", "31"], "time": [2545, 6764, 10687, 14767, 18528, 22280, 26243, 29917, 33516, 37279, 41552]}, "edge": {"target": [], "time": []}}, "mouseover": {"state": {"target": ["1", "4", "5", "6", "7", "16", "20", "32", "30", "33", "29", "26", "28", "27", "28", "10", "11", "24", "31"], "time": [1870, 1946, 2132, 5970, 6201, 6380, 10252, 14377, 18028, 18130, 21869, 22935, 23415, 25797, 29512, 33035, 36801, 40946, 41111]}, "edge": {"target": [], "time": []}}, "mouseout": {"state": {"target": ["1", "4", "5", "6", "7", "16", "20", "32", "30", "33", "29", "26", "28", "27", "28", "10", "11", "24", "31"], "time": [1899, 1996, 3147, 6049, 6285, 7197, 11181, 15650, 18080, 19017, 22915, 22950, 23995, 26453, 30118, 34312, 38345, 41047, 42428]}, "edge": {"target": [], "time": []}}}, "displayed_time": "48.20", "trialTime": 50297, "trial_type": "mouselab-mdp", "trial_index": 46, "time_elapsed": 1469913, "internal_node_id": "0.0-6.0-1.0-37.0"}}, {"uniqueid": "w61773108:a78937511", "current_trial": 47, "dateTime": 1693482549644, "trialdata": {"revealed_states": [], "clicked_states": ["31", "33", "32"], "num_clicks_accrued": [0, 0, 0, 0, 0, 0, 0, 0, 0, 0, 0, 0, 0], "stateRewards": ["", -2, -4, 6, 14, -34, 49, 36, -8, -3, 32, -4, 1, -2, 1, -8, -20, -71, -57, -7, -86, -62, -16, -2, -3, -5, 11, 23, -21, 53, 5, -5, 85, 73], "withholdReward": false, "trial_id": "mdp_trial_39", "block": "test", "trialIndex": 40, "score": 73.55, "costs": -6.449999999999999, "simulationMode": [null, null, null, null, null], "rewards": [-2, -3, -5, 5, 85], "path": ["0", "0", "23", "24", "25", "30", "32"], "rt": [14040, 40, 79, 12, 69], "actions": ["left", "left", "left", "down", "down"], "actionTimes": [15309, 15870, 16459, 16992, 17598], "queries": {"click": {"state": {"target": ["31", "33", "32"], "time": [2480, 6838, 11752]}, "edge": {"target": [], "time": []}}, "mouseover": {"state": {"target": ["23", "31", "29", "33", "32"], "time": [1679, 2083, 6030, 6401, 10479]}, "edge": {"target": [], "time": []}}, "mouseout": {"state": {"target": ["0", "23", "31", "29", "33", "32"], "time": [1650, 1797, 3229, 6252, 7278, 13429]}, "edge": {"target": [], "time": []}}}, "displayed_time": "18.11", "trialTime": 19173, "trial_type": "mouselab-mdp", "trial_index": 47, "time_elapsed": 1489587, "internal_node_id": "0.0-6.0-1.0-38.0"}}, {"uniqueid": "w61773108:a78937511", "current_trial": 48, "dateTime": 1693482566122, "trialdata": {"revealed_states": [], "clicked_states": ["16"], "num_clicks_accrued": [0, 0, 0, 0, 0, 0, 0, 0, 0, 0, 0, 0, 0], "stateRewards": ["", 1, 1, 1, 15, -76, 52, -32, 14, -57, 37, 49, 1, -4, -3, 6, 83, -76, 25, 9, 36, -1, -17, -1, 4, 4, -2, -22, -21, 58, -15, -57, 49, -24], "withholdReward": false, "trial_id": "mdp_trial_40", "block": "test", "trialIndex": 41, "score": 80.85, "costs": -2.15, "simulationMode": [null, null, null, null, null], "rewards": [1, -4, -3, 6, 83], "path": ["0", "0", "12", "13", "14", "15", "16"], "rt": [5053, 518, 141, 104, 73], "actions": ["right", "right", "right", "up", "up"], "actionTimes": [6236, 7270, 7919, 8539, 9123], "queries": {"click": {"state": {"target": ["16"], "time": [2451]}, "edge": {"target": [], "time": []}}, "mouseover": {"state": {"target": ["16"], "time": [2102]}, "edge": {"target": [], "time": []}}, "mouseout": {"state": {"target": ["16", "15", "13", "12"], "time": [3014, 11617, 12118, 12213]}, "edge": {"target": [], "time": []}}}, "displayed_time": "15.19", "trialTime": 15986, "trial_type": "mouselab-mdp", "trial_index": 48, "time_elapsed": 1506065, "internal_node_id": "0.0-6.0-1.0-39.0"}}, {"uniqueid": "w61773108:a78937511", "current_trial": 49, "dateTime": 1693482626431, "trialdata": {"rt": 60296, "response": {"Q0": "$-2 to $2", "Q1": "$-16 to $16", "Q2": "$-88 to $88", "Q3": "The cost for clicking on nodes varied between nodes.", "Q4": "Very motivated"}, "question_order": [0, 1, 2, 3, 4], "trial_id": "final_quiz_control", "trial_type": "survey-multi-choice", "trial_index": 49, "time_elapsed": 1566374, "internal_node_id": "0.0-6.0-2.0"}}, {"uniqueid": "w61773108:a78937511", "current_trial": 50, "dateTime": 1693482906190, "trialdata": {"rt": 279734, "response": {"Q0": "I focused on the outer (final) nodes and didn't check the inner ones as the value of the outer nodes was more important to the final total than the value of the nodes on the path towards it.", "Q1": "Only after the first couple of games when i realised it was better to work backwards and select an outer node to travel to.", "Q2": "It was always weighing up whether to continue towards a mid-value node or to spend more money trying to discover a higher value one. I'm not sure my performance improved past the first few games as I'd settled on a strategy then."}, "trial_id": "self_report_control", "trial_type": "survey-text", "trial_index": 50, "time_elapsed": 1846133, "internal_node_id": "0.0-6.0-3.0"}}, {"uniqueid": "w61773108:a78937511", "current_trial": 51, "dateTime": 1693482966400, "trialdata": {"rt": 60196, "response": {"Q0": "Strongly disagree", "Q1": "Neither disagree nor agree", "Q2": "Neither disagree nor agree", "Q3": "Neither disagree nor agree", "Q4": "Disagree", "Q5": "Neither disagree nor agree", "Q6": "Neither disagree nor agree"}, "question_order": [0, 1, 2, 3, 4, 5, 6], "trial_id": "self_report_2", "trial_type": "survey-multi-choice", "trial_index": 51, "time_elapsed": 1906344, "internal_node_id": "0.0-6.0-4.0"}}, {"uniqueid": "w61773108:a78937511", "current_trial": 52, "dateTime": 1693482986260, "trialdata": {"rt": 19840, "response": {"gender": "female", "age": "39", "colorblind": "0", "effort": "0"}, "trial_type": "survey-html-form", "trial_index": 52, "time_elapsed": 1926203, "internal_node_id": "0.0-6.0-5.0"}}, {"uniqueid": "w61773108:a78937511", "current_trial": 53, "dateTime": 1693483008178, "trialdata": {"rt": 21898, "response": {"Q0": "No", "Q1": "No", "Q2": "None"}, "trial_type": "survey-text", "trial_index": 53, "time_elapsed": 1948122, "internal_node_id": "0.0-6.0-6.0"}}, {"uniqueid": "w61773108:a78937511", "current_trial": 54, "dateTime": 1693483034083, "trialdata": {"rt": 25895, "stimulus": "<h1>Completion Code Instructions (1/2)</h1>\n<br><br><br><br>\nYou have reached the end of the experiment! The completion code consists of two parts: (1) a code with 2 characters (2) a code with 6 characters. On this page, you will receive the second part of the code. The first part of the completion code will be on the next page.\n<br><br>\nThe second part of your completion code is: <b>EWEK22</b>\n<br><br>\nPlease note this down. Then, press 'Finish HIT' in order to find the first part of your completion code. Once the data has been saved, you will receive this code either in this window or in the original browser window where you started the experiment.\n", "response": 0, "trial_type": "html-button-response", "trial_index": 54, "time_elapsed": 1974027, "internal_node_id": "0.0-6.0-7.0"}}, {"uniqueid": "w61773108:a78937511", "current_trial": 55, "dateTime": 1693483035091, "trialdata": {"success": true, "trial_type": "fullscreen", "trial_index": 55, "time_elapsed": 1975035, "internal_node_id": "0.0-7.0"}}], "questiondata": {"params": {"CODE": "C6DMOQA6", "MIN_TIME": 14, "inspectCost": 1, "startTime": "Thu Aug 31 2023 12:24:18 GMT+0100 (British Summer Time)", "bonusRate": 0.002, "variance": "1_2_4_8_44", "branching": "31123"}, "final_score": 2450.35}, "eventdata": [{"eventtype": "initialized", "value": null, "timestamp": 1693481058387, "interval": 0}, {"eventtype": "window_resize", "value": [1024, 654], "timestamp": 1693481058387, "interval": 0}, {"eventtype": "window_resize", "value": [1024, 654], "timestamp": 1693481058717, "interval": 330}, {"eventtype": "window_resize", "value": [1366, 768], "timestamp": 1693481062646, "interval": 3929}, {"eventtype": "window_resize", "value": [1024, 654], "timestamp": 1693483034739, "interval": 1972093}], "useragent": "Mozilla/5.0 (Windows NT 10.0; Win64; x64) AppleWebKit/537.36 (KHTML, like Gecko) Chrome/116.0.0.0 Safari/537.36", "mode": "live", "id": "w61773108:a78937511", "status": "user data saved", "Beginhit": "2023-08-31 11:24:16.695178", "Beginexp": "2023-08-31 11:24:23.729762", "Endhit": "2023-08-31 11:57:15.867344", "psiturkStatus": 3, "browser": "<redacted>", "platform": "windows", "language": "en-GB"}