{"condition": 1, "counterbalance": 0, "assignmentId": "a45673090", "workerId": "w45572613", "hitId": "h39041169", "currenttrial": 56, "bonus": 0, "data": [{"uniqueid": "w45572613:a45673090", "current_trial": 0, "dateTime": 1693481105298, "trialdata": {"success": true, "trial_type": "fullscreen", "trial_index": 0, "time_elapsed": 10594, "internal_node_id": "0.0-0.0"}}, {"uniqueid": "w45572613:a45673090", "current_trial": 1, "dateTime": 1693481149346, "trialdata": {"view_history": [{"page_index": 0, "viewing_time": 44044}], "rt": 44044, "trial_id": "exp_instructions_misaligned", "trial_type": "instructions", "trial_index": 1, "time_elapsed": 54643, "internal_node_id": "0.0-1.0"}}, {"uniqueid": "w45572613:a45673090", "current_trial": 2, "dateTime": 1693481467929, "trialdata": {"view_history": [{"page_index": 0, "viewing_time": 129366}, {"page_index": 1, "viewing_time": 114721}, {"page_index": 2, "viewing_time": 34638}, {"page_index": 3, "viewing_time": 39855}], "rt": 318581, "trial_id": "mouselab_instructions_1_misaligned", "trial_type": "instructions", "trial_index": 2, "time_elapsed": 373226, "internal_node_id": "0.0-2.0-1.0"}}, {"uniqueid": "w45572613:a45673090", "current_trial": 3, "dateTime": 1693481502314, "trialdata": {"revealed_states": [], "clicked_states": ["31", "32", "27", "9", "17", "5", "6"], "num_clicks_accrued": [0, 0, 0, 0, 0, 0, 0, 0, 0, 0, 0, 0, 0], "stateRewards": ["", 10, 10, -10, 10, -10, 10, -10, -10, 10, 10, 10, 10, 10, 10, -10, -10, 10, -10, -10, -10, 10, -10, -10, -10, 10, 10, -10, 10, -10, -10, 10, -10, 10], "withholdReward": false, "trial_id": "practice_1", "block": "test", "trialIndex": 0, "score": 30, "costs": -3.5, "simulationMode": [null, null, null, null, null], "rewards": [10, 10, 10, -10, 10], "path": ["0", "0", "12", "13", "14", "15", "17"], "rt": [23141, 641, 365, 724, 148], "actions": ["right", "right", "right", "up", "right"], "actionTimes": [25326, 26468, 27349, 28571, 29228], "queries": {"click": {"state": {"target": ["31", "32", "27", "9", "17", "5", "6"], "time": [4315, 5591, 6852, 8815, 15493, 17355, 19549]}, "edge": {"target": [], "time": []}}, "mouseover": {"state": {"target": ["23", "24", "25", "30", "31", "32", "30", "27", "8", "9", "8", "3", "2", "16", "15", "17", "6", "5", "6"], "time": [3009, 3060, 3226, 3826, 4096, 5295, 5994, 6545, 8076, 8532, 12181, 13109, 13242, 14744, 14977, 15058, 16411, 16810, 18475]}, "edge": {"target": [], "time": []}}, "mouseout": {"state": {"target": ["0", "23", "24", "25", "30", "31", "32", "30", "27", "8", "9", "8", "3", "2", "16", "15", "17", "6", "5", "6"], "time": [2994, 3042, 3127, 3729, 3992, 4978, 5805, 6028, 7938, 8158, 11643, 12858, 13125, 14344, 14959, 14992, 16343, 16426, 18161, 20981]}, "edge": {"target": [], "time": []}}}, "displayed_time": "29.76", "trialTime": 33357, "trial_type": "mouselab-mdp", "trial_index": 3, "time_elapsed": 407611, "internal_node_id": "0.0-2.0-2.0-0.0"}}, {"uniqueid": "w45572613:a45673090", "current_trial": 4, "dateTime": 1693481531329, "trialdata": {"revealed_states": [], "clicked_states": ["21", "16", "17", "5", "11", "24", "31", "32"], "num_clicks_accrued": [0, 0, 0, 0, 0, 0, 0, 0, 0, 0, 0, 0, 0], "stateRewards": ["", -10, 10, -10, 10, -10, 10, 10, 10, -10, 10, 10, -10, 10, -10, 10, -10, 10, -10, 10, 10, -10, 10, -10, 10, -10, -10, 10, -10, 10, 10, -10, 10, 10], "withholdReward": false, "trial_id": "practice_2", "block": "test", "trialIndex": 1, "score": 9.5, "costs": -4, "simulationMode": [null, null, null, null, null], "rewards": [-10, 10, -10, 10, 10], "path": ["0", "0", "23", "24", "25", "30", "32"], "rt": [18816, 441, 321, 277, 206], "actions": ["left", "left", "left", "down", "down"], "actionTimes": [20923, 21865, 22694, 23467, 24177], "queries": {"click": {"state": {"target": ["21", "16", "17", "5", "11", "24", "31", "32"], "time": [3222, 4889, 6000, 8814, 10497, 11859, 14947, 16462]}, "edge": {"target": [], "time": []}}, "mouseover": {"state": {"target": ["12", "13", "19", "21", "19", "14", "15", "16", "17", "15", "18", "7", "4", "6", "5", "11", "28", "24", "31", "32", "33", "30", "31"], "time": [2486, 2523, 2635, 2868, 3654, 3688, 3972, 4122, 5453, 7006, 7070, 7235, 7368, 7735, 8386, 9986, 11155, 11289, 13289, 15905, 17934, 18589, 19289]}, "edge": {"target": [], "time": []}}, "mouseout": {"state": {"target": ["0", "12", "13", "19", "21", "19", "14", "15", "16", "17", "15", "18", "7", "4", "6", "5", "5", "11", "28", "24", "31", "32", "33", "30", "31"], "time": [1452, 2519, 2555, 2769, 3638, 3672, 3705, 4037, 5390, 6229, 7054, 7102, 7287, 7401, 8319, 9038, 9520, 11038, 11189, 13186, 15704, 17752, 18255, 19268, 19319]}, "edge": {"target": [], "time": []}}}, "displayed_time": "24.67", "trialTime": 28798, "trial_type": "mouselab-mdp", "trial_index": 4, "time_elapsed": 436626, "internal_node_id": "0.0-2.0-2.0-1.0"}}, {"uniqueid": "w45572613:a45673090", "current_trial": 5, "dateTime": 1693481593897, "trialdata": {"view_history": [{"page_index": 0, "viewing_time": 57595}, {"page_index": 1, "viewing_time": 4969}], "rt": 62565, "trial_id": "mouselab_instructions_2_misaligned", "trial_type": "instructions", "trial_index": 5, "time_elapsed": 499194, "internal_node_id": "0.0-2.0-3.0"}}, {"uniqueid": "w45572613:a45673090", "current_trial": 6, "dateTime": 1693481657022, "trialdata": {"rt": 63122, "response": {"Q0": "The cost for clicking on nodes may vary between nodes.", "Q1": "The better I perform the higher my bonus will be.", "Q2": "No, the amount of cash at each node of the web may be different each time.", "Q3": "To get the highest total score.", "Q4": "Only before moving the spider.", "Q5": "3 seconds"}, "question_order": [0, 1, 2, 3, 4, 5], "correct": {"Q0": "The cost for clicking on nodes may vary between nodes.", "Q1": "The better I perform the higher my bonus will be.", "Q2": "No, the amount of cash at each node of the web may be different each time.", "Q3": "To get the highest total score.", "Q4": "Only before moving the spider.", "Q5": "3 seconds"}, "trial_id": "mouselab_quiz_misaligned", "trial_type": "survey-multi-choice", "trial_index": 6, "time_elapsed": 562319, "internal_node_id": "0.0-2.0-4.0"}}, {"uniqueid": "w45572613:a45673090", "current_trial": 7, "dateTime": 1693481665520, "trialdata": {"rt": 8492, "response": {"Q0": "No"}, "question_order": [0], "trial_id": "repeat_check", "trial_type": "survey-multi-choice", "trial_index": 7, "time_elapsed": 570816, "internal_node_id": "0.0-4.0-0.0"}}, {"uniqueid": "w45572613:a45673090", "current_trial": 8, "dateTime": 1693481691752, "trialdata": {"rt": 26229, "stimulus": "\n<h1> Get ready to start the game! </h1>\n\nThank you for reading the instructions. Get ready start with the 40 rounds of this game.\n<br><br>\nIf you need to take a break, feel free to take one after the end of a round, before continuing to the next one.\n<br><br>\nRemember, the more money the spider gets, the bigger your bonus will be!\n<br><br>\n<div style='text-align: center;'>Press <code>space</code> to begin.</div>\n\n<br><br>\n(If, at any point, the <code>space</code> key does not take you to the next page, click once on the text and try again.)", "response": " ", "trial_id": "mdp_ready", "trial_type": "html-keyboard-response", "trial_index": 8, "time_elapsed": 597049, "internal_node_id": "0.0-6.0-0.0"}}, {"uniqueid": "w45572613:a45673090", "current_trial": 9, "dateTime": 1693481713639, "trialdata": {"revealed_states": [], "clicked_states": ["33"], "num_clicks_accrued": [0, 0, 0, 0, 0, 0, 0, 0, 0, 0, 0, 0, 0], "stateRewards": ["", -2, 3, -5, -7, 66, 43, -60, -4, -70, -75, 4, -1, 2, 2, -13, 54, 11, -40, -1, 77, 32, 15, -2, 3, -8, -9, -35, 83, -27, 6, -74, -34, 44], "withholdReward": false, "trial_id": "mdp_trial_1", "block": "test", "trialIndex": 2, "score": 40.85, "costs": -2.15, "simulationMode": [null, null, null, null, null], "rewards": [-2, 3, -8, 6, 44], "path": ["0", "0", "23", "24", "25", "30", "33"], "rt": [11756, 223, 184, 457, 226], "actions": ["left", "left", "left", "down", "left"], "actionTimes": [14018, 14736, 15413, 16369, 17086], "queries": {"click": {"state": {"target": ["33"], "time": [3100]}, "edge": {"target": [], "time": []}}, "mouseover": {"state": {"target": ["0", "23", "24", "25", "33", "30", "31", "31", "30", "25", "31"], "time": [2421, 2446, 2480, 2495, 2775, 3377, 3395, 3761, 11511, 11991, 12244]}, "edge": {"target": [], "time": []}}, "mouseout": {"state": {"target": ["10", "0", "23", "24", "25", "33", "30", "31", "31", "30", "25", "31"], "time": [944, 2444, 2458, 2493, 2524, 3361, 3394, 3428, 11424, 11707, 12124, 12278]}, "edge": {"target": [], "time": []}}}, "displayed_time": "17.60", "trialTime": 21664, "trial_type": "mouselab-mdp", "trial_index": 9, "time_elapsed": 618936, "internal_node_id": "0.0-6.0-1.0-0.0"}}, {"uniqueid": "w45572613:a45673090", "current_trial": 10, "dateTime": 1693481733336, "trialdata": {"revealed_states": [], "clicked_states": ["20", "21", "22"], "num_clicks_accrued": [0, 0, 0, 0, 0, 0, 0, 0, 0, 0, 0, 0, 0], "stateRewards": ["", -1, -4, -6, -15, 21, -67, -63, 9, 51, 69, -14, -1, 3, 8, -8, 39, 72, 63, 15, 19, 47, 15, 1, 4, 5, 16, -18, 34, 35, -14, -80, 40, 1], "withholdReward": false, "trial_id": "mdp_trial_2", "block": "test", "trialIndex": 3, "score": 65.55, "costs": -6.449999999999999, "simulationMode": [null, null, null, null, null], "rewards": [-1, 3, 8, 15, 47], "path": ["0", "0", "12", "13", "14", "19", "21"], "rt": [11411, 243, 213, 342, 163], "actions": ["right", "right", "right", "down", "down"], "actionTimes": [12894, 13637, 14354, 15207, 15871], "queries": {"click": {"state": {"target": ["20", "21", "22"], "time": [2712, 5910, 9613]}, "edge": {"target": [], "time": []}}, "mouseover": {"state": {"target": ["12", "13", "14", "19", "20", "21", "22", "14"], "time": [1773, 1841, 2123, 2289, 2356, 3242, 6741, 11526]}, "edge": {"target": [], "time": []}}, "mouseout": {"state": {"target": ["0", "12", "13", "14", "19", "20", "21", "22", "14"], "time": [1071, 1805, 1960, 2140, 2306, 3209, 6493, 11442, 11598]}, "edge": {"target": [], "time": []}}}, "displayed_time": "16.38", "trialTime": 19455, "trial_type": "mouselab-mdp", "trial_index": 10, "time_elapsed": 638631, "internal_node_id": "0.0-6.0-1.0-1.0"}}, {"uniqueid": "w45572613:a45673090", "current_trial": 11, "dateTime": 1693481762075, "trialdata": {"revealed_states": [], "clicked_states": ["9", "6", "5", "17", "16"], "num_clicks_accrued": [0, 0, 0, 0, 0, 0, 0, 0, 0, 0, 0, 0, 0], "stateRewards": ["", -1, -2, -8, 8, -27, -82, 19, -14, -62, 4, 1, -2, 2, 6, 10, 73, -51, -2, 2, 73, -48, 54, -1, 2, -4, 11, -25, 47, 86, 15, 33, 43, -42], "withholdReward": false, "trial_id": "mdp_trial_3", "block": "test", "trialIndex": 4, "score": 78.25, "costs": -10.75, "simulationMode": [null, null, null, null, null], "rewards": [-2, 2, 6, 10, 73], "path": ["0", "0", "12", "13", "14", "15", "16"], "rt": [20004, 269, 90, 270, 37], "actions": ["right", "right", "right", "up", "up"], "actionTimes": [21868, 22639, 23247, 24009, 24559], "queries": {"click": {"state": {"target": ["9", "6", "5", "17", "16"], "time": [3211, 6259, 9257, 12176, 16234]}, "edge": {"target": [], "time": []}}, "mouseover": {"state": {"target": ["1", "2", "3", "9", "9", "5", "6", "5", "4", "15", "17", "16", "15", "14", "19", "21"], "time": [2086, 2105, 2124, 2419, 2818, 3789, 5171, 7021, 9821, 9969, 10404, 12904, 17071, 17137, 17204, 17688]}, "edge": {"target": [], "time": []}}, "mouseout": {"state": {"target": ["0", "1", "2", "3", "9", "9", "5", "6", "5", "4", "15", "17", "16", "15", "14", "19", "21"], "time": [2064, 2103, 2121, 2136, 2435, 3655, 5004, 6871, 9803, 9838, 10335, 12772, 17020, 17104, 17171, 17571, 27868]}, "edge": {"target": [], "time": []}}}, "displayed_time": "25.07", "trialTime": 28527, "trial_type": "mouselab-mdp", "trial_index": 11, "time_elapsed": 667372, "internal_node_id": "0.0-6.0-1.0-2.0"}}, {"uniqueid": "w45572613:a45673090", "current_trial": 12, "dateTime": 1693481782268, "trialdata": {"revealed_states": [], "clicked_states": ["32", "27"], "num_clicks_accrued": [0, 0, 0, 0, 0, 0, 0, 0, 0, 0, 0, 0, 0], "stateRewards": ["", -2, -4, -2, -13, -15, 87, -19, -6, -80, 30, 12, 1, 1, -8, 2, 55, 56, 15, 11, -68, -7, 55, -2, 3, -3, -3, 48, 62, 4, 1, -3, 69, -33], "withholdReward": false, "trial_id": "mdp_trial_4", "block": "test", "trialIndex": 5, "score": 63.7, "costs": -4.3, "simulationMode": [null, null, null, null, null], "rewards": [-2, 3, -3, 1, 69], "path": ["0", "0", "23", "24", "25", "30", "32"], "rt": [8118, 72, 118, 210, 151], "actions": ["left", "left", "left", "down", "down"], "actionTimes": [9695, 10269, 10880, 11612, 12281], "queries": {"click": {"state": {"target": ["32", "27"], "time": [2865, 5639]}, "edge": {"target": [], "time": []}}, "mouseover": {"state": {"target": ["32", "30", "25", "26", "27"], "time": [2376, 3494, 3577, 3751, 4181]}, "edge": {"target": [], "time": []}}, "mouseout": {"state": {"target": ["0", "32", "30", "25", "26", "27"], "time": [1892, 3477, 3529, 3748, 3796, 7662]}, "edge": {"target": [], "time": []}}}, "displayed_time": "15.58", "trialTime": 19994, "trial_type": "mouselab-mdp", "trial_index": 12, "time_elapsed": 687565, "internal_node_id": "0.0-6.0-1.0-3.0"}}, {"uniqueid": "w45572613:a45673090", "current_trial": 13, "dateTime": 1693481802926, "trialdata": {"revealed_states": [], "clicked_states": ["29"], "num_clicks_accrued": [0, 0, 0, 0, 0, 0, 0, 0, 0, 0, 0, 0, 0], "stateRewards": ["", -1, -3, -7, -4, -85, -70, 79, 8, 84, -66, 42, 2, -2, -3, -16, -54, -66, 68, -3, 21, -14, 7, -2, -1, -3, -8, 75, 80, 86, -7, -84, 73, -16], "withholdReward": false, "trial_id": "mdp_trial_5", "block": "test", "trialIndex": 6, "score": 69.85, "costs": -2.15, "simulationMode": [null, null, null, null, null], "rewards": [-2, -1, -3, -8, 86], "path": ["0", "0", "23", "24", "25", "26", "29"], "rt": [7244, 131, 106, 440, 161], "actions": ["left", "left", "left", "up", "left"], "actionTimes": [9276, 9926, 10534, 11466, 12126], "queries": {"click": {"state": {"target": ["29"], "time": [3165]}, "edge": {"target": [], "time": []}}, "mouseover": {"state": {"target": ["24", "26", "29", "26", "28", "28"], "time": [2373, 2506, 2776, 3942, 4058, 4426]}, "edge": {"target": [], "time": []}}, "mouseout": {"state": {"target": ["0", "24", "26", "29", "26", "28", "28", "1"], "time": [2358, 2392, 2524, 3877, 3993, 4143, 7340, 18707]}, "edge": {"target": [], "time": []}}}, "displayed_time": "16.03", "trialTime": 20350, "trial_type": "mouselab-mdp", "trial_index": 13, "time_elapsed": 708222, "internal_node_id": "0.0-6.0-1.0-4.0"}}, {"uniqueid": "w45572613:a45673090", "current_trial": 14, "dateTime": 1693481831036, "trialdata": {"revealed_states": [], "clicked_states": ["10", "7", "6", "16", "20"], "num_clicks_accrued": [0, 0, 0, 0, 0, 0, 0, 0, 0, 0, 0, 0, 0], "stateRewards": ["", -2, -4, 6, 14, -34, 49, 36, -8, -3, 32, -4, 1, -2, 1, -8, -20, -71, -57, -7, -86, -62, -16, -2, -3, -5, 11, 23, -21, 53, 5, -5, 85, 73], "withholdReward": false, "trial_id": "mdp_trial_6", "block": "test", "trialIndex": 7, "score": 52.25, "costs": -10.75, "simulationMode": [null, null, null, null, null], "rewards": [-2, -4, 6, 14, 49], "path": ["0", "0", "1", "2", "3", "4", "6"], "rt": [19937, 166, 158, 371, 51], "actions": ["up", "up", "up", "right", "right"], "actionTimes": [21059, 21730, 22402, 23268, 23829], "queries": {"click": {"state": {"target": ["10", "7", "6", "16", "20"], "time": [2187, 5405, 8758, 12220, 15605]}, "edge": {"target": [], "time": []}}, "mouseover": {"state": {"target": ["10", "2", "7", "4", "6", "16", "15", "20", "19", "13"], "time": [1827, 3045, 3228, 6312, 6528, 9662, 14612, 15226, 18760, 19042]}, "edge": {"target": [], "time": []}}, "mouseout": {"state": {"target": ["0", "10", "2", "7", "4", "6", "16", "15", "20", "19"], "time": [1447, 2410, 3094, 6245, 6329, 9595, 14279, 14713, 18429, 18909]}, "edge": {"target": [], "time": []}}}, "displayed_time": "24.34", "trialTime": 27845, "trial_type": "mouselab-mdp", "trial_index": 14, "time_elapsed": 736332, "internal_node_id": "0.0-6.0-1.0-5.0"}}, {"uniqueid": "w45572613:a45673090", "current_trial": 15, "dateTime": 1693481850472, "trialdata": {"revealed_states": [], "clicked_states": ["31", "3"], "num_clicks_accrued": [0, 0, 0, 0, 0, 0, 0, 0, 0, 0, 0, 0, 0], "stateRewards": ["", -2, 3, -1, -9, 44, 48, -37, -3, 71, -39, 87, -1, 3, -4, 4, -21, 59, -15, -8, -1, 28, -38, 2, 4, 4, 8, -85, -72, -63, 14, 58, 63, -46], "withholdReward": false, "trial_id": "mdp_trial_7", "block": "test", "trialIndex": 8, "score": 78.9, "costs": -3.0999999999999996, "simulationMode": [null, null, null, null, null], "rewards": [2, 4, 4, 14, 58], "path": ["0", "0", "23", "24", "25", "30", "31"], "rt": [10242, 94, 123, 235, 560], "actions": ["left", "left", "left", "down", "right"], "actionTimes": [12768, 13363, 14005, 14737, 15795], "queries": {"click": {"state": {"target": ["31", "3"], "time": [3724, 7861]}, "edge": {"target": [], "time": []}}, "mouseover": {"state": {"target": ["23", "31", "2", "3", "2", "3", "9", "8"], "time": [2997, 3330, 4465, 4884, 5150, 5999, 8766, 11831]}, "edge": {"target": [], "time": []}}, "mouseout": {"state": {"target": ["13", "12", "0", "0", "23", "31", "2", "3", "2", "3", "9", "8"], "time": [1362, 1412, 1563, 2966, 3059, 4366, 4850, 5116, 5983, 8087, 11797, 11880]}, "edge": {"target": [], "time": []}}}, "displayed_time": "16.53", "trialTime": 19186, "trial_type": "mouselab-mdp", "trial_index": 15, "time_elapsed": 755769, "internal_node_id": "0.0-6.0-1.0-6.0"}}, {"uniqueid": "w45572613:a45673090", "current_trial": 16, "dateTime": 1693481874468, "trialdata": {"revealed_states": [], "clicked_states": ["16", "29", "33", "31"], "num_clicks_accrued": [0, 0, 0, 0, 0, 0, 0, 0, 0, 0, 0, 0, 0], "stateRewards": ["", -1, -3, -3, 1, -38, 2, -53, -2, -1, -81, 70, -1, 1, -5, -9, 46, 15, 35, -1, -22, 38, 59, -2, 4, -8, 13, 1, -83, -43, 4, 76, 13, 48], "withholdReward": false, "trial_id": "mdp_trial_8", "block": "test", "trialIndex": 9, "score": 65.4, "costs": -8.6, "simulationMode": [null, null, null, null, null], "rewards": [-2, 4, -8, 4, 76], "path": ["0", "0", "23", "24", "25", "30", "31"], "rt": [15547, 224, 268, 434, 198], "actions": ["left", "left", "left", "down", "right"], "actionTimes": [17182, 17903, 18667, 19603, 20298], "queries": {"click": {"state": {"target": ["16", "29", "33", "31"], "time": [2674, 5853, 9107, 12539]}, "edge": {"target": [], "time": []}}, "mouseover": {"state": {"target": ["16", "28", "26", "29", "33", "30", "31", "24", "10", "9", "9", "11", "10", "1"], "time": [2010, 4114, 4132, 4515, 7267, 9680, 10047, 13230, 13280, 13314, 13682, 14081, 16028, 16077]}, "edge": {"target": [], "time": []}}, "mouseout": {"state": {"target": ["16", "28", "26", "29", "33", "30", "31", "24", "10", "9", "9", "11", "10", "1"], "time": [3980, 4130, 4147, 6814, 9662, 9747, 13214, 13247, 13297, 13329, 13947, 16013, 16043, 16095]}, "edge": {"target": [], "time": []}}}, "displayed_time": "20.80", "trialTime": 23746, "trial_type": "mouselab-mdp", "trial_index": 16, "time_elapsed": 779765, "internal_node_id": "0.0-6.0-1.0-7.0"}}, {"uniqueid": "w45572613:a45673090", "current_trial": 17, "dateTime": 1693481919808, "trialdata": {"revealed_states": [], "clicked_states": ["28", "32", "21", "6", "5", "11", "16", "17", "22", "13"], "num_clicks_accrued": [0, 0, 0, 0, 0, 0, 0, 0, 0, 0, 0, 0, 0], "stateRewards": ["", -1, 2, -6, 6, -82, -19, -39, -16, -83, 11, -33, -2, -2, 4, -6, -82, -1, -19, -6, -10, -67, -41, -2, 1, -7, 16, -23, -78, -52, 14, 31, -71, 74], "withholdReward": false, "trial_id": "mdp_trial_9", "block": "test", "trialIndex": 10, "score": -26.7, "costs": -19.7, "simulationMode": [null, null, null, null, null], "rewards": [-2, -2, 4, -6, -1], "path": ["0", "0", "12", "13", "14", "15", "17"], "rt": [35962, 713, 636, 454, 91], "actions": ["right", "right", "right", "up", "right"], "actionTimes": [37621, 38824, 39964, 40915, 41505], "queries": {"click": {"state": {"target": ["28", "32", "21", "6", "5", "11", "16", "17", "22", "13"], "time": [2773, 6020, 9242, 12464, 15804, 19082, 22392, 25697, 29516, 32901]}, "edge": {"target": [], "time": []}}, "mouseover": {"state": {"target": ["23", "28", "26", "33", "32", "21", "19", "14", "15", "6", "5", "9", "11", "8", "3", "16", "17", "14", "22", "13", "14", "14"], "time": [2176, 2324, 3929, 4097, 4312, 7443, 9835, 9867, 9919, 10195, 14326, 16713, 16992, 20427, 20461, 20860, 23212, 28859, 29177, 30663, 34076, 34427]}, "edge": {"target": [], "time": []}}, "mouseout": {"state": {"target": ["0", "23", "28", "26", "33", "32", "21", "19", "14", "15", "6", "5", "9", "11", "8", "3", "16", "17", "14", "22", "13", "14", "14", "13", "12"], "time": [1190, 2275, 2994, 3994, 4232, 6944, 9833, 9854, 9904, 9961, 13793, 16462, 16830, 19300, 20460, 20477, 23046, 28725, 28892, 30511, 33132, 34125, 43418, 43476, 43525]}, "edge": {"target": [], "time": []}}}, "displayed_time": "42.01", "trialTime": 45100, "trial_type": "mouselab-mdp", "trial_index": 17, "time_elapsed": 825105, "internal_node_id": "0.0-6.0-1.0-8.0"}}, {"uniqueid": "w45572613:a45673090", "current_trial": 18, "dateTime": 1693481948702, "trialdata": {"revealed_states": [], "clicked_states": ["29", "27", "5", "32", "6", "16"], "num_clicks_accrued": [0, 0, 0, 0, 0, 0, 0, 0, 0, 0, 0, 0, 0], "stateRewards": ["", -2, -4, 2, 10, -17, 18, 73, 11, -32, 23, -13, -2, -4, 7, 12, -25, 66, -23, 15, 40, -76, -9, 1, 2, -7, -5, -20, 24, 3, -5, 16, -73, 70], "withholdReward": false, "trial_id": "mdp_trial_10", "block": "test", "trialIndex": 11, "score": 11.100000000000001, "costs": -12.9, "simulationMode": [null, null, null, null, null], "rewards": [-2, -4, 2, 10, 18], "path": ["0", "0", "1", "2", "3", "4", "6"], "rt": [21379, 146, 78, 159, 185], "actions": ["up", "up", "up", "right", "right"], "actionTimes": [23289, 23939, 24523, 25215, 25909], "queries": {"click": {"state": {"target": ["29", "27", "5", "32", "6", "16"], "time": [2998, 6375, 9927, 13135, 16466, 19743]}, "edge": {"target": [], "time": []}}, "mouseover": {"state": {"target": ["23", "24", "25", "29", "27", "11", "9", "9", "11", "27", "9", "5", "3", "10", "28", "24", "31", "32", "30", "25", "11", "4", "6", "6", "16", "18"], "time": [2218, 2251, 2369, 2602, 3640, 3688, 3721, 4004, 5188, 5654, 6886, 7237, 10837, 10871, 10925, 10979, 11041, 11274, 13943, 14070, 14680, 15072, 15090, 15605, 17421, 21005]}, "edge": {"target": [], "time": []}}, "mouseout": {"state": {"target": ["0", "23", "24", "25", "29", "27", "11", "9", "9", "11", "27", "9", "5", "5", "3", "10", "28", "24", "31", "32", "30", "25", "11", "4", "6", "6", "16", "18", "0", "23", "24", "31"], "time": [1350, 2235, 2285, 2538, 3638, 3671, 3703, 3755, 5156, 5288, 6837, 6905, 10153, 10820, 10853, 10887, 10959, 11025, 11096, 13905, 14021, 14104, 15024, 15088, 15104, 17371, 20973, 21057, 27722, 27790, 27874, 27956]}, "edge": {"target": [], "time": []}}}, "displayed_time": "26.41", "trialTime": 28620, "trial_type": "mouselab-mdp", "trial_index": 18, "time_elapsed": 853998, "internal_node_id": "0.0-6.0-1.0-9.0"}}, {"uniqueid": "w45572613:a45673090", "current_trial": 19, "dateTime": 1693481966405, "trialdata": {"revealed_states": [], "clicked_states": ["31", "28"], "num_clicks_accrued": [0, 0, 0, 0, 0, 0, 0, 0, 0, 0, 0, 0, 0], "stateRewards": ["", 2, -3, -5, 5, 11, -9, -33, 6, 67, 6, -30, -1, -2, -6, 13, 55, 13, 72, -14, 75, 21, -66, -2, -4, 6, 15, -1, -35, 60, 2, 51, -73, 12], "withholdReward": false, "trial_id": "mdp_trial_11", "block": "test", "trialIndex": 12, "score": 48.7, "costs": -4.3, "simulationMode": [null, null, null, null, null], "rewards": [-2, -4, 6, 2, 51], "path": ["0", "0", "23", "24", "25", "30", "31"], "rt": [8623, 104, 43, 118, 114], "actions": ["left", "left", "left", "down", "right"], "actionTimes": [10556, 11162, 11703, 12328, 12948], "queries": {"click": {"state": {"target": ["31", "28"], "time": [3034, 6882]}, "edge": {"target": [], "time": []}}, "mouseover": {"state": {"target": ["31", "31", "30", "25", "28", "28"], "time": [2406, 2689, 4558, 4991, 5058, 5424]}, "edge": {"target": [], "time": []}}, "mouseout": {"state": {"target": ["0", "31", "31", "30", "25", "28", "28", "28", "23"], "time": [2289, 2555, 4492, 4674, 5024, 5313, 7117, 8360, 15508]}, "edge": {"target": [], "time": []}}}, "displayed_time": "15.93", "trialTime": 17227, "trial_type": "mouselab-mdp", "trial_index": 19, "time_elapsed": 871702, "internal_node_id": "0.0-6.0-1.0-10.0"}}, {"uniqueid": "w45572613:a45673090", "current_trial": 20, "dateTime": 1693481989783, "trialdata": {"revealed_states": [], "clicked_states": ["6", "11", "33", "17"], "num_clicks_accrued": [0, 0, 0, 0, 0, 0, 0, 0, 0, 0, 0, 0, 0], "stateRewards": ["", -1, 4, -5, 9, 29, -75, -42, -16, 24, -28, -41, 2, -3, 1, 10, 60, 47, 55, -1, -53, 22, -40, 2, -3, -6, 4, -26, 44, 54, 15, -76, 42, 14], "withholdReward": false, "trial_id": "mdp_trial_12", "block": "test", "trialIndex": 13, "score": 48.4, "costs": -8.6, "simulationMode": [null, null, null, null, null], "rewards": [2, -3, 1, 10, 47], "path": ["0", "0", "12", "13", "14", "15", "17"], "rt": [15618, 103, 32, 194, 623], "actions": ["right", "right", "right", "up", "right"], "actionTimes": [17390, 17992, 18534, 19265, 20391], "queries": {"click": {"state": {"target": ["6", "11", "33", "17"], "time": [2842, 6241, 9896, 13169]}, "edge": {"target": [], "time": []}}, "mouseover": {"state": {"target": ["1", "7", "6", "8", "11", "27", "29", "30", "33", "1", "18", "15", "17"], "time": [2100, 2151, 2433, 4605, 4840, 6820, 7170, 7803, 8287, 10504, 10553, 10572, 10935]}, "edge": {"target": [], "time": []}}, "mouseout": {"state": {"target": ["0", "1", "7", "6", "8", "11", "27", "29", "30", "33", "1", "18", "15", "17"], "time": [1317, 2117, 2186, 4019, 4690, 6703, 6921, 7337, 8053, 10420, 10520, 10571, 10605, 16200]}, "edge": {"target": [], "time": []}}}, "displayed_time": "20.89", "trialTime": 23049, "trial_type": "mouselab-mdp", "trial_index": 20, "time_elapsed": 895079, "internal_node_id": "0.0-6.0-1.0-11.0"}}, {"uniqueid": "w45572613:a45673090", "current_trial": 21, "dateTime": 1693482006885, "trialdata": {"revealed_states": [], "clicked_states": ["6", "9"], "num_clicks_accrued": [0, 0, 0, 0, 0, 0, 0, 0, 0, 0, 0, 0, 0], "stateRewards": ["", -1, 3, -4, -14, 78, 67, 2, 13, -32, 28, 39, -2, 1, -4, -4, -4, -42, -86, 11, 64, -29, -32, -1, -4, 2, -7, 5, 68, -61, 2, -21, 85, 50], "withholdReward": false, "trial_id": "mdp_trial_13", "block": "test", "trialIndex": 14, "score": 46.7, "costs": -4.3, "simulationMode": [null, null, null, null, null], "rewards": [-1, 3, -4, -14, 67], "path": ["0", "0", "1", "2", "3", "4", "6"], "rt": [9253, 154, 100, 404, 156], "actions": ["up", "up", "up", "right", "right"], "actionTimes": [11248, 11893, 12488, 13396, 14045], "queries": {"click": {"state": {"target": ["6", "9"], "time": [3161, 6321]}, "edge": {"target": [], "time": []}}, "mouseover": {"state": {"target": ["1", "7", "6", "4", "3", "9", "9", "11", "27", "29"], "time": [2343, 2386, 2437, 4215, 4232, 4357, 4655, 8905, 8988, 9303]}, "edge": {"target": [], "time": []}}, "mouseout": {"state": {"target": ["0", "1", "7", "6", "4", "3", "9", "9", "9", "11", "27", "29"], "time": [1171, 2355, 2403, 4213, 4231, 4245, 4522, 6544, 8838, 8925, 9119, 15386]}, "edge": {"target": [], "time": []}}}, "displayed_time": "16.00", "trialTime": 16838, "trial_type": "mouselab-mdp", "trial_index": 21, "time_elapsed": 912182, "internal_node_id": "0.0-6.0-1.0-12.0"}}, {"uniqueid": "w45572613:a45673090", "current_trial": 22, "dateTime": 1693482024533, "trialdata": {"revealed_states": [], "clicked_states": ["28", "18"], "num_clicks_accrued": [0, 0, 0, 0, 0, 0, 0, 0, 0, 0, 0, 0, 0], "stateRewards": ["", 1, -1, 4, -2, -75, -75, 84, -9, -60, -79, 59, 2, -4, 8, 9, -17, -82, 80, 14, -4, 49, 49, -1, 3, 6, -11, -33, 34, 55, 9, -57, 5, 59], "withholdReward": false, "trial_id": "mdp_trial_14", "block": "test", "trialIndex": 15, "score": 90.7, "costs": -4.3, "simulationMode": [null, null, null, null, null], "rewards": [2, -4, 8, 9, 80], "path": ["0", "0", "12", "13", "14", "15", "18"], "rt": [9015, 47, 36, 55, 51], "actions": ["right", "right", "right", "up", "left"], "actionTimes": [10817, 11383, 11921, 12492, 13055], "queries": {"click": {"state": {"target": ["28", "18"], "time": [3014, 6260]}, "edge": {"target": [], "time": []}}, "mouseover": {"state": {"target": ["23", "28", "15", "17", "15", "18", "16", "17", "13", "22"], "time": [2166, 2468, 3668, 3710, 4252, 4402, 6985, 7418, 9949, 10115]}, "edge": {"target": [], "time": []}}, "mouseout": {"state": {"target": ["31", "24", "0", "23", "28", "15", "17", "15", "18", "16", "17", "13", "22"], "time": [665, 698, 2148, 2399, 3241, 3685, 4234, 4285, 6834, 7168, 9899, 10100, 10166]}, "edge": {"target": [], "time": []}}}, "displayed_time": "15.80", "trialTime": 17346, "trial_type": "mouselab-mdp", "trial_index": 22, "time_elapsed": 929829, "internal_node_id": "0.0-6.0-1.0-13.0"}}, {"uniqueid": "w45572613:a45673090", "current_trial": 23, "dateTime": 1693482046804, "trialdata": {"revealed_states": [], "clicked_states": ["27", "6", "22", "20"], "num_clicks_accrued": [0, 0, 0, 0, 0, 0, 0, 0, 0, 0, 0, 0, 0], "stateRewards": ["", 2, -2, 7, -11, -76, -65, -23, 16, -58, 30, 81, 1, 2, 7, 14, 9, 55, -2, 6, 11, -15, 31, -1, -1, -3, 2, 15, 2, 46, 15, 18, 45, -34], "withholdReward": false, "trial_id": "mdp_trial_15", "block": "test", "trialIndex": 16, "score": 38.4, "costs": -8.6, "simulationMode": [null, null, null, null, null], "rewards": [1, 2, 7, 6, 31], "path": ["0", "0", "12", "13", "14", "19", "22"], "rt": [14605, 42, 11, 12, 163], "actions": ["right", "right", "right", "down", "left"], "actionTimes": [16530, 17067, 17590, 18124, 18810], "queries": {"click": {"state": {"target": ["27", "6", "22", "20"], "time": [2969, 6248, 9424, 12673]}, "edge": {"target": [], "time": []}}, "mouseover": {"state": {"target": ["27", "11", "5", "6", "18", "14", "19", "22", "19", "20", "19"], "time": [2556, 3742, 3816, 4209, 7093, 7141, 7191, 7608, 10910, 11509, 14342]}, "edge": {"target": [], "time": []}}, "mouseout": {"state": {"target": ["0", "27", "11", "5", "6", "18", "14", "19", "22", "19", "20", "19", "22"], "time": [1424, 3186, 3759, 3842, 6892, 7108, 7159, 7258, 10893, 10926, 14309, 14395, 14443]}, "edge": {"target": [], "time": []}}}, "displayed_time": "19.31", "trialTime": 21994, "trial_type": "mouselab-mdp", "trial_index": 23, "time_elapsed": 952101, "internal_node_id": "0.0-6.0-1.0-14.0"}}, {"uniqueid": "w45572613:a45673090", "current_trial": 24, "dateTime": 1693482083573, "trialdata": {"revealed_states": [], "clicked_states": ["28", "32", "5", "10", "7", "16", "17", "21"], "num_clicks_accrued": [0, 0, 0, 0, 0, 0, 0, 0, 0, 0, 0, 0, 0], "stateRewards": ["", -1, 4, 3, 12, -27, 34, -33, 3, -63, 1, 6, 2, 2, -6, -11, -77, -85, 68, -6, 51, 81, -60, -2, -2, 1, 15, 20, 15, 68, -10, -14, 6, -4], "withholdReward": false, "trial_id": "mdp_trial_16", "block": "test", "trialIndex": 17, "score": 55.8, "costs": -17.2, "simulationMode": [null, null, null, null, null], "rewards": [2, 2, -6, -6, 81], "path": ["0", "0", "12", "13", "14", "19", "21"], "rt": [30274, 136, 62, 27, 121], "actions": ["right", "right", "right", "down", "down"], "actionTimes": [31823, 32460, 33039, 33568, 34179], "queries": {"click": {"state": {"target": ["28", "32", "5", "10", "7", "16", "17", "21"], "time": [2638, 5747, 8961, 12248, 15481, 19776, 23988, 27231]}, "edge": {"target": [], "time": []}}, "mouseover": {"state": {"target": ["28", "25", "30", "32", "24", "4", "5", "3", "10", "7", "16", "17", "17", "14", "19", "21"], "time": [2270, 3874, 3922, 4073, 6374, 6490, 6857, 10056, 10357, 12996, 19307, 23187, 23471, 25955, 26039, 26322]}, "edge": {"target": [], "time": []}}, "mouseout": {"state": {"target": ["0", "28", "25", "30", "32", "24", "4", "5", "3", "10", "7", "16", "17", "17", "17", "14", "19", "21"], "time": [720, 3738, 3890, 3988, 6341, 6390, 6664, 9706, 10205, 12773, 19039, 23154, 23272, 24211, 25855, 25988, 26188, 30454]}, "edge": {"target": [], "time": []}}}, "displayed_time": "34.69", "trialTime": 36510, "trial_type": "mouselab-mdp", "trial_index": 24, "time_elapsed": 988870, "internal_node_id": "0.0-6.0-1.0-15.0"}}, {"uniqueid": "w45572613:a45673090", "current_trial": 25, "dateTime": 1693482101738, "trialdata": {"revealed_states": [], "clicked_states": ["17", "21", "32"], "num_clicks_accrued": [0, 0, 0, 0, 0, 0, 0, 0, 0, 0, 0, 0, 0], "stateRewards": ["", 2, -4, -8, -15, 71, -43, -41, 7, -17, 20, 67, -1, -1, -4, 6, 37, -24, -47, 9, 34, 57, 45, 1, 2, -4, -5, -23, 88, -5, 13, -40, 43, 44], "withholdReward": false, "trial_id": "mdp_trial_17", "block": "test", "trialIndex": 18, "score": 53.55, "costs": -6.449999999999999, "simulationMode": [null, null, null, null, null], "rewards": [-1, -1, -4, 9, 57], "path": ["0", "0", "12", "13", "14", "19", "21"], "rt": [12321, 77, 29, 73, 26], "actions": ["right", "right", "right", "down", "down"], "actionTimes": [13793, 14388, 14920, 15516, 16033], "queries": {"click": {"state": {"target": ["17", "21", "32"], "time": [3282, 6515, 10448]}, "edge": {"target": [], "time": []}}, "mouseover": {"state": {"target": ["12", "13", "14", "17", "14", "19", "21", "31", "33", "32", "31", "23", "12"], "time": [1873, 2057, 2373, 2855, 4013, 4175, 4708, 7242, 7709, 8007, 11075, 11126, 11225]}, "edge": {"target": [], "time": []}}, "mouseout": {"state": {"target": ["0", "12", "13", "14", "17", "14", "19", "21", "31", "33", "32", "31", "23", "12"], "time": [921, 1955, 2143, 2473, 3908, 4092, 4396, 6735, 7261, 7725, 11042, 11092, 11159, 11292]}, "edge": {"target": [], "time": []}}}, "displayed_time": "16.56", "trialTime": 17910, "trial_type": "mouselab-mdp", "trial_index": 25, "time_elapsed": 1007035, "internal_node_id": "0.0-6.0-1.0-16.0"}}, {"uniqueid": "w45572613:a45673090", "current_trial": 26, "dateTime": 1693482121347, "trialdata": {"revealed_states": [], "clicked_states": ["32", "27", "7"], "num_clicks_accrued": [0, 0, 0, 0, 0, 0, 0, 0, 0, 0, 0, 0, 0], "stateRewards": ["", -1, -3, 3, 5, 56, 39, 50, -1, -80, 33, -46, 1, -2, -6, -8, 87, 48, 54, -11, -20, -64, -54, -2, 3, -7, -3, 12, 88, 35, -16, -46, -70, -3], "withholdReward": false, "trial_id": "mdp_trial_18", "block": "test", "trialIndex": 19, "score": 47.55, "costs": -6.449999999999999, "simulationMode": [null, null, null, null, null], "rewards": [-1, -3, 3, 5, 50], "path": ["0", "0", "1", "2", "3", "4", "7"], "rt": [12263, 69, 103, 271, 130], "actions": ["up", "up", "up", "right", "down"], "actionTimes": [13598, 14193, 14801, 15583, 16220], "queries": {"click": {"state": {"target": ["32", "27", "7"], "time": [2369, 5686, 9521]}, "edge": {"target": [], "time": []}}, "mouseover": {"state": {"target": ["23", "31", "32", "30", "25", "26", "27", "11", "8", "7", "18", "18"], "time": [1645, 1695, 2028, 3798, 3949, 4003, 4366, 6164, 6198, 6514, 10429, 10764]}, "edge": {"target": [], "time": []}}, "mouseout": {"state": {"target": ["0", "23", "31", "32", "30", "25", "26", "27", "11", "8", "7", "18", "18", "1", "23", "0"], "time": [1628, 1662, 1780, 3785, 3815, 3972, 4282, 6129, 6182, 6215, 10246, 10547, 18381, 18446, 18815, 18849]}, "edge": {"target": [], "time": []}}}, "displayed_time": "16.71", "trialTime": 19291, "trial_type": "mouselab-mdp", "trial_index": 26, "time_elapsed": 1026643, "internal_node_id": "0.0-6.0-1.0-17.0"}}, {"uniqueid": "w45572613:a45673090", "current_trial": 27, "dateTime": 1693482140863, "trialdata": {"revealed_states": [], "clicked_states": ["17", "21", "10"], "num_clicks_accrued": [0, 0, 0, 0, 0, 0, 0, 0, 0, 0, 0, 0, 0], "stateRewards": ["", -1, -2, 4, 9, 10, -75, 39, 16, -43, 88, -19, -1, 1, 2, 4, -31, 10, 73, 12, 41, -64, -81, -2, 2, -6, 1, -81, -1, -26, 3, -59, -3, -20], "withholdReward": false, "trial_id": "mdp_trial_19", "block": "test", "trialIndex": 20, "score": 98.55, "costs": -6.449999999999999, "simulationMode": [null, null, null, null, null], "rewards": [-1, -2, 4, 16, 88], "path": ["0", "0", "1", "2", "3", "8", "10"], "rt": [13060, 8, 77, 421, 79], "actions": ["up", "up", "up", "left", "down"], "actionTimes": [14407, 14920, 15505, 16431, 17009], "queries": {"click": {"state": {"target": ["17", "21", "10"], "time": [2974, 6396, 9663]}, "edge": {"target": [], "time": []}}, "mouseover": {"state": {"target": ["12", "13", "14", "17", "14", "19", "21", "1", "2", "8", "10", "28", "24", "31"], "time": [1707, 1879, 2223, 2392, 3577, 3676, 3793, 7028, 7045, 7595, 7783, 11308, 11425, 11608]}, "edge": {"target": [], "time": []}}, "mouseout": {"state": {"target": ["0", "12", "13", "14", "17", "14", "19", "21", "1", "2", "8", "10", "10", "28", "24", "31"], "time": [933, 1810, 1925, 2292, 3443, 3643, 3745, 6944, 7042, 7061, 7658, 9880, 11209, 11376, 11559, 18524]}, "edge": {"target": [], "time": []}}}, "displayed_time": "17.53", "trialTime": 19253, "trial_type": "mouselab-mdp", "trial_index": 27, "time_elapsed": 1046159, "internal_node_id": "0.0-6.0-1.0-18.0"}}, {"uniqueid": "w45572613:a45673090", "current_trial": 28, "dateTime": 1693482162039, "trialdata": {"revealed_states": [], "clicked_states": ["31", "9", "6", "18"], "num_clicks_accrued": [0, 0, 0, 0, 0, 0, 0, 0, 0, 0, 0, 0, 0], "stateRewards": ["", 1, -1, 8, 4, 76, -33, -17, -3, -1, -54, -74, -2, 2, -5, 13, -51, 63, 83, 1, 84, 29, -36, 2, -1, 7, -12, -10, -44, -43, -14, 8, -69, 19], "withholdReward": false, "trial_id": "mdp_trial_20", "block": "test", "trialIndex": 21, "score": 82.4, "costs": -8.6, "simulationMode": [null, null, null, null, null], "rewards": [-2, 2, -5, 13, 83], "path": ["0", "0", "12", "13", "14", "15", "18"], "rt": [14641, 178, 132, 36, 212], "actions": ["right", "right", "right", "up", "left"], "actionTimes": [16131, 16825, 17463, 18020, 18741], "queries": {"click": {"state": {"target": ["31", "9", "6", "18"], "time": [2547, 5805, 9055, 12314]}, "edge": {"target": [], "time": []}}, "mouseover": {"state": {"target": ["31", "31", "8", "9", "5", "5", "6", "16", "18", "13", "22"], "time": [1860, 2193, 3881, 4296, 6480, 6813, 6996, 10316, 10498, 13587, 13732]}, "edge": {"target": [], "time": []}}, "mouseout": {"state": {"target": ["0", "31", "31", "8", "9", "5", "5", "6", "16", "18", "13", "22"], "time": [1793, 1979, 2757, 4112, 6397, 6630, 6846, 10180, 10352, 13533, 13637, 20213]}, "edge": {"target": [], "time": []}}}, "displayed_time": "19.27", "trialTime": 20882, "trial_type": "mouselab-mdp", "trial_index": 28, "time_elapsed": 1067336, "internal_node_id": "0.0-6.0-1.0-19.0"}}, {"uniqueid": "w45572613:a45673090", "current_trial": 29, "dateTime": 1693482186030, "trialdata": {"revealed_states": [], "clicked_states": ["31", "33", "29", "11"], "num_clicks_accrued": [0, 0, 0, 0, 0, 0, 0, 0, 0, 0, 0, 0, 0], "stateRewards": ["", 1, 2, -3, -5, 66, -50, -47, -5, 1, 28, -27, 1, 1, -1, -6, 37, -25, 56, 1, -82, -66, -40, -1, -4, -7, 15, -61, -23, 26, 10, 14, -56, 29], "withholdReward": false, "trial_id": "mdp_trial_21", "block": "test", "trialIndex": 22, "score": 18.4, "costs": -8.6, "simulationMode": [null, null, null, null, null], "rewards": [-1, -4, -7, 10, 29], "path": ["0", "0", "23", "24", "25", "30", "33"], "rt": [16108, 719, 325, 276, 230], "actions": ["left", "left", "left", "down", "left"], "actionTimes": [17880, 19105, 19944, 20711, 21451], "queries": {"click": {"state": {"target": ["31", "33", "29", "11"], "time": [2894, 6251, 10067, 13557]}, "edge": {"target": [], "time": []}}, "mouseover": {"state": {"target": ["23", "31", "30", "33", "29", "27", "11"], "time": [2230, 2530, 3967, 4183, 7049, 10767, 10833]}, "edge": {"target": [], "time": []}}, "mouseout": {"state": {"target": ["0", "23", "31", "30", "33", "29", "27"], "time": [863, 2249, 3126, 4073, 6918, 10717, 10791]}, "edge": {"target": [], "time": []}}}, "displayed_time": "21.95", "trialTime": 23709, "trial_type": "mouselab-mdp", "trial_index": 29, "time_elapsed": 1091327, "internal_node_id": "0.0-6.0-1.0-20.0"}}, {"uniqueid": "w45572613:a45673090", "current_trial": 30, "dateTime": 1693482210326, "trialdata": {"revealed_states": [], "clicked_states": ["27", "11", "7", "21", "17"], "num_clicks_accrued": [0, 0, 0, 0, 0, 0, 0, 0, 0, 0, 0, 0, 0], "stateRewards": ["", 2, 3, -3, 12, -43, 81, -82, -15, 58, -7, -75, -1, -1, 3, -5, 50, -25, -8, 4, 66, 65, -66, 2, -4, 2, -1, -10, 10, 37, 11, 88, -37, 8], "withholdReward": false, "trial_id": "mdp_trial_22", "block": "test", "trialIndex": 23, "score": 59.25, "costs": -10.75, "simulationMode": [null, null, null, null, null], "rewards": [-1, -1, 3, 4, 65], "path": ["0", "0", "12", "13", "14", "19", "21"], "rt": [17479, 80, 41, 3, 65], "actions": ["right", "right", "right", "down", "down"], "actionTimes": [19402, 19985, 20525, 21042, 21615], "queries": {"click": {"state": {"target": ["27", "11", "7", "21", "17"], "time": [3563, 6758, 9887, 13061, 16221]}, "edge": {"target": [], "time": []}}, "mouseover": {"state": {"target": ["23", "24", "28", "27", "11", "11", "8", "2", "7", "13", "19", "21", "19", "14", "17", "15", "13", "22"], "time": [2281, 2481, 2867, 3247, 4201, 4501, 7255, 7585, 7751, 10751, 10786, 10834, 13867, 13951, 14353, 16951, 17034, 17202]}, "edge": {"target": [], "time": []}}, "mouseout": {"state": {"target": ["11", "10", "0", "0", "23", "24", "28", "27", "11", "11", "11", "8", "2", "7", "13", "19", "21", "19", "14", "17", "15", "13", "22"], "time": [847, 898, 947, 1280, 2347, 2600, 2898, 4167, 4334, 6975, 7234, 7303, 7718, 10618, 10768, 10802, 13835, 13901, 14003, 16934, 16966, 17119, 17335]}, "edge": {"target": [], "time": []}}}, "displayed_time": "22.12", "trialTime": 23790, "trial_type": "mouselab-mdp", "trial_index": 30, "time_elapsed": 1115623, "internal_node_id": "0.0-6.0-1.0-21.0"}}, {"uniqueid": "w45572613:a45673090", "current_trial": 31, "dateTime": 1693482250972, "trialdata": {"revealed_states": [], "clicked_states": ["32", "27", "29", "28", "33", "31", "20", "5", "9", "10"], "num_clicks_accrued": [0, 0, 0, 0, 0, 0, 0, 0, 0, 0, 0, 0, 0], "stateRewards": ["", 1, 2, -3, -6, 50, -7, 7, -7, -80, 21, -1, 2, 2, 4, -1, 33, 84, 1, 14, -53, 81, 6, -2, -2, -3, -9, -87, -38, -59, -5, -74, -3, -71], "withholdReward": false, "trial_id": "mdp_trial_23", "block": "test", "trialIndex": 24, "score": 22.500000000000004, "costs": -21.499999999999996, "simulationMode": [null, null, null, null, null], "rewards": [1, 2, -3, -6, 50], "path": ["0", "0", "1", "2", "3", "4", "5"], "rt": [33929, 73, 16, 62, 1168], "actions": ["up", "up", "up", "right", "up"], "actionTimes": [35516, 36095, 36614, 37194, 38885], "queries": {"click": {"state": {"target": ["32", "27", "29", "28", "33", "31", "20", "5", "9", "10"], "time": [2653, 5892, 9088, 12309, 15562, 18826, 22101, 25372, 28822, 32065]}, "edge": {"target": [], "time": []}}, "mouseover": {"state": {"target": ["31", "32", "30", "25", "26", "27", "29", "26", "28", "24", "25", "33", "30", "31", "20", "15", "16", "6", "5", "9", "8", "10", "2", "7"], "time": [2083, 2179, 3399, 3447, 3498, 3748, 6432, 9549, 9899, 13366, 13399, 13515, 16232, 16549, 19566, 22847, 22948, 23098, 23532, 26998, 29781, 30032, 33564, 33718]}, "edge": {"target": [], "time": []}}, "mouseout": {"state": {"target": ["0", "31", "32", "30", "25", "26", "27", "29", "26", "28", "24", "25", "33", "30", "31", "20", "15", "16", "6", "5", "9", "8", "10", "2", "7"], "time": [2031, 2113, 2869, 3432, 3466, 3532, 6399, 9515, 9648, 13166, 13381, 13416, 15797, 16316, 19436, 22730, 22865, 23031, 23480, 26632, 29681, 29832, 32287, 33617, 33748]}, "edge": {"target": [], "time": []}}}, "displayed_time": "39.38", "trialTime": 40350, "trial_type": "mouselab-mdp", "trial_index": 31, "time_elapsed": 1156269, "internal_node_id": "0.0-6.0-1.0-22.0"}}, {"uniqueid": "w45572613:a45673090", "current_trial": 32, "dateTime": 1693482278189, "trialdata": {"revealed_states": [], "clicked_states": ["17", "21", "16", "20", "5", "11"], "num_clicks_accrued": [0, 0, 0, 0, 0, 0, 0, 0, 0, 0, 0, 0, 0], "stateRewards": ["", -2, 1, -7, -8, -37, -76, -87, 11, 30, -63, 80, -1, 4, 2, -1, 42, 17, 52, -3, -75, -80, -68, 2, -3, -5, -15, -48, 82, 24, -7, 5, -22, -71], "withholdReward": false, "trial_id": "mdp_trial_24", "block": "test", "trialIndex": 25, "score": 70.1, "costs": -12.9, "simulationMode": [null, null, null, null, null], "rewards": [-2, 1, -7, 11, 80], "path": ["0", "0", "1", "2", "3", "8", "11"], "rt": [21292, 149, 85, 269, 87], "actions": ["up", "up", "up", "left", "left"], "actionTimes": [22656, 23297, 23897, 24668, 25250], "queries": {"click": {"state": {"target": ["17", "21", "16", "20", "5", "11"], "time": [2323, 5466, 8640, 12073, 15233, 18483]}, "edge": {"target": [], "time": []}}, "mouseover": {"state": {"target": ["18", "15", "17", "21", "13", "18", "16", "14", "20", "5", "5", "4", "3", "8", "11", "8", "3", "4", "6"], "time": [1728, 1796, 2028, 3579, 6294, 6444, 6628, 9864, 10168, 12680, 13098, 16045, 16231, 16313, 16412, 19277, 19334, 19384, 20015]}, "edge": {"target": [], "time": []}}, "mouseout": {"state": {"target": ["0", "18", "15", "17", "21", "13", "18", "16", "14", "20", "5", "5", "5", "4", "3", "8", "11", "8", "3", "4"], "time": [1673, 1744, 1830, 3130, 6212, 6360, 6594, 9646, 9897, 12289, 12697, 15455, 15978, 16078, 16279, 16363, 19236, 19303, 19353, 19581]}, "edge": {"target": [], "time": []}}}, "displayed_time": "25.75", "trialTime": 26882, "trial_type": "mouselab-mdp", "trial_index": 32, "time_elapsed": 1183486, "internal_node_id": "0.0-6.0-1.0-23.0"}}, {"uniqueid": "w45572613:a45673090", "current_trial": 33, "dateTime": 1693482312171, "trialdata": {"revealed_states": [], "clicked_states": ["20", "16", "10", "7", "33", "31", "32", "27"], "num_clicks_accrued": [0, 0, 0, 0, 0, 0, 0, 0, 0, 0, 0, 0, 0], "stateRewards": ["", 1, 3, 3, -10, 52, 68, 59, 12, 7, 49, 21, -2, -3, -4, -2, -2, 63, 63, -4, 44, 43, -76, -2, -3, -6, 13, 48, 36, 12, -5, -36, -33, -11], "withholdReward": false, "trial_id": "mdp_trial_25", "block": "test", "trialIndex": 26, "score": 50.8, "costs": -17.2, "simulationMode": [null, null, null, null, null], "rewards": [1, 3, 3, 12, 49], "path": ["0", "0", "1", "2", "3", "8", "10"], "rt": [27743, 101, 62, 169, 109], "actions": ["up", "up", "up", "left", "down"], "actionTimes": [29178, 29783, 30345, 31018, 31624], "queries": {"click": {"state": {"target": ["20", "16", "10", "7", "33", "31", "32", "27"], "time": [2469, 5638, 8855, 12170, 15315, 18602, 22247, 25768]}, "edge": {"target": [], "time": []}}, "mouseover": {"state": {"target": ["20", "15", "6", "16", "4", "3", "8", "10", "2", "7", "24", "25", "33", "31", "32", "31", "25", "26", "27", "24"], "time": [2163, 3249, 3425, 3615, 6313, 6419, 6483, 6730, 10199, 10616, 13348, 13450, 13749, 16314, 21912, 24632, 24749, 24881, 25130, 26572]}, "edge": {"target": [], "time": []}}, "mouseout": {"state": {"target": ["6", "4", "2", "10", "1", "0", "20", "15", "6", "16", "4", "3", "8", "10", "2", "7", "24", "25", "33", "31", "32", "31", "25", "26", "27", "24"], "time": [329, 363, 445, 579, 649, 1682, 3215, 3299, 3535, 6230, 6395, 6464, 6646, 10166, 10315, 13165, 13402, 13471, 16147, 21330, 23413, 24647, 24848, 24930, 26501, 26632]}, "edge": {"target": [], "time": []}}}, "displayed_time": "32.12", "trialTime": 33533, "trial_type": "mouselab-mdp", "trial_index": 33, "time_elapsed": 1217468, "internal_node_id": "0.0-6.0-1.0-24.0"}}, {"uniqueid": "w45572613:a45673090", "current_trial": 34, "dateTime": 1693482332975, "trialdata": {"revealed_states": [], "clicked_states": ["17", "18", "7", "31"], "num_clicks_accrued": [0, 0, 0, 0, 0, 0, 0, 0, 0, 0, 0, 0, 0], "stateRewards": ["", 1, 4, 5, -5, 58, -80, 75, 6, 25, -39, 46, 2, -2, 4, 2, 59, 31, -22, -12, -61, 15, 72, 1, -2, -7, 8, 77, 76, -23, -7, 71, -15, -3], "withholdReward": false, "trial_id": "mdp_trial_26", "block": "test", "trialIndex": 27, "score": 71.4, "costs": -8.6, "simulationMode": [null, null, null, null, null], "rewards": [1, 4, 5, -5, 75], "path": ["0", "0", "1", "2", "3", "4", "7"], "rt": [14400, 177, 108, 192, 114], "actions": ["up", "up", "up", "right", "down"], "actionTimes": [15963, 16631, 17239, 17929, 18539], "queries": {"click": {"state": {"target": ["17", "18", "7", "31"], "time": [2529, 5758, 9144, 12326]}, "edge": {"target": [], "time": []}}, "mouseover": {"state": {"target": ["18", "15", "17", "15", "18", "7", "23", "24", "31"], "time": [1867, 1935, 2185, 3656, 4002, 6785, 9987, 10154, 10286]}, "edge": {"target": [], "time": []}}, "mouseout": {"state": {"target": ["18", "15", "17", "15", "18", "7", "23", "24", "31"], "time": [1901, 1985, 3629, 3864, 6403, 9375, 10022, 10170, 13287]}, "edge": {"target": [], "time": []}}}, "displayed_time": "19.04", "trialTime": 20459, "trial_type": "mouselab-mdp", "trial_index": 34, "time_elapsed": 1238271, "internal_node_id": "0.0-6.0-1.0-25.0"}}, {"uniqueid": "w45572613:a45673090", "current_trial": 35, "dateTime": 1693482384906, "trialdata": {"revealed_states": [], "clicked_states": ["31", "27", "11", "7", "22", "21", "33", "29", "9", "5", "6", "17", "16"], "num_clicks_accrued": [0, 0, 0, 0, 0, 0, 0, 0, 0, 0, 0, 0, 0], "stateRewards": ["", 1, 4, -8, -5, -15, -7, 21, 13, -30, 40, -65, 1, 1, 5, -14, 35, 27, -38, -11, 36, -58, -47, -2, 4, -3, 13, -16, -49, 22, 15, -56, -44, -10], "withholdReward": false, "trial_id": "mdp_trial_27", "block": "test", "trialIndex": 28, "score": 0.05000000000001137, "costs": -27.949999999999992, "simulationMode": [null, null, null, null, null], "rewards": [1, 1, 5, -14, 35], "path": ["0", "0", "12", "13", "14", "15", "16"], "rt": [44824, 145, 77, 86, 67], "actions": ["right", "right", "right", "up", "up"], "actionTimes": [46457, 47111, 47708, 48313, 48896], "queries": {"click": {"state": {"target": ["31", "27", "11", "7", "22", "21", "33", "29", "9", "5", "6", "17", "16"], "time": [2674, 5958, 9162, 12342, 15594, 18942, 22238, 25545, 28767, 32120, 35440, 38675, 42022]}, "edge": {"target": [], "time": []}}, "mouseover": {"state": {"target": ["23", "31", "27", "11", "8", "3", "7", "13", "22", "21", "33", "33", "29", "9", "5", "6", "16", "17", "16", "15", "20"], "time": [2041, 2325, 4127, 6661, 9544, 9593, 9693, 13477, 13562, 16561, 20365, 20759, 24494, 27128, 29980, 34311, 36914, 36994, 39695, 43161, 43828]}, "edge": {"target": [], "time": []}}, "mouseout": {"state": {"target": ["0", "23", "31", "27", "11", "8", "3", "7", "7", "13", "22", "21", "33", "33", "29", "9", "5", "5", "6", "16", "17", "16", "15", "20", "19"], "time": [1992, 2192, 2903, 6444, 9543, 9577, 9611, 12565, 13312, 13511, 16462, 19710, 20426, 22442, 26678, 29795, 32344, 34029, 36853, 36927, 38900, 43098, 43295, 50662, 50729]}, "edge": {"target": [], "time": []}}}, "displayed_time": "49.40", "trialTime": 51629, "trial_type": "mouselab-mdp", "trial_index": 35, "time_elapsed": 1290202, "internal_node_id": "0.0-6.0-1.0-26.0"}}, {"uniqueid": "w45572613:a45673090", "current_trial": 36, "dateTime": 1693482408982, "trialdata": {"revealed_states": [], "clicked_states": ["33", "27", "28", "20", "16"], "num_clicks_accrued": [0, 0, 0, 0, 0, 0, 0, 0, 0, 0, 0, 0, 0], "stateRewards": ["", -1, 3, 1, -7, 56, 76, 57, 3, 11, -9, 14, 1, -2, 2, 8, -77, -3, 79, -5, 88, 24, -66, -2, -1, 7, -7, -30, 14, -76, 11, -36, 28, -6], "withholdReward": false, "trial_id": "mdp_trial_28", "block": "test", "trialIndex": 29, "score": 73.25, "costs": -10.75, "simulationMode": [null, null, null, null, null], "rewards": [1, -2, 2, -5, 88], "path": ["0", "0", "12", "13", "14", "19", "20"], "rt": [16903, 527, 203, 172, 173], "actions": ["right", "right", "right", "down", "right"], "actionTimes": [18950, 19985, 20709, 21376, 22048], "queries": {"click": {"state": {"target": ["33", "27", "28", "20", "16"], "time": [3040, 6247, 9723, 12956, 16100]}, "edge": {"target": [], "time": []}}, "mouseover": {"state": {"target": ["25", "33", "29", "27", "28", "24", "31", "20", "16", "18"], "time": [2456, 2685, 3688, 3920, 7021, 10690, 10857, 11439, 14319, 16989]}, "edge": {"target": [], "time": []}}, "mouseout": {"state": {"target": ["0", "25", "33", "29", "27", "28", "24", "31", "20", "16", "16", "18"], "time": [1152, 2635, 3570, 3705, 6905, 10623, 10795, 11339, 13887, 16328, 16920, 17169]}, "edge": {"target": [], "time": []}}}, "displayed_time": "22.56", "trialTime": 23698, "trial_type": "mouselab-mdp", "trial_index": 36, "time_elapsed": 1314278, "internal_node_id": "0.0-6.0-1.0-27.0"}}, {"uniqueid": "w45572613:a45673090", "current_trial": 37, "dateTime": 1693482425439, "trialdata": {"revealed_states": [], "clicked_states": ["31"], "num_clicks_accrued": [0, 0, 0, 0, 0, 0, 0, 0, 0, 0, 0, 0, 0], "stateRewards": ["", 2, 4, 4, -8, -36, -33, 38, 16, -51, 57, 57, 1, 3, 4, -6, 45, 68, 87, 1, 63, 24, -55, -2, 2, -6, -13, -63, -50, 8, 2, 80, 6, 60], "withholdReward": false, "trial_id": "mdp_trial_29", "block": "test", "trialIndex": 30, "score": 73.85, "costs": -2.15, "simulationMode": [null, null, null, null, null], "rewards": [-2, 2, -6, 2, 80], "path": ["0", "0", "23", "24", "25", "30", "31"], "rt": [4891, 146, 118, 57, 149], "actions": ["left", "left", "left", "down", "right"], "actionTimes": [6311, 6964, 7584, 8142, 8805], "queries": {"click": {"state": {"target": ["31"], "time": [2187]}, "edge": {"target": [], "time": []}}, "mouseover": {"state": {"target": ["23", "31", "24", "27"], "time": [1679, 1830, 2983, 3483]}, "edge": {"target": [], "time": []}}, "mouseout": {"state": {"target": ["12", "0", "23", "31", "24", "27", "28", "23"], "time": [596, 1655, 1698, 2405, 3016, 10700, 10782, 10847]}, "edge": {"target": [], "time": []}}}, "displayed_time": "15.42", "trialTime": 16051, "trial_type": "mouselab-mdp", "trial_index": 37, "time_elapsed": 1330736, "internal_node_id": "0.0-6.0-1.0-28.0"}}, {"uniqueid": "w45572613:a45673090", "current_trial": 38, "dateTime": 1693482446084, "trialdata": {"revealed_states": [], "clicked_states": ["6", "17", "22"], "num_clicks_accrued": [0, 0, 0, 0, 0, 0, 0, 0, 0, 0, 0, 0, 0], "stateRewards": ["", 2, 4, 7, 7, -79, -2, -21, -5, -53, 47, -21, 1, -3, -1, 7, 83, 7, 84, -7, 80, -37, 69, 2, -4, 5, 2, 4, -20, -30, 7, 71, 44, -81], "withholdReward": false, "trial_id": "mdp_trial_30", "block": "test", "trialIndex": 31, "score": 52.55, "costs": -6.449999999999999, "simulationMode": [null, null, null, null, null], "rewards": [1, -3, -1, -7, 69], "path": ["0", "0", "12", "13", "14", "19", "22"], "rt": [12097, 49, 95, 65, 457], "actions": ["right", "right", "right", "down", "left"], "actionTimes": [13383, 13950, 14560, 15132, 16089], "queries": {"click": {"state": {"target": ["6", "17", "22"], "time": [2536, 5787, 9175]}, "edge": {"target": [], "time": []}}, "mouseover": {"state": {"target": ["7", "6", "16", "17", "15", "13", "13", "22", "24", "31"], "time": [1695, 2096, 3215, 3516, 6419, 6983, 7603, 7787, 9784, 10264]}, "edge": {"target": [], "time": []}}, "mouseout": {"state": {"target": ["0", "7", "6", "16", "17", "15", "13", "13", "22", "24"], "time": [728, 1779, 3166, 3265, 6403, 6435, 7050, 7704, 9397, 9837]}, "edge": {"target": [], "time": []}}}, "displayed_time": "16.60", "trialTime": 20295, "trial_type": "mouselab-mdp", "trial_index": 38, "time_elapsed": 1351381, "internal_node_id": "0.0-6.0-1.0-29.0"}}, {"uniqueid": "w45572613:a45673090", "current_trial": 39, "dateTime": 1693482464023, "trialdata": {"revealed_states": [], "clicked_states": ["20", "17"], "num_clicks_accrued": [0, 0, 0, 0, 0, 0, 0, 0, 0, 0, 0, 0, 0], "stateRewards": ["", 1, 4, 5, 8, -55, -11, 8, 16, -37, 77, -22, -2, 3, -8, -10, 45, 87, -67, 4, 17, -33, -22, -1, -3, 7, 6, -39, -85, 75, -1, 7, -48, 45], "withholdReward": false, "trial_id": "mdp_trial_31", "block": "test", "trialIndex": 32, "score": 65.7, "costs": -4.3, "simulationMode": [null, null, null, null, null], "rewards": [-2, 3, -8, -10, 87], "path": ["0", "0", "12", "13", "14", "15", "17"], "rt": [8666, 52, 54, 39, 104], "actions": ["right", "right", "right", "up", "right"], "actionTimes": [10228, 10781, 11363, 11899, 12498], "queries": {"click": {"state": {"target": ["20", "17"], "time": [2420, 5805]}, "edge": {"target": [], "time": []}}, "mouseover": {"state": {"target": ["14", "20", "17", "15", "18", "28", "33"], "time": [1871, 1953, 3625, 6506, 6525, 6608, 7007]}, "edge": {"target": [], "time": []}}, "mouseout": {"state": {"target": ["31", "24", "14", "20", "17", "15", "18", "28", "33"], "time": [615, 653, 1905, 3258, 6491, 6524, 6539, 6623, 16238]}, "edge": {"target": [], "time": []}}}, "displayed_time": "15.56", "trialTime": 17492, "trial_type": "mouselab-mdp", "trial_index": 39, "time_elapsed": 1369320, "internal_node_id": "0.0-6.0-1.0-30.0"}}, {"uniqueid": "w45572613:a45673090", "current_trial": 40, "dateTime": 1693482480514, "trialdata": {"revealed_states": [], "clicked_states": ["32"], "num_clicks_accrued": [0, 0, 0, 0, 0, 0, 0, 0, 0, 0, 0, 0, 0], "stateRewards": ["", 2, 3, -2, -8, -8, -41, 74, 15, -23, -80, 1, 1, 3, 3, -15, -63, -78, 67, 13, 75, -41, 86, 2, -2, 6, -3, -8, -49, 50, -6, 83, 74, 80], "withholdReward": false, "trial_id": "mdp_trial_32", "block": "test", "trialIndex": 33, "score": 71.85, "costs": -2.15, "simulationMode": [null, null, null, null, null], "rewards": [2, -2, 6, -6, 74], "path": ["0", "0", "23", "24", "25", "30", "32"], "rt": [5450, 70, 336, 90, 135], "actions": ["left", "left", "left", "down", "down"], "actionTimes": [7109, 7670, 8518, 9140, 9766], "queries": {"click": {"state": {"target": ["32"], "time": [2750]}, "edge": {"target": [], "time": []}}, "mouseover": {"state": {"target": ["0", "23", "31", "32", "30", "26", "27", "27", "28", "23"], "time": [2008, 2030, 2065, 2313, 3516, 3567, 3595, 3987, 6413, 6500]}, "edge": {"target": [], "time": []}}, "mouseout": {"state": {"target": ["0", "0", "23", "31", "32", "30", "26", "27", "27", "28", "23", "0"], "time": [896, 2025, 2043, 2229, 3498, 3533, 3590, 3607, 6379, 6429, 11746, 11813]}, "edge": {"target": [], "time": []}}}, "displayed_time": "15.66", "trialTime": 16108, "trial_type": "mouselab-mdp", "trial_index": 40, "time_elapsed": 1385811, "internal_node_id": "0.0-6.0-1.0-31.0"}}, {"uniqueid": "w45572613:a45673090", "current_trial": 41, "dateTime": 1693482503756, "trialdata": {"revealed_states": [], "clicked_states": ["33", "31", "21", "16"], "num_clicks_accrued": [0, 0, 0, 0, 0, 0, 0, 0, 0, 0, 0, 0, 0], "stateRewards": ["", -1, 3, 8, 10, -86, 61, -36, 10, 17, -60, 24, -1, -3, 3, 11, 50, 60, 33, -3, -20, 58, -6, 1, -4, -4, 13, -70, -71, 43, 14, 52, 82, -11], "withholdReward": false, "trial_id": "mdp_trial_33", "block": "test", "trialIndex": 34, "score": 45.4, "costs": -8.6, "simulationMode": [null, null, null, null, null], "rewards": [-1, -3, 3, -3, 58], "path": ["0", "0", "12", "13", "14", "19", "21"], "rt": [16099, 460, 235, 4, 102], "actions": ["right", "right", "right", "down", "down"], "actionTimes": [17544, 18497, 19238, 19758, 20390], "queries": {"click": {"state": {"target": ["33", "31", "21", "16"], "time": [2441, 6108, 9293, 12628]}, "edge": {"target": [], "time": []}}, "mouseover": {"state": {"target": ["23", "24", "25", "33", "33", "24", "31", "21", "21", "19", "14", "15", "16"], "time": [1600, 1650, 1716, 1801, 2116, 3070, 3470, 6584, 7084, 9753, 9788, 9837, 10311]}, "edge": {"target": [], "time": []}}, "mouseout": {"state": {"target": ["12", "0", "23", "24", "25", "33", "33", "24", "31", "21", "21", "19", "14", "15", "16", "1", "23"], "time": [667, 1584, 1618, 1683, 1750, 1849, 3040, 3087, 6467, 6634, 9737, 9775, 9820, 10070, 22049, 22135, 22382]}, "edge": {"target": [], "time": []}}}, "displayed_time": "20.89", "trialTime": 22853, "trial_type": "mouselab-mdp", "trial_index": 41, "time_elapsed": 1409053, "internal_node_id": "0.0-6.0-1.0-32.0"}}, {"uniqueid": "w45572613:a45673090", "current_trial": 42, "dateTime": 1693482526618, "trialdata": {"revealed_states": [], "clicked_states": ["16", "21", "33", "29"], "num_clicks_accrued": [0, 0, 0, 0, 0, 0, 0, 0, 0, 0, 0, 0, 0], "stateRewards": ["", 2, -2, -8, 9, -20, 55, -58, 14, 42, 2, 36, 1, -3, -5, 5, -58, 57, 60, 16, 57, 30, -70, -2, 1, 3, 10, 59, 23, 77, -13, -26, 88, -72], "withholdReward": false, "trial_id": "mdp_trial_34", "block": "test", "trialIndex": 35, "score": 80.4, "costs": -8.6, "simulationMode": [null, null, null, null, null], "rewards": [-2, 1, 3, 10, 77], "path": ["0", "0", "23", "24", "25", "26", "29"], "rt": [15221, 151, 56, 393, 230], "actions": ["left", "left", "left", "up", "left"], "actionTimes": [17086, 17744, 18315, 19220, 19956], "queries": {"click": {"state": {"target": ["16", "21", "33", "29"], "time": [2859, 6134, 9430, 12728]}, "edge": {"target": [], "time": []}}, "mouseover": {"state": {"target": ["16", "16", "15", "14", "19", "21", "25", "33", "29", "29", "11", "9", "5", "5"], "time": [2373, 2521, 3439, 3506, 3588, 4156, 6839, 7611, 9957, 10374, 13174, 13208, 13291, 13675]}, "edge": {"target": [], "time": []}}, "mouseout": {"state": {"target": ["0", "16", "16", "16", "15", "14", "19", "21", "25", "33", "29", "29", "11", "9", "5", "5"], "time": [2071, 2458, 3077, 3406, 3473, 3555, 3688, 6350, 6872, 9662, 10010, 12960, 13191, 13225, 13374, 16289]}, "edge": {"target": [], "time": []}}}, "displayed_time": "20.46", "trialTime": 22404, "trial_type": "mouselab-mdp", "trial_index": 42, "time_elapsed": 1431915, "internal_node_id": "0.0-6.0-1.0-33.0"}}, {"uniqueid": "w45572613:a45673090", "current_trial": 43, "dateTime": 1693482542824, "trialdata": {"revealed_states": [], "clicked_states": ["29", "31"], "num_clicks_accrued": [0, 0, 0, 0, 0, 0, 0, 0, 0, 0, 0, 0, 0], "stateRewards": ["", 2, 2, 3, -15, 23, -14, 73, -7, -32, -20, -6, 1, 1, -5, -12, 73, 6, -84, 11, -81, -57, 13, -2, -1, -4, -8, -52, -58, 49, 13, 5, -41, -41], "withholdReward": false, "trial_id": "mdp_trial_35", "block": "test", "trialIndex": 36, "score": 29.7, "costs": -4.3, "simulationMode": [null, null, null, null, null], "rewards": [-2, -1, -4, -8, 49], "path": ["0", "0", "23", "24", "25", "26", "29"], "rt": [7723, 91, 71, 172, 279], "actions": ["left", "left", "left", "up", "left"], "actionTimes": [9224, 9818, 10403, 11099, 11872], "queries": {"click": {"state": {"target": ["29", "31"], "time": [2524, 6030]}, "edge": {"target": [], "time": []}}, "mouseover": {"state": {"target": ["23", "26", "29", "26", "23", "31"], "time": [1789, 1871, 2171, 3297, 3409, 4012]}, "edge": {"target": [], "time": []}}, "mouseout": {"state": {"target": ["0", "23", "26", "29", "26", "23", "31"], "time": [1773, 1823, 2005, 3293, 3327, 3445, 6865]}, "edge": {"target": [], "time": []}}}, "displayed_time": "15.50", "trialTime": 15810, "trial_type": "mouselab-mdp", "trial_index": 43, "time_elapsed": 1448120, "internal_node_id": "0.0-6.0-1.0-34.0"}}, {"uniqueid": "w45572613:a45673090", "current_trial": 44, "dateTime": 1693482562818, "trialdata": {"revealed_states": [], "clicked_states": ["17", "21", "5"], "num_clicks_accrued": [0, 0, 0, 0, 0, 0, 0, 0, 0, 0, 0, 0, 0], "stateRewards": ["", -2, 1, -8, 12, -65, -79, 16, 7, -80, -17, -45, -2, 2, -5, -2, -85, 23, -4, -7, 48, 27, -76, 2, 3, 5, 2, 43, 71, -13, 7, -49, 59, -31], "withholdReward": false, "trial_id": "mdp_trial_36", "block": "test", "trialIndex": 37, "score": 8.55, "costs": -6.449999999999999, "simulationMode": [null, null, null, null, null], "rewards": [-2, 2, -5, -7, 27], "path": ["0", "0", "12", "13", "14", "19", "21"], "rt": [12346, 667, 200, 66, 220], "actions": ["right", "right", "right", "down", "down"], "actionTimes": [13801, 14981, 15682, 16268, 16987], "queries": {"click": {"state": {"target": ["17", "21", "5"], "time": [2854, 6214, 9663]}, "edge": {"target": [], "time": []}}, "mouseover": {"state": {"target": ["12", "13", "13", "14", "15", "17", "19", "21", "13", "18", "7", "4", "5", "4", "15", "14"], "time": [1662, 1730, 2048, 2084, 2379, 2477, 4047, 4247, 6813, 6832, 6863, 6897, 6964, 11930, 12214, 12981]}, "edge": {"target": [], "time": []}}, "mouseout": {"state": {"target": ["0", "12", "13", "13", "14", "15", "17", "19", "21", "13", "18", "7", "4", "5", "4", "15", "14", "14", "13"], "time": [1645, 1714, 1972, 2065, 2345, 2395, 3931, 4113, 6431, 6830, 6850, 6880, 6931, 11663, 11963, 12949, 12997, 19045, 19148]}, "edge": {"target": [], "time": []}}}, "displayed_time": "17.48", "trialTime": 19527, "trial_type": "mouselab-mdp", "trial_index": 44, "time_elapsed": 1468115, "internal_node_id": "0.0-6.0-1.0-35.0"}}, {"uniqueid": "w45572613:a45673090", "current_trial": 45, "dateTime": 1693482587739, "trialdata": {"revealed_states": [], "clicked_states": ["31", "32", "21", "7", "10"], "num_clicks_accrued": [0, 0, 0, 0, 0, 0, 0, 0, 0, 0, 0, 0, 0], "stateRewards": ["", -2, 4, 3, 5, -61, 4, 30, 1, -47, 83, 10, 1, 4, 7, -14, 19, -74, -83, 6, -2, -2, -65, -1, -2, 4, -11, 12, -1, -68, 11, -38, -28, 66], "withholdReward": false, "trial_id": "mdp_trial_37", "block": "test", "trialIndex": 38, "score": 78.25, "costs": -10.75, "simulationMode": [null, null, null, null, null], "rewards": [-2, 4, 3, 1, 83], "path": ["0", "0", "1", "2", "3", "8", "10"], "rt": [18279, 88, 55, 273, 140], "actions": ["up", "up", "up", "left", "down"], "actionTimes": [19790, 20381, 20949, 21725, 22367], "queries": {"click": {"state": {"target": ["31", "32", "21", "7", "10"], "time": [2405, 5692, 8944, 12217, 15663]}, "edge": {"target": [], "time": []}}, "mouseover": {"state": {"target": ["0", "31", "32", "12", "13", "20", "21", "19", "14", "15", "16", "7", "2", "10"], "time": [1699, 2043, 3521, 6146, 6165, 6295, 6478, 9432, 9463, 9511, 9595, 10378, 13060, 13561]}, "edge": {"target": [], "time": []}}, "mouseout": {"state": {"target": ["12", "0", "23", "0", "0", "31", "32", "12", "13", "20", "21", "19", "14", "15", "16", "7", "2", "10"], "time": [508, 557, 808, 966, 1709, 3231, 6044, 6161, 6188, 6361, 9429, 9446, 9494, 9563, 9611, 13047, 13111, 17661]}, "edge": {"target": [], "time": []}}}, "displayed_time": "22.86", "trialTime": 24512, "trial_type": "mouselab-mdp", "trial_index": 45, "time_elapsed": 1493036, "internal_node_id": "0.0-6.0-1.0-36.0"}}, {"uniqueid": "w45572613:a45673090", "current_trial": 46, "dateTime": 1693482619521, "trialdata": {"revealed_states": [], "clicked_states": ["29", "17", "21", "6", "20", "10", "9"], "num_clicks_accrued": [0, 0, 0, 0, 0, 0, 0, 0, 0, 0, 0, 0, 0], "stateRewards": ["", 2, -1, -1, -9, -81, -30, 55, -6, 78, 25, 62, 2, 4, -1, 9, -85, 1, -19, 1, -60, 12, -34, 1, 4, -1, -13, -24, -16, -83, -8, 16, 43, 9], "withholdReward": false, "trial_id": "mdp_trial_38", "block": "test", "trialIndex": 39, "score": 56.95, "costs": -15.05, "simulationMode": [null, null, null, null, null], "rewards": [2, -1, -1, -6, 78], "path": ["0", "0", "1", "2", "3", "8", "9"], "rt": [24320, 19, 788, 239, 247], "actions": ["up", "up", "up", "left", "up"], "actionTimes": [25863, 26403, 27689, 28423, 29167], "queries": {"click": {"state": {"target": ["29", "17", "21", "6", "20", "10", "9"], "time": [2525, 5747, 9028, 12277, 15582, 18871, 22149]}, "edge": {"target": [], "time": []}}, "mouseover": {"state": {"target": ["28", "26", "29", "26", "1", "14", "17", "21", "18", "6", "15", "20", "13", "12", "1", "27", "10", "8", "9", "3"], "time": [1881, 1965, 2181, 2970, 3001, 3068, 3385, 6753, 9771, 10283, 12901, 13288, 16141, 16168, 16199, 16740, 17235, 20149, 20534, 23648]}, "edge": {"target": [], "time": []}}, "mouseout": {"state": {"target": ["2", "7", "28", "26", "29", "26", "1", "14", "17", "21", "18", "6", "15", "20", "13", "12", "1", "27", "10", "8", "9", "3"], "time": [580, 647, 1931, 2047, 2967, 2984, 3018, 3351, 6350, 9688, 9820, 12852, 12918, 15799, 16152, 16182, 16217, 17144, 20117, 20165, 23633, 23698]}, "edge": {"target": [], "time": []}}}, "displayed_time": "29.68", "trialTime": 31417, "trial_type": "mouselab-mdp", "trial_index": 46, "time_elapsed": 1524818, "internal_node_id": "0.0-6.0-1.0-37.0"}}, {"uniqueid": "w45572613:a45673090", "current_trial": 47, "dateTime": 1693482635930, "trialdata": {"revealed_states": [], "clicked_states": ["32"], "num_clicks_accrued": [0, 0, 0, 0, 0, 0, 0, 0, 0, 0, 0, 0, 0], "stateRewards": ["", 2, -1, 5, 6, 10, 86, 55, 10, -45, 63, -71, 1, -2, 5, -8, -50, -72, 36, 15, 61, 12, 33, -1, -4, 6, 5, 79, -56, -21, -16, -87, 60, -81], "withholdReward": false, "trial_id": "mdp_trial_39", "block": "test", "trialIndex": 40, "score": 42.85, "costs": -2.15, "simulationMode": [null, null, null, null, null], "rewards": [-1, -4, 6, -16, 60], "path": ["0", "0", "23", "24", "25", "30", "32"], "rt": [5166, 169, 147, 54, 80], "actions": ["left", "left", "left", "down", "down"], "actionTimes": [6586, 7262, 7907, 8465, 9075], "queries": {"click": {"state": {"target": ["32"], "time": [2313]}, "edge": {"target": [], "time": []}}, "mouseover": {"state": {"target": ["31", "32", "30", "26", "27", "24"], "time": [1724, 1874, 2996, 3171, 3293, 5907]}, "edge": {"target": [], "time": []}}, "mouseout": {"state": {"target": ["0", "31", "32", "30", "26", "27", "24"], "time": [1659, 1741, 2979, 3018, 3184, 5856, 5945]}, "edge": {"target": [], "time": []}}}, "displayed_time": "15.42", "trialTime": 16035, "trial_type": "mouselab-mdp", "trial_index": 47, "time_elapsed": 1541226, "internal_node_id": "0.0-6.0-1.0-38.0"}}, {"uniqueid": "w45572613:a45673090", "current_trial": 48, "dateTime": 1693482663751, "trialdata": {"revealed_states": [], "clicked_states": ["17", "21", "32", "31", "10", "7"], "num_clicks_accrued": [0, 0, 0, 0, 0, 0, 0, 0, 0, 0, 0, 0, 0], "stateRewards": ["", 1, 2, -3, 6, -88, 74, -45, 7, -46, 40, -77, 1, -4, 4, 3, 22, -25, -59, 8, -83, 19, -60, -1, -1, -1, -8, 26, -29, 64, -7, -88, -51, -55], "withholdReward": false, "trial_id": "mdp_trial_40", "block": "test", "trialIndex": 41, "score": 34.1, "costs": -12.9, "simulationMode": [null, null, null, null, null], "rewards": [1, 2, -3, 7, 40], "path": ["0", "0", "1", "2", "3", "8", "10"], "rt": [20816, 144, 102, 280, 62], "actions": ["up", "up", "up", "left", "down"], "actionTimes": [22561, 23206, 23827, 24622, 25188], "queries": {"click": {"state": {"target": ["17", "21", "32", "31", "10", "7"], "time": [2912, 6136, 9543, 12876, 16111, 19448]}, "edge": {"target": [], "time": []}}, "mouseover": {"state": {"target": ["18", "15", "17", "19", "21", "32", "31", "24", "28", "10", "7"], "time": [2157, 2239, 2427, 4376, 4610, 7292, 11559, 13293, 13342, 13677, 16892]}, "edge": {"target": [], "time": []}}, "mouseout": {"state": {"target": ["0", "18", "15", "17", "19", "21", "32", "31", "24", "28", "10", "7", "1", "0"], "time": [2096, 2206, 2327, 4292, 4460, 6777, 11409, 13260, 13328, 13398, 16642, 20210, 27139, 27174]}, "edge": {"target": [], "time": []}}}, "displayed_time": "25.70", "trialTime": 27440, "trial_type": "mouselab-mdp", "trial_index": 48, "time_elapsed": 1569047, "internal_node_id": "0.0-6.0-1.0-39.0"}}, {"uniqueid": "w45572613:a45673090", "current_trial": 49, "dateTime": 1693482740855, "trialdata": {"rt": 77099, "response": {"Q0": "$-2 to $2", "Q1": "$-16 to $16", "Q2": "$-88 to $88", "Q3": "The cost for clicking on nodes varied between nodes.", "Q4": "Very motivated"}, "question_order": [0, 1, 2, 3, 4], "trial_id": "final_quiz_control", "trial_type": "survey-multi-choice", "trial_index": 49, "time_elapsed": 1646152, "internal_node_id": "0.0-6.0-2.0"}}, {"uniqueid": "w45572613:a45673090", "current_trial": 50, "dateTime": 1693482896128, "trialdata": {"rt": 155246, "response": {"Q0": "The strategy was to check the value of the notes at the end, and only stop when the value is bigger than the cost at that point.", "Q1": "I don't think i did only based on the previous questionnaire. But i think i did well overall, i only made a loss on a few. ", "Q2": "It was easy, I used the same strategy throughout so I don't think I improved in any way."}, "trial_id": "self_report_control", "trial_type": "survey-text", "trial_index": 50, "time_elapsed": 1801425, "internal_node_id": "0.0-6.0-3.0"}}, {"uniqueid": "w45572613:a45673090", "current_trial": 51, "dateTime": 1693482949963, "trialdata": {"rt": 53828, "response": {"Q0": "Neither disagree nor agree", "Q1": "Neither disagree nor agree", "Q2": "Neither disagree nor agree", "Q3": "Neither disagree nor agree", "Q4": "Neither disagree nor agree", "Q5": "Neither disagree nor agree", "Q6": "Neither disagree nor agree"}, "question_order": [0, 1, 2, 3, 4, 5, 6], "trial_id": "self_report_2", "trial_type": "survey-multi-choice", "trial_index": 51, "time_elapsed": 1855260, "internal_node_id": "0.0-6.0-4.0"}}, {"uniqueid": "w45572613:a45673090", "current_trial": 52, "dateTime": 1693482972707, "trialdata": {"rt": 22734, "response": {"gender": "female", "age": "22", "colorblind": "1", "effort": "0"}, "trial_type": "survey-html-form", "trial_index": 52, "time_elapsed": 1878004, "internal_node_id": "0.0-6.0-5.0"}}, {"uniqueid": "w45572613:a45673090", "current_trial": 53, "dateTime": 1693483036051, "trialdata": {"rt": 63338, "response": {"Q0": "I'm questioning it now, wasn't the goal to get to the 5th node since the question was asking about the first level. That's what i'm confused about now.", "Q1": "No", "Q2": ""}, "trial_type": "survey-text", "trial_index": 53, "time_elapsed": 1941348, "internal_node_id": "0.0-6.0-6.0"}}, {"uniqueid": "w45572613:a45673090", "current_trial": 54, "dateTime": 1693483087526, "trialdata": {"rt": 51469, "stimulus": "<h1>Completion Code Instructions (1/2)</h1>\n<br><br><br><br>\nYou have reached the end of the experiment! The completion code consists of two parts: (1) a code with 2 characters (2) a code with 6 characters. On this page, you will receive the second part of the code. The first part of the completion code will be on the next page.\n<br><br>\nThe second part of your completion code is: <b>EWEK22</b>\n<br><br>\nPlease note this down. Then, press 'Finish HIT' in order to find the first part of your completion code. Once the data has been saved, you will receive this code either in this window or in the original browser window where you started the experiment.\n", "response": 0, "trial_type": "html-button-response", "trial_index": 54, "time_elapsed": 1992823, "internal_node_id": "0.0-6.0-7.0"}}, {"uniqueid": "w45572613:a45673090", "current_trial": 55, "dateTime": 1693483088533, "trialdata": {"success": true, "trial_type": "fullscreen", "trial_index": 55, "time_elapsed": 1993830, "internal_node_id": "0.0-7.0"}}], "questiondata": {"params": {"CODE": "C6DMOQA6", "MIN_TIME": 14, "inspectCost": 1, "startTime": "Thu Aug 31 2023 13:24:51 GMT+0200 (South Africa Standard Time)", "bonusRate": 0.002, "variance": "1_2_4_8_44", "branching": "31123"}, "final_score": 2115.8}, "eventdata": [{"eventtype": "initialized", "value": null, "timestamp": 1693481090242, "interval": 0}, {"eventtype": "window_resize", "value": [1536, 806], "timestamp": 1693481090242, "interval": 0}, {"eventtype": "window_resize", "value": [1536, 806], "timestamp": 1693481091642, "interval": 1400}, {"eventtype": "focus", "value": "on", "timestamp": 1693481099959, "interval": 8317}, {"eventtype": "window_resize", "value": [1536, 864], "timestamp": 1693481104521, "interval": 4562}, {"eventtype": "window_resize", "value": [1536, 806], "timestamp": 1693483087812, "interval": 1983291}], "useragent": "Mozilla/5.0 (Windows NT 10.0; Win64; x64) AppleWebKit/537.36 (KHTML, like Gecko) Chrome/116.0.0.0 Safari/537.36", "mode": "live", "id": "w45572613:a45673090", "status": "user data saved", "Beginhit": "2023-08-31 11:24:45.903461", "Beginexp": "2023-08-31 11:25:07.061542", "Endhit": "2023-08-31 11:59:47.286402", "psiturkStatus": 3, "browser": "<redacted>", "platform": "windows", "language": "en-US"}