{"condition": 1, "counterbalance": 0, "assignmentId": "a72967399", "workerId": "w23162235", "hitId": "h84610097", "currenttrial": 62, "bonus": 0, "data": [{"uniqueid": "w23162235:a72967399", "current_trial": 0, "dateTime": 1693564613827, "trialdata": {"success": true, "trial_type": "fullscreen", "trial_index": 0, "time_elapsed": 12190, "internal_node_id": "0.0-0.0"}}, {"uniqueid": "w23162235:a72967399", "current_trial": 1, "dateTime": 1693564639152, "trialdata": {"view_history": [{"page_index": 0, "viewing_time": 25322}], "rt": 25322, "trial_id": "exp_instructions_misaligned", "trial_type": "instructions", "trial_index": 1, "time_elapsed": 37516, "internal_node_id": "0.0-1.0"}}, {"uniqueid": "w23162235:a72967399", "current_trial": 2, "dateTime": 1693564896853, "trialdata": {"view_history": [{"page_index": 0, "viewing_time": 87830}, {"page_index": 1, "viewing_time": 82808}, {"page_index": 2, "viewing_time": 28200}, {"page_index": 3, "viewing_time": 58864}], "rt": 257702, "trial_id": "mouselab_instructions_1_misaligned", "trial_type": "instructions", "trial_index": 2, "time_elapsed": 295217, "internal_node_id": "0.0-2.0-1.0"}}, {"uniqueid": "w23162235:a72967399", "current_trial": 3, "dateTime": 1693565070813, "trialdata": {"revealed_states": [], "clicked_states": ["1", "23", "24", "25", "30", "31", "32", "33", "26", "12", "13", "2", "3", "8", "9", "4", "11", "10", "6", "5", "14", "15", "19", "21", "22", "20", "16", "18", "17", "7", "29", "27", "28"], "num_clicks_accrued": [0, 0, 0, 0, 0, 0, 0, 0, 0, 0, 0, 0, 0], "stateRewards": ["", 10, 10, 10, 10, -10, -10, -10, -10, 10, -10, 10, -10, -10, -10, 10, -10, -10, -10, -10, -10, 10, 10, 10, -10, -10, -10, -10, 10, 10, 10, 10, -10, 10], "withholdReward": false, "trial_id": "practice_1", "block": "test", "trialIndex": 0, "score": -43, "costs": -16.5, "simulationMode": [null, null, null, null, null], "rewards": [-10, -10, -10, 10, -10], "path": ["0", "0", "12", "13", "14", "15", "17"], "rt": [128376, 4282, 1430, 753, 9614], "actions": ["right", "right", "right", "up", "right"], "actionTimes": [130325, 135123, 137051, 138307, 148419], "queries": {"click": {"state": {"target": ["1", "23", "24", "25", "30", "31", "32", "33", "26", "12", "13", "2", "3", "8", "9", "4", "11", "10", "6", "5", "14", "15", "19", "21", "22", "20", "16", "18", "17", "7", "29", "27", "28"], "time": [6013, 8392, 12297, 16540, 20976, 25575, 27214, 28359, 29572, 36056, 37792, 42324, 44312, 46042, 49722, 50958, 52544, 53971, 56229, 62076, 71321, 73515, 75612, 77558, 80561, 83072, 87688, 89712, 92409, 95122, 97721, 98848, 101308]}, "edge": {"target": [], "time": []}}, "mouseover": {"state": {"target": ["1", "2", "2", "1", "1", "1", "0", "23", "0", "12", "0", "24", "24", "25", "25", "25", "26", "26", "30", "25", "30", "31", "32", "33", "25", "26", "25", "30", "33", "26", "27", "28", "12", "13", "14", "12", "1", "2", "3", "3", "8", "11", "9", "4", "3", "11", "10", "2", "4", "4", "6", "5", "4", "7", "1", "7", "18", "15", "14", "14", "15", "18", "19", "19", "21", "22", "19", "20", "14", "15", "16", "15", "18", "15", "17", "17", "7", "2", "10", "29", "29", "27", "27", "28", "23", "28", "23", "30", "33", "33", "1"], "time": [4404, 4520, 4853, 5104, 5423, 5671, 7254, 7588, 9837, 10187, 10704, 10887, 11888, 13471, 13905, 15638, 19120, 19370, 20472, 24004, 25004, 25271, 26489, 28071, 28856, 29071, 30871, 30937, 33672, 34237, 34589, 35121, 35487, 36922, 39770, 40287, 40720, 42094, 43756, 44020, 45355, 48103, 49420, 50588, 52004, 52270, 53721, 54805, 55320, 55536, 55770, 59587, 63753, 63903, 64020, 69205, 70403, 70570, 70870, 71092, 72039, 74670, 75070, 75338, 76005, 79498, 81770, 82687, 84320, 86553, 87403, 88870, 89237, 91886, 91921, 92237, 94637, 96039, 96104, 97087, 97487, 98372, 98605, 99140, 100287, 100820, 101803, 103254, 103321, 104086, 124303]}, "edge": {"target": [], "time": []}}, "mouseout": {"state": {"target": ["0", "1", "2", "2", "1", "1", "1", "0", "23", "0", "12", "0", "23", "24", "24", "25", "25", "24", "25", "25", "26", "26", "25", "30", "30", "25", "30", "31", "31", "32", "33", "25", "26", "26", "25", "30", "32", "33", "26", "27", "28", "12", "13", "14", "13", "12", "1", "2", "3", "3", "3", "8", "11", "9", "4", "4", "3", "11", "10", "2", "4", "4", "6", "5", "4", "7", "1", "7", "18", "15", "14", "14", "15", "15", "18", "19", "19", "21", "19", "22", "19", "20", "14", "15", "16", "15", "18", "15", "17", "17", "7", "2", "10", "29", "29", "27", "27", "28", "23", "28", "23", "30", "33", "33", "1", "20", "15", "1", "31"], "time": [1040, 4488, 4570, 5037, 5204, 5504, 7040, 7287, 9790, 9887, 10621, 10720, 10837, 11237, 13456, 13487, 15072, 15554, 18078, 19086, 19173, 19455, 20237, 21130, 22520, 24855, 25220, 25734, 26189, 27378, 28789, 28889, 30073, 30822, 30887, 30953, 31020, 33737, 34306, 34920, 35387, 36855, 37863, 40170, 40270, 40303, 41570, 43121, 43854, 44446, 45339, 46214, 49221, 50206, 51094, 51988, 52021, 53337, 54120, 55220, 55437, 55620, 59511, 63587, 63820, 63920, 64053, 70370, 70537, 70586, 70886, 71771, 73678, 74405, 75007, 75153, 75970, 78820, 79020, 81721, 81787, 84270, 84355, 87088, 88754, 88970, 91872, 91903, 91970, 93871, 96005, 96071, 96287, 97186, 97847, 98421, 99088, 99904, 100487, 101770, 101837, 103269, 103402, 104102, 124353, 141203, 143430, 153320, 153786]}, "edge": {"target": [], "time": []}}}, "displayed_time": "148.92", "trialTime": 172924, "trial_type": "mouselab-mdp", "trial_index": 3, "time_elapsed": 469177, "internal_node_id": "0.0-2.0-2.0-0.0"}}, {"uniqueid": "w23162235:a72967399", "current_trial": 4, "dateTime": 1693565122133, "trialdata": {"revealed_states": [], "clicked_states": ["1", "12"], "num_clicks_accrued": [0, 0, 0, 0, 0, 0, 0, 0, 0, 0, 0, 0, 0], "stateRewards": ["", -10, -10, 10, 10, 10, 10, -10, -10, -10, 10, 10, 10, -10, -10, 10, 10, 10, -10, -10, 10, 10, -10, -10, -10, -10, 10, -10, 10, 10, 10, -10, 10, -10], "withholdReward": false, "trial_id": "practice_2", "block": "test", "trialIndex": 1, "score": 12.5, "costs": -1, "simulationMode": [null, null, null, null, null], "rewards": [10, -10, -10, 10, 10], "path": ["0", "0", "12", "13", "14", "15", "16"], "rt": [5532, 12489, 6063, 3520, 761], "actions": ["right", "right", "right", "up", "up"], "actionTimes": [8130, 21122, 27681, 31705, 32961], "queries": {"click": {"state": {"target": ["1", "12"], "time": [3347, 5210]}, "edge": {"target": [], "time": []}}, "mouseover": {"state": {"target": ["1", "12"], "time": [3083, 4450]}, "edge": {"target": [], "time": []}}, "mouseout": {"state": {"target": ["0", "1", "12", "0", "12", "13", "12", "0", "0", "0", "13", "13", "13", "12", "12"], "time": [2247, 4318, 7299, 9899, 10015, 16800, 17915, 18148, 19165, 24815, 25232, 25531, 26868, 40332, 50948]}, "edge": {"target": [], "time": []}}}, "displayed_time": "33.47", "trialTime": 51106, "trial_type": "mouselab-mdp", "trial_index": 4, "time_elapsed": 520496, "internal_node_id": "0.0-2.0-2.0-1.0"}}, {"uniqueid": "w23162235:a72967399", "current_trial": 5, "dateTime": 1693565283809, "trialdata": {"view_history": [{"page_index": 0, "viewing_time": 132092}, {"page_index": 1, "viewing_time": 10800}, {"page_index": 0, "viewing_time": 13016}, {"page_index": 1, "viewing_time": 5768}], "rt": 161676, "trial_id": "mouselab_instructions_2_misaligned", "trial_type": "instructions", "trial_index": 5, "time_elapsed": 682173, "internal_node_id": "0.0-2.0-3.0"}}, {"uniqueid": "w23162235:a72967399", "current_trial": 6, "dateTime": 1693565408674, "trialdata": {"rt": 124836, "response": {"Q0": "There is no cost for clicking on nodes.", "Q1": "The better I perform the higher my bonus will be.", "Q2": "No, the amount of cash at each node of the web may be different each time.", "Q3": "To get the highest total score.", "Q4": "Only before moving the spider.", "Q5": "3 seconds"}, "question_order": [0, 1, 2, 3, 4, 5], "correct": {"Q0": "The cost for clicking on nodes may vary between nodes.", "Q1": "The better I perform the higher my bonus will be.", "Q2": "No, the amount of cash at each node of the web may be different each time.", "Q3": "To get the highest total score.", "Q4": "Only before moving the spider.", "Q5": "3 seconds"}, "trial_id": "mouselab_quiz_misaligned", "trial_type": "survey-multi-choice", "trial_index": 6, "time_elapsed": 807038, "internal_node_id": "0.0-2.0-4.0"}}, {"uniqueid": "w23162235:a72967399", "current_trial": 7, "dateTime": 1693565430146, "trialdata": {"success": true, "trial_type": "fullscreen", "trial_index": 7, "time_elapsed": 828510, "internal_node_id": "0.0-2.1-0.1-0.1"}}, {"uniqueid": "w23162235:a72967399", "current_trial": 8, "dateTime": 1693565443489, "trialdata": {"view_history": [{"page_index": 0, "viewing_time": 4828}, {"page_index": 1, "viewing_time": 3296}, {"page_index": 2, "viewing_time": 3048}, {"page_index": 3, "viewing_time": 2168}], "rt": 13340, "trial_id": "mouselab_instructions_1_misaligned", "trial_type": "instructions", "trial_index": 8, "time_elapsed": 841853, "internal_node_id": "0.0-2.1-1.1"}}, {"uniqueid": "w23162235:a72967399", "current_trial": 9, "dateTime": 1693565462245, "trialdata": {"revealed_states": [], "clicked_states": ["1"], "num_clicks_accrued": [0, 0, 0, 0, 0, 0, 0, 0, 0, 0, 0, 0, 0], "stateRewards": ["", 10, 10, 10, 10, -10, -10, -10, -10, 10, -10, 10, -10, -10, -10, 10, -10, -10, -10, -10, -10, 10, 10, 10, -10, -10, -10, -10, 10, 10, 10, 10, -10, 10], "withholdReward": false, "trial_id": "practice_1", "block": "test", "trialIndex": 2, "score": 33, "costs": -0.5, "simulationMode": [null, null, null, null, null], "rewards": [10, 10, 10, -10, 10], "path": ["0", "0", "1", "2", "3", "8", "9"], "rt": [6117, 1358, 531, 2179, 736], "actions": ["up", "up", "up", "left", "up"], "actionTimes": [8028, 9923, 10946, 13627, 14867], "queries": {"click": {"state": {"target": ["1"], "time": [5409]}, "edge": {"target": [], "time": []}}, "mouseover": {"state": {"target": ["0", "1", "23"], "time": [2778, 5014, 7512]}, "edge": {"target": [], "time": []}}, "mouseout": {"state": {"target": ["0", "0", "1", "1", "23"], "time": [2366, 3765, 5830, 7313, 7529]}, "edge": {"target": [], "time": []}}}, "displayed_time": "15.38", "trialTime": 18516, "trial_type": "mouselab-mdp", "trial_index": 9, "time_elapsed": 860608, "internal_node_id": "0.0-2.1-2.1-0.1"}}, {"uniqueid": "w23162235:a72967399", "current_trial": 10, "dateTime": 1693565486618, "trialdata": {"revealed_states": [], "clicked_states": [], "num_clicks_accrued": [0, 0, 0, 0, 0, 0, 0, 0, 0, 0, 0, 0, 0], "stateRewards": ["", -10, -10, 10, 10, 10, 10, -10, -10, -10, 10, 10, 10, -10, -10, 10, 10, 10, -10, -10, 10, 10, -10, -10, -10, -10, 10, -10, 10, 10, 10, -10, 10, -10], "withholdReward": false, "trial_id": "practice_2", "block": "test", "trialIndex": 3, "score": 13.5, "costs": 0, "simulationMode": [null, null, null, null, null], "rewards": [10, -10, -10, 10, 10], "path": ["0", "0", "12", "13", "14", "15", "16"], "rt": [1987, 3392, 7309, 1716, 1174], "actions": ["right", "right", "right", "up", "up"], "actionTimes": [5630, 9518, 17318, 19526, 21214], "queries": {"click": {"state": {"target": [], "time": []}, "edge": {"target": [], "time": []}}, "mouseover": {"state": {"target": ["12", "13"], "time": [4239, 4288]}, "edge": {"target": [], "time": []}}, "mouseout": {"state": {"target": ["0", "12", "13", "12", "13", "12", "13", "13"], "time": [4205, 4255, 4771, 9055, 14326, 15088, 15255, 23289]}, "edge": {"target": [], "time": []}}}, "displayed_time": "21.71", "trialTime": 24149, "trial_type": "mouselab-mdp", "trial_index": 10, "time_elapsed": 884981, "internal_node_id": "0.0-2.1-2.1-1.1"}}, {"uniqueid": "w23162235:a72967399", "current_trial": 11, "dateTime": 1693565709752, "trialdata": {"view_history": [{"page_index": 0, "viewing_time": 217540}, {"page_index": 1, "viewing_time": 5592}], "rt": 223133, "trial_id": "mouselab_instructions_2_misaligned", "trial_type": "instructions", "trial_index": 11, "time_elapsed": 1108116, "internal_node_id": "0.0-2.1-3.1"}}, {"uniqueid": "w23162235:a72967399", "current_trial": 12, "dateTime": 1693565775969, "trialdata": {"rt": 66213, "response": {"Q0": "The cost for clicking on nodes may vary between nodes.", "Q1": "The better I perform the higher my bonus will be.", "Q2": "No, the amount of cash at each node of the web may be different each time.", "Q3": "To get the highest total score.", "Q4": "Only before moving the spider.", "Q5": "3 seconds"}, "question_order": [0, 1, 2, 3, 4, 5], "correct": {"Q0": "The cost for clicking on nodes may vary between nodes.", "Q1": "The better I perform the higher my bonus will be.", "Q2": "No, the amount of cash at each node of the web may be different each time.", "Q3": "To get the highest total score.", "Q4": "Only before moving the spider.", "Q5": "3 seconds"}, "trial_id": "mouselab_quiz_misaligned", "trial_type": "survey-multi-choice", "trial_index": 12, "time_elapsed": 1174333, "internal_node_id": "0.0-2.1-4.1"}}, {"uniqueid": "w23162235:a72967399", "current_trial": 13, "dateTime": 1693565786584, "trialdata": {"rt": 10608, "response": {"Q0": "No"}, "question_order": [0], "trial_id": "repeat_check", "trial_type": "survey-multi-choice", "trial_index": 13, "time_elapsed": 1184948, "internal_node_id": "0.0-4.0-0.0"}}, {"uniqueid": "w23162235:a72967399", "current_trial": 14, "dateTime": 1693565804424, "trialdata": {"rt": 17836, "stimulus": "\n<h1> Get ready to start the game! </h1>\n\nThank you for reading the instructions. Get ready start with the 40 rounds of this game.\n<br><br>\nIf you need to take a break, feel free to take one after the end of a round, before continuing to the next one.\n<br><br>\nRemember, the more money the spider gets, the bigger your bonus will be!\n<br><br>\n<div style='text-align: center;'>Press <code>space</code> to begin.</div>\n\n<br><br>\n(If, at any point, the <code>space</code> key does not take you to the next page, click once on the text and try again.)", "response": " ", "trial_id": "mdp_ready", "trial_type": "html-keyboard-response", "trial_index": 14, "time_elapsed": 1202788, "internal_node_id": "0.0-6.0-0.0"}}, {"uniqueid": "w23162235:a72967399", "current_trial": 15, "dateTime": 1693565824880, "trialdata": {"revealed_states": [], "clicked_states": ["12"], "num_clicks_accrued": [0, 0, 0, 0, 0, 0, 0, 0, 0, 0, 0, 0, 0], "stateRewards": ["", -1, 2, 5, -6, 13, -64, -47, 8, -79, -80, -33, 1, 2, -2, -16, 56, -71, -10, 3, 29, 44, 85, -1, 4, 5, 4, -36, -56, 19, 8, 52, -13, -2], "withholdReward": false, "trial_id": "mdp_trial_1", "block": "test", "trialIndex": 4, "score": 41.25, "costs": 0.25, "simulationMode": [null, null, null, null, null], "rewards": [1, 2, -2, -16, 56], "path": ["0", "0", "12", "13", "14", "15", "16"], "rt": [2922, 2034, 1093, 1010, 567], "actions": ["right", "right", "right", "up", "up"], "actionTimes": [6462, 8990, 10583, 12102, 13174], "queries": {"click": {"state": {"target": ["12"], "time": [4829]}, "edge": {"target": [], "time": []}}, "mouseover": {"state": {"target": ["12"], "time": [4255]}, "edge": {"target": [], "time": []}}, "mouseout": {"state": {"target": ["26", "28", "1", "18", "15", "12", "0"], "time": [1654, 1722, 1754, 1787, 1904, 2021, 4056]}, "edge": {"target": [], "time": []}}}, "displayed_time": "17.54", "trialTime": 20230, "trial_type": "mouselab-mdp", "trial_index": 15, "time_elapsed": 1223244, "internal_node_id": "0.0-6.0-1.0-0.0"}}, {"uniqueid": "w23162235:a72967399", "current_trial": 16, "dateTime": 1693565845040, "trialdata": {"revealed_states": [], "clicked_states": [], "num_clicks_accrued": [0, 0, 0, 0, 0, 0, 0, 0, 0, 0, 0, 0, 0], "stateRewards": ["", -2, 3, 3, -14, 62, 36, 49, 16, 11, 17, -84, 2, -1, 6, 2, -82, -73, 49, -6, -87, 48, 50, -1, -2, -1, -16, -11, 37, -44, 4, 55, 73, -10], "withholdReward": false, "trial_id": "mdp_trial_2", "block": "test", "trialIndex": 5, "score": 52, "costs": 0, "simulationMode": [null, null, null, null, null], "rewards": [-2, 3, 3, -14, 62], "path": ["0", "0", "1", "2", "3", "4", "5"], "rt": [1887, 1756, 2985, 685, 972], "actions": ["up", "up", "up", "right", "up"], "actionTimes": [5499, 7755, 11251, 12451, 13940], "queries": {"click": {"state": {"target": [], "time": []}, "edge": {"target": [], "time": []}}, "mouseover": {"state": {"target": [], "time": []}, "edge": {"target": [], "time": []}}, "mouseout": {"state": {"target": ["12", "0", "0", "0"], "time": [3049, 5932, 6081, 19333]}, "edge": {"target": [], "time": []}}}, "displayed_time": "17.61", "trialTime": 19899, "trial_type": "mouselab-mdp", "trial_index": 16, "time_elapsed": 1243404, "internal_node_id": "0.0-6.0-1.0-1.0"}}, {"uniqueid": "w23162235:a72967399", "current_trial": 17, "dateTime": 1693565868256, "trialdata": {"revealed_states": [], "clicked_states": [], "num_clicks_accrued": [0, 0, 0, 0, 0, 0, 0, 0, 0, 0, 0, 0, 0], "stateRewards": ["", -2, -3, -3, 9, 79, 67, 22, -15, -56, 27, -85, -2, 4, -4, -15, -20, -32, 60, 15, 71, 57, 17, 1, 2, -8, 15, -37, -81, 82, 15, 21, -3, 2], "withholdReward": false, "trial_id": "mdp_trial_3", "block": "test", "trialIndex": 6, "score": -27, "costs": 0, "simulationMode": [null, null, null, null, null], "rewards": [1, 2, -8, 15, -37], "path": ["0", "0", "23", "24", "25", "26", "27"], "rt": [1398, 1919, 1172, 216, 165], "actions": ["left", "left", "left", "up", "up"], "actionTimes": [7882, 10297, 11962, 12690, 13354], "queries": {"click": {"state": {"target": [], "time": []}, "edge": {"target": [], "time": []}}, "mouseover": {"state": {"target": [], "time": []}, "edge": {"target": [], "time": []}}, "mouseout": {"state": {"target": ["0", "12", "0", "2", "2", "1", "23"], "time": [5554, 5770, 15489, 20456, 20637, 20688, 21170]}, "edge": {"target": [], "time": []}}}, "displayed_time": "20.48", "trialTime": 22922, "trial_type": "mouselab-mdp", "trial_index": 17, "time_elapsed": 1266620, "internal_node_id": "0.0-6.0-1.0-2.0"}}, {"uniqueid": "w23162235:a72967399", "current_trial": 18, "dateTime": 1693565890656, "trialdata": {"revealed_states": [], "clicked_states": [], "num_clicks_accrued": [0, 0, 0, 0, 0, 0, 0, 0, 0, 0, 0, 0, 0], "stateRewards": ["", 2, 4, 7, -6, -76, -81, 2, 5, -66, -3, 36, -2, -4, 6, -2, -69, 4, -49, -6, 67, 38, -67, 2, 1, 1, 6, -68, -21, 52, -16, -16, 6, -70], "withholdReward": false, "trial_id": "mdp_trial_4", "block": "test", "trialIndex": 7, "score": -74, "costs": 0, "simulationMode": [null, null, null, null, null], "rewards": [2, 4, 7, -6, -81], "path": ["0", "0", "1", "2", "3", "4", "6"], "rt": [1682, 1279, 657, 1714, 1319], "actions": ["up", "up", "up", "right", "right"], "actionTimes": [6746, 8531, 9691, 11899, 13722], "queries": {"click": {"state": {"target": [], "time": []}, "edge": {"target": [], "time": []}}, "mouseover": {"state": {"target": ["1", "1"], "time": [5581, 5848]}, "edge": {"target": [], "time": []}}, "mouseout": {"state": {"target": ["0", "1", "1"], "time": [5549, 5599, 15181]}, "edge": {"target": [], "time": []}}}, "displayed_time": "19.07", "trialTime": 22099, "trial_type": "mouselab-mdp", "trial_index": 18, "time_elapsed": 1289020, "internal_node_id": "0.0-6.0-1.0-3.0"}}, {"uniqueid": "w23162235:a72967399", "current_trial": 19, "dateTime": 1693565912936, "trialdata": {"revealed_states": [], "clicked_states": [], "num_clicks_accrued": [0, 0, 0, 0, 0, 0, 0, 0, 0, 0, 0, 0, 0], "stateRewards": ["", 1, 4, -8, -5, -15, -7, 21, 13, -30, 40, -65, 1, 1, 5, -14, 35, 27, -38, -11, 36, -58, -47, -2, 4, -3, 13, -16, -49, 22, 15, -56, -44, -10], "withholdReward": false, "trial_id": "mdp_trial_5", "block": "test", "trialIndex": 8, "score": -23, "costs": 0, "simulationMode": [null, null, null, null, null], "rewards": [1, 4, -8, -5, -15], "path": ["0", "0", "1", "2", "3", "4", "5"], "rt": [1258, 290, 649, 570, 1697], "actions": ["up", "up", "up", "right", "up"], "actionTimes": [6474, 7258, 8419, 9506, 11714], "queries": {"click": {"state": {"target": [], "time": []}, "edge": {"target": [], "time": []}}, "mouseover": {"state": {"target": [], "time": []}, "edge": {"target": [], "time": []}}, "mouseout": {"state": {"target": ["0", "0"], "time": [4616, 6316]}, "edge": {"target": [], "time": []}}}, "displayed_time": "19.22", "trialTime": 21930, "trial_type": "mouselab-mdp", "trial_index": 19, "time_elapsed": 1311300, "internal_node_id": "0.0-6.0-1.0-4.0"}}, {"uniqueid": "w23162235:a72967399", "current_trial": 20, "dateTime": 1693565933248, "trialdata": {"revealed_states": [], "clicked_states": [], "num_clicks_accrued": [0, 0, 0, 0, 0, 0, 0, 0, 0, 0, 0, 0, 0], "stateRewards": ["", 2, -3, -5, 5, 11, -9, -33, 6, 67, 6, -30, -1, -2, -6, 13, 55, 13, 72, -14, 75, 21, -66, -2, -4, 6, 15, -1, -35, 60, 2, 51, -73, 12], "withholdReward": false, "trial_id": "mdp_trial_6", "block": "test", "trialIndex": 9, "score": 17, "costs": 0, "simulationMode": [null, null, null, null, null], "rewards": [-1, -2, -6, 13, 13], "path": ["0", "0", "12", "13", "14", "15", "17"], "rt": [1725, 2235, 990, 698, 1298], "actions": ["right", "right", "right", "up", "right"], "actionTimes": [5978, 8729, 10217, 11409, 13225], "queries": {"click": {"state": {"target": [], "time": []}, "edge": {"target": [], "time": []}}, "mouseover": {"state": {"target": [], "time": []}, "edge": {"target": [], "time": []}}, "mouseout": {"state": {"target": ["0", "0", "0"], "time": [1576, 3208, 3725]}, "edge": {"target": [], "time": []}}}, "displayed_time": "18.25", "trialTime": 19985, "trial_type": "mouselab-mdp", "trial_index": 20, "time_elapsed": 1331612, "internal_node_id": "0.0-6.0-1.0-5.0"}}, {"uniqueid": "w23162235:a72967399", "current_trial": 21, "dateTime": 1693565953127, "trialdata": {"revealed_states": [], "clicked_states": [], "num_clicks_accrued": [0, 0, 0, 0, 0, 0, 0, 0, 0, 0, 0, 0, 0], "stateRewards": ["", -1, 4, -6, -5, -22, -38, -38, -2, -56, 88, 14, -1, -1, -7, -6, 61, -60, 21, 11, 57, 31, -30, -2, -2, 6, -9, -44, -70, -44, -15, 34, 16, -78], "withholdReward": false, "trial_id": "mdp_trial_7", "block": "test", "trialIndex": 10, "score": 59, "costs": 0, "simulationMode": [null, null, null, null, null], "rewards": [-1, -1, -7, 11, 57], "path": ["0", "0", "12", "13", "14", "19", "20"], "rt": [3590, 672, 434, 653, 357], "actions": ["right", "right", "right", "down", "right"], "actionTimes": [7190, 8366, 9317, 10469, 11333], "queries": {"click": {"state": {"target": [], "time": []}, "edge": {"target": [], "time": []}}, "mouseover": {"state": {"target": ["0"], "time": [5560]}, "edge": {"target": [], "time": []}}, "mouseout": {"state": {"target": ["0", "0"], "time": [263, 13777]}, "edge": {"target": [], "time": []}}}, "displayed_time": "17.60", "trialTime": 19565, "trial_type": "mouselab-mdp", "trial_index": 21, "time_elapsed": 1351491, "internal_node_id": "0.0-6.0-1.0-6.0"}}, {"uniqueid": "w23162235:a72967399", "current_trial": 22, "dateTime": 1693565978895, "trialdata": {"revealed_states": [], "clicked_states": ["15"], "num_clicks_accrued": [0, 0, 0, 0, 0, 0, 0, 0, 0, 0, 0, 0, 0], "stateRewards": ["", 1, 2, -8, 9, 18, -83, -11, 6, -64, -48, 17, -2, -2, -5, -3, -24, -3, -86, -2, 48, -41, -22, -2, 4, 7, 8, 81, 13, -48, 10, 61, 19, 57], "withholdReward": false, "trial_id": "mdp_trial_8", "block": "test", "trialIndex": 11, "score": 16.45, "costs": -1.55, "simulationMode": [null, null, null, null, null], "rewards": [1, 2, -8, 6, 17], "path": ["0", "0", "1", "2", "3", "8", "11"], "rt": [8924, 2067, 533, 771, 750], "actions": ["up", "up", "up", "left", "left"], "actionTimes": [16699, 19284, 20316, 21587, 22835], "queries": {"click": {"state": {"target": ["15"], "time": [9552]}, "edge": {"target": [], "time": []}}, "mouseover": {"state": {"target": ["12", "13", "15", "1", "2", "1"], "time": [8426, 8744, 9293, 11410, 12077, 13527]}, "edge": {"target": [], "time": []}}, "mouseout": {"state": {"target": ["23", "23", "0", "12", "13", "15", "1", "2", "1"], "time": [360, 6743, 8277, 8541, 8927, 9966, 11827, 13443, 13710]}, "edge": {"target": [], "time": []}}}, "displayed_time": "23.33", "trialTime": 25451, "trial_type": "mouselab-mdp", "trial_index": 22, "time_elapsed": 1377259, "internal_node_id": "0.0-6.0-1.0-7.0"}}, {"uniqueid": "w23162235:a72967399", "current_trial": 23, "dateTime": 1693566001039, "trialdata": {"revealed_states": [], "clicked_states": [], "num_clicks_accrued": [0, 0, 0, 0, 0, 0, 0, 0, 0, 0, 0, 0, 0], "stateRewards": ["", 2, -3, 5, -14, -63, -9, -24, -11, -54, -43, 68, 2, -2, -4, 7, -64, 30, 47, 12, -74, 11, 86, 1, -3, 3, 10, -71, -42, -52, -1, -29, -16, 69], "withholdReward": false, "trial_id": "mdp_trial_9", "block": "test", "trialIndex": 12, "score": -60, "costs": 0, "simulationMode": [null, null, null, null, null], "rewards": [1, -3, 3, 10, -71], "path": ["0", "0", "23", "24", "25", "26", "27"], "rt": [1968, 267, 288, 623, 363], "actions": ["left", "left", "left", "up", "up"], "actionTimes": [6085, 6861, 7645, 8765, 9621], "queries": {"click": {"state": {"target": [], "time": []}, "edge": {"target": [], "time": []}}, "mouseover": {"state": {"target": [], "time": []}, "edge": {"target": [], "time": []}}, "mouseout": {"state": {"target": ["23", "0"], "time": [3272, 20956]}, "edge": {"target": [], "time": []}}}, "displayed_time": "18.12", "trialTime": 21789, "trial_type": "mouselab-mdp", "trial_index": 23, "time_elapsed": 1399403, "internal_node_id": "0.0-6.0-1.0-8.0"}}, {"uniqueid": "w23162235:a72967399", "current_trial": 24, "dateTime": 1693566026135, "trialdata": {"revealed_states": [], "clicked_states": [], "num_clicks_accrued": [0, 0, 0, 0, 0, 0, 0, 0, 0, 0, 0, 0, 0], "stateRewards": ["", 1, 3, -2, 15, 51, 15, -19, 11, 67, -45, -73, 2, 4, -2, -13, 36, 9, -28, 10, -30, 31, 16, 1, 2, -1, -16, 14, -22, 36, -1, 88, -5, 45], "withholdReward": false, "trial_id": "mdp_trial_10", "block": "test", "trialIndex": 13, "score": -36, "costs": 0, "simulationMode": [null, null, null, null, null], "rewards": [1, 2, -1, -16, -22], "path": ["0", "0", "23", "24", "25", "26", "28"], "rt": [1865, 978, 1024, 393, 128], "actions": ["left", "left", "left", "up", "right"], "actionTimes": [10098, 11586, 13113, 14001, 14642], "queries": {"click": {"state": {"target": [], "time": []}, "edge": {"target": [], "time": []}}, "mouseover": {"state": {"target": ["0"], "time": [9236]}, "edge": {"target": [], "time": []}}, "mouseout": {"state": {"target": ["12", "0", "0", "0"], "time": [1438, 1787, 7787, 24372]}, "edge": {"target": [], "time": []}}}, "displayed_time": "22.23", "trialTime": 24786, "trial_type": "mouselab-mdp", "trial_index": 24, "time_elapsed": 1424499, "internal_node_id": "0.0-6.0-1.0-9.0"}}, {"uniqueid": "w23162235:a72967399", "current_trial": 25, "dateTime": 1693566047319, "trialdata": {"revealed_states": [], "clicked_states": [], "num_clicks_accrued": [0, 0, 0, 0, 0, 0, 0, 0, 0, 0, 0, 0, 0], "stateRewards": ["", -1, -2, -8, 8, -27, -82, 19, -14, -62, 4, 1, -2, 2, 6, 10, 73, -51, -2, 2, 73, -48, 54, -1, 2, -4, 11, -25, 47, 86, 15, 33, 43, -42], "withholdReward": false, "trial_id": "mdp_trial_11", "block": "test", "trialIndex": 14, "score": -85, "costs": 0, "simulationMode": [null, null, null, null, null], "rewards": [-1, -2, -8, 8, -82], "path": ["0", "0", "1", "2", "3", "4", "6"], "rt": [1601, 371, 367, 333, 293], "actions": ["up", "up", "up", "right", "right"], "actionTimes": [5933, 6796, 7660, 8492, 9309], "queries": {"click": {"state": {"target": [], "time": []}, "edge": {"target": [], "time": []}}, "mouseover": {"state": {"target": [], "time": []}, "edge": {"target": [], "time": []}}, "mouseout": {"state": {"target": ["0", "23", "31", "30", "32"], "time": [13956, 19755, 19805, 19839, 19988]}, "edge": {"target": [], "time": []}}}, "displayed_time": "18.33", "trialTime": 20820, "trial_type": "mouselab-mdp", "trial_index": 25, "time_elapsed": 1445682, "internal_node_id": "0.0-6.0-1.0-10.0"}}, {"uniqueid": "w23162235:a72967399", "current_trial": 26, "dateTime": 1693566075873, "trialdata": {"revealed_states": [], "clicked_states": [], "num_clicks_accrued": [0, 0, 0, 0, 0, 0, 0, 0, 0, 0, 0, 0, 0], "stateRewards": ["", -1, 2, -7, -12, -62, 12, -13, 5, 77, -71, 83, 1, -4, 7, 15, -42, -87, -4, 5, -25, 44, 88, -1, 4, -5, -8, 14, 51, 8, -5, 83, -24, -19], "withholdReward": false, "trial_id": "mdp_trial_12", "block": "test", "trialIndex": 15, "score": -6, "costs": 0, "simulationMode": [null, null, null, null, null], "rewards": [-1, 2, -7, -12, 12], "path": ["0", "0", "1", "2", "3", "4", "6"], "rt": [1244, 554, 2991, 76, 174], "actions": ["up", "up", "up", "right", "right"], "actionTimes": [12999, 14047, 17550, 18118, 18780], "queries": {"click": {"state": {"target": [], "time": []}, "edge": {"target": [], "time": []}}, "mouseover": {"state": {"target": [], "time": []}, "edge": {"target": [], "time": []}}, "mouseout": {"state": {"target": ["0"], "time": [27722]}, "edge": {"target": [], "time": []}}}, "displayed_time": "25.75", "trialTime": 28189, "trial_type": "mouselab-mdp", "trial_index": 26, "time_elapsed": 1474220, "internal_node_id": "0.0-6.0-1.0-11.0"}}, {"uniqueid": "w23162235:a72967399", "current_trial": 27, "dateTime": 1693566098447, "trialdata": {"revealed_states": [], "clicked_states": [], "num_clicks_accrued": [0, 0, 0, 0, 0, 0, 0, 0, 0, 0, 0, 0, 0], "stateRewards": ["", 1, 2, -3, -6, 50, -7, 7, -7, -80, 21, -1, 2, 2, 4, -1, 33, 84, 1, 14, -53, 81, 6, -2, -2, -3, -9, -87, -38, -59, -5, -74, -3, -71], "withholdReward": false, "trial_id": "mdp_trial_13", "block": "test", "trialIndex": 16, "score": 44, "costs": 0, "simulationMode": [null, null, null, null, null], "rewards": [1, 2, -3, -6, 50], "path": ["0", "0", "1", "2", "3", "4", "5"], "rt": [1450, 52, 320, 1107, 37], "actions": ["up", "up", "up", "right", "up"], "actionTimes": [6722, 7288, 8121, 9745, 10289], "queries": {"click": {"state": {"target": [], "time": []}, "edge": {"target": [], "time": []}}, "mouseover": {"state": {"target": [], "time": []}, "edge": {"target": [], "time": []}}, "mouseout": {"state": {"target": ["0"], "time": [20484]}, "edge": {"target": [], "time": []}}}, "displayed_time": "19.30", "trialTime": 22177, "trial_type": "mouselab-mdp", "trial_index": 27, "time_elapsed": 1496771, "internal_node_id": "0.0-6.0-1.0-12.0"}}, {"uniqueid": "w23162235:a72967399", "current_trial": 28, "dateTime": 1693566121830, "trialdata": {"revealed_states": [], "clicked_states": [], "num_clicks_accrued": [0, 0, 0, 0, 0, 0, 0, 0, 0, 0, 0, 0, 0], "stateRewards": ["", 2, 3, -3, 4, 72, -28, 34, -12, 57, -64, -15, 2, 1, -4, -15, 2, 49, 31, -1, -42, -58, 31, -2, 1, -2, -13, -75, -19, -22, -6, 61, 10, -56], "withholdReward": false, "trial_id": "mdp_trial_14", "block": "test", "trialIndex": 17, "score": -60, "costs": 0, "simulationMode": [null, null, null, null, null], "rewards": [2, 1, -4, -1, -58], "path": ["0", "0", "12", "13", "14", "19", "21"], "rt": [2930, 281, 249, 725, 2], "actions": ["right", "right", "right", "down", "down"], "actionTimes": [9419, 10213, 10963, 12188, 12690], "queries": {"click": {"state": {"target": [], "time": []}, "edge": {"target": [], "time": []}}, "mouseover": {"state": {"target": ["0"], "time": [7205]}, "edge": {"target": [], "time": []}}, "mouseout": {"state": {"target": ["0"], "time": [6099]}, "edge": {"target": [], "time": []}}}, "displayed_time": "20.49", "trialTime": 22949, "trial_type": "mouselab-mdp", "trial_index": 28, "time_elapsed": 1520172, "internal_node_id": "0.0-6.0-1.0-13.0"}}, {"uniqueid": "w23162235:a72967399", "current_trial": 29, "dateTime": 1693566146586, "trialdata": {"revealed_states": [], "clicked_states": [], "num_clicks_accrued": [0, 0, 0, 0, 0, 0, 0, 0, 0, 0, 0, 0, 0], "stateRewards": ["", -1, -4, -3, 1, -45, -67, -24, 14, 32, 22, 22, -1, 1, -5, -7, 72, 84, -79, -5, 19, -40, -2, -1, -2, 8, -3, 84, -25, -28, 11, 64, -66, 77], "withholdReward": false, "trial_id": "mdp_trial_15", "block": "test", "trialIndex": 18, "score": 93, "costs": 0, "simulationMode": [null, null, null, null, null], "rewards": [-1, -2, 8, 11, 77], "path": ["0", "0", "23", "24", "25", "30", "33"], "rt": [2117, 887, 522, 1497, 276], "actions": ["left", "left", "left", "down", "left"], "actionTimes": [10466, 11906, 12945, 14938, 15715], "queries": {"click": {"state": {"target": [], "time": []}, "edge": {"target": [], "time": []}}, "mouseover": {"state": {"target": [], "time": []}, "edge": {"target": [], "time": []}}, "mouseout": {"state": {"target": ["0", "0"], "time": [7519, 18503]}, "edge": {"target": [], "time": []}}}, "displayed_time": "22.35", "trialTime": 24210, "trial_type": "mouselab-mdp", "trial_index": 29, "time_elapsed": 1544900, "internal_node_id": "0.0-6.0-1.0-14.0"}}, {"uniqueid": "w23162235:a72967399", "current_trial": 30, "dateTime": 1693566172354, "trialdata": {"revealed_states": [], "clicked_states": [], "num_clicks_accrued": [0, 0, 0, 0, 0, 0, 0, 0, 0, 0, 0, 0, 0], "stateRewards": ["", -2, -3, 8, -4, -30, 31, 69, 9, 66, 87, 64, -2, 2, 8, 5, 47, 16, -39, -8, -54, 51, -19, 1, -2, -2, -11, -25, -26, 43, -9, 19, -84, 86], "withholdReward": false, "trial_id": "mdp_trial_16", "block": "test", "trialIndex": 19, "score": 29, "costs": 0, "simulationMode": [null, null, null, null, null], "rewards": [1, -2, -2, -11, 43], "path": ["0", "0", "23", "24", "25", "26", "29"], "rt": [1628, 600, 359, 538, 225], "actions": ["left", "left", "left", "up", "left"], "actionTimes": [11508, 12628, 13484, 14524, 15251], "queries": {"click": {"state": {"target": [], "time": []}, "edge": {"target": [], "time": []}}, "mouseover": {"state": {"target": [], "time": []}, "edge": {"target": [], "time": []}}, "mouseout": {"state": {"target": ["0", "0"], "time": [9240, 24740]}, "edge": {"target": [], "time": []}}}, "displayed_time": "23.88", "trialTime": 25412, "trial_type": "mouselab-mdp", "trial_index": 30, "time_elapsed": 1570718, "internal_node_id": "0.0-6.0-1.0-15.0"}}, {"uniqueid": "w23162235:a72967399", "current_trial": 31, "dateTime": 1693566194223, "trialdata": {"revealed_states": [], "clicked_states": [], "num_clicks_accrued": [0, 0, 0, 0, 0, 0, 0, 0, 0, 0, 0, 0, 0], "stateRewards": ["", -1, -3, -5, -14, -13, -47, 79, 8, -60, -64, 41, -1, 2, 3, 13, -46, 61, -79, -11, -64, -65, 23, 1, -2, 6, -14, 46, 32, 21, 7, 75, -66, 15], "withholdReward": false, "trial_id": "mdp_trial_17", "block": "test", "trialIndex": 20, "score": 40, "costs": 0, "simulationMode": [null, null, null, null, null], "rewards": [-1, -3, -5, 8, 41], "path": ["0", "0", "1", "2", "3", "8", "11"], "rt": [1810, 397, 909, 741, 264], "actions": ["up", "up", "up", "left", "left"], "actionTimes": [7384, 8279, 9703, 10936, 11695], "queries": {"click": {"state": {"target": [], "time": []}, "edge": {"target": [], "time": []}}, "mouseover": {"state": {"target": [], "time": []}, "edge": {"target": [], "time": []}}, "mouseout": {"state": {"target": [], "time": []}, "edge": {"target": [], "time": []}}}, "displayed_time": "19.57", "trialTime": 21500, "trial_type": "mouselab-mdp", "trial_index": 31, "time_elapsed": 1592587, "internal_node_id": "0.0-6.0-1.0-16.0"}}, {"uniqueid": "w23162235:a72967399", "current_trial": 32, "dateTime": 1693566213190, "trialdata": {"revealed_states": [], "clicked_states": [], "num_clicks_accrued": [0, 0, 0, 0, 0, 0, 0, 0, 0, 0, 0, 0, 0], "stateRewards": ["", 1, -3, -1, 9, -34, -40, 22, -7, 45, 53, -11, 2, 4, 5, 15, 21, 37, -49, -3, 80, -28, -34, 1, -3, 1, 1, -40, -6, -5, -16, -85, -86, 59], "withholdReward": false, "trial_id": "mdp_trial_18", "block": "test", "trialIndex": 21, "score": 88, "costs": 0, "simulationMode": [null, null, null, null, null], "rewards": [2, 4, 5, -3, 80], "path": ["0", "0", "12", "13", "14", "19", "20"], "rt": [1897, 402, 399, 678, 1276], "actions": ["right", "right", "right", "down", "right"], "actionTimes": [4561, 5457, 6361, 7537, 9314], "queries": {"click": {"state": {"target": [], "time": []}, "edge": {"target": [], "time": []}}, "mouseover": {"state": {"target": [], "time": []}, "edge": {"target": [], "time": []}}, "mouseout": {"state": {"target": ["0", "33"], "time": [17504, 17603]}, "edge": {"target": [], "time": []}}}, "displayed_time": "16.69", "trialTime": 18441, "trial_type": "mouselab-mdp", "trial_index": 32, "time_elapsed": 1611530, "internal_node_id": "0.0-6.0-1.0-17.0"}}, {"uniqueid": "w23162235:a72967399", "current_trial": 33, "dateTime": 1693566236690, "trialdata": {"revealed_states": [], "clicked_states": [], "num_clicks_accrued": [0, 0, 0, 0, 0, 0, 0, 0, 0, 0, 0, 0, 0], "stateRewards": ["", 1, 1, -5, 8, -6, 45, 16, -6, -7, -22, -38, -1, -4, 8, -11, -16, 21, -45, -15, -59, -32, 42, -1, 3, 6, 11, -7, 34, -27, -8, 85, 43, -9], "withholdReward": false, "trial_id": "mdp_trial_19", "block": "test", "trialIndex": 22, "score": -16, "costs": 0, "simulationMode": [null, null, null, null, null], "rewards": [1, 1, -5, -6, -7], "path": ["0", "0", "1", "2", "3", "8", "9"], "rt": [5881, 1487, 1253, 1393, 527], "actions": ["up", "up", "up", "left", "up"], "actionTimes": [13165, 15155, 16908, 18796, 19835], "queries": {"click": {"state": {"target": [], "time": []}, "edge": {"target": [], "time": []}}, "mouseover": {"state": {"target": ["0", "0"], "time": [7339, 11935]}, "edge": {"target": [], "time": []}}, "mouseout": {"state": {"target": ["0", "0"], "time": [6882, 10493]}, "edge": {"target": [], "time": []}}}, "displayed_time": "21.28", "trialTime": 23051, "trial_type": "mouselab-mdp", "trial_index": 33, "time_elapsed": 1634995, "internal_node_id": "0.0-6.0-1.0-18.0"}}, {"uniqueid": "w23162235:a72967399", "current_trial": 34, "dateTime": 1693566259863, "trialdata": {"revealed_states": [], "clicked_states": [], "num_clicks_accrued": [0, 0, 0, 0, 0, 0, 0, 0, 0, 0, 0, 0, 0], "stateRewards": ["", 2, 1, -3, 7, 46, 11, -36, 16, 71, 5, 1, 2, -2, -8, -3, -4, 6, 55, 7, 68, -54, 2, 1, 1, 6, -6, 42, -4, -84, -11, -65, 63, 25], "withholdReward": false, "trial_id": "mdp_trial_20", "block": "test", "trialIndex": 23, "score": 53, "costs": 0, "simulationMode": [null, null, null, null, null], "rewards": [2, 1, -3, 7, 46], "path": ["0", "0", "1", "2", "3", "4", "5"], "rt": [1436, 478, 502, 893, 430], "actions": ["up", "up", "up", "right", "up"], "actionTimes": [8018, 9002, 10011, 11418, 12339], "queries": {"click": {"state": {"target": [], "time": []}, "edge": {"target": [], "time": []}}, "mouseover": {"state": {"target": [], "time": []}, "edge": {"target": [], "time": []}}, "mouseout": {"state": {"target": ["0", "0", "0"], "time": [79, 5488, 21340]}, "edge": {"target": [], "time": []}}}, "displayed_time": "20.58", "trialTime": 22105, "trial_type": "mouselab-mdp", "trial_index": 34, "time_elapsed": 1658213, "internal_node_id": "0.0-6.0-1.0-19.0"}}, {"uniqueid": "w23162235:a72967399", "current_trial": 35, "dateTime": 1693566279022, "trialdata": {"revealed_states": [], "clicked_states": [], "num_clicks_accrued": [0, 0, 0, 0, 0, 0, 0, 0, 0, 0, 0, 0, 0], "stateRewards": ["", -1, 2, -6, 6, 43, 78, 78, -2, 55, -29, -17, -2, -4, 1, -15, 13, 7, -79, 8, -28, -68, 36, -1, -3, 3, -16, 84, -18, 87, 10, 32, 13, -81], "withholdReward": false, "trial_id": "mdp_trial_21", "block": "test", "trialIndex": 24, "score": -35, "costs": 0, "simulationMode": [null, null, null, null, null], "rewards": [-1, -3, 3, -16, -18], "path": ["0", "0", "23", "24", "25", "26", "28"], "rt": [2231, 776, 672, 579, 325], "actions": ["left", "left", "left", "up", "right"], "actionTimes": [5551, 6838, 8031, 9118, 9966], "queries": {"click": {"state": {"target": [], "time": []}, "edge": {"target": [], "time": []}}, "mouseover": {"state": {"target": [], "time": []}, "edge": {"target": [], "time": []}}, "mouseout": {"state": {"target": ["0"], "time": [3691]}, "edge": {"target": [], "time": []}}}, "displayed_time": "17.32", "trialTime": 18734, "trial_type": "mouselab-mdp", "trial_index": 35, "time_elapsed": 1677385, "internal_node_id": "0.0-6.0-1.0-20.0"}}, {"uniqueid": "w23162235:a72967399", "current_trial": 36, "dateTime": 1693566298362, "trialdata": {"revealed_states": [], "clicked_states": [], "num_clicks_accrued": [0, 0, 0, 0, 0, 0, 0, 0, 0, 0, 0, 0, 0], "stateRewards": ["", 1, 1, -3, 2, 22, -25, -11, -5, 50, 49, 3, 1, -1, 8, 14, -85, -30, 57, -6, -39, -16, 59, -2, -1, 5, 5, 59, -16, 8, 4, 67, 56, -9], "withholdReward": false, "trial_id": "mdp_trial_22", "block": "test", "trialIndex": 25, "score": -24, "costs": 0, "simulationMode": [null, null, null, null, null], "rewards": [1, 1, -3, 2, -25], "path": ["0", "0", "1", "2", "3", "4", "6"], "rt": [5166, 125, 259, 230, 463], "actions": ["up", "up", "up", "right", "right"], "actionTimes": [7055, 7710, 8462, 9199, 10166], "queries": {"click": {"state": {"target": [], "time": []}, "edge": {"target": [], "time": []}}, "mouseover": {"state": {"target": ["0", "7", "6", "12", "7"], "time": [4367, 4966, 5332, 5486, 5983]}, "edge": {"target": [], "time": []}}, "mouseout": {"state": {"target": ["0", "0", "7", "6", "12", "7", "7"], "time": [4183, 4449, 4982, 5349, 5869, 6017, 14822]}, "edge": {"target": [], "time": []}}}, "displayed_time": "15.89", "trialTime": 18810, "trial_type": "mouselab-mdp", "trial_index": 36, "time_elapsed": 1696686, "internal_node_id": "0.0-6.0-1.0-21.0"}}, {"uniqueid": "w23162235:a72967399", "current_trial": 37, "dateTime": 1693566319085, "trialdata": {"revealed_states": [], "clicked_states": [], "num_clicks_accrued": [0, 0, 0, 0, 0, 0, 0, 0, 0, 0, 0, 0, 0], "stateRewards": ["", 2, -4, 7, 3, 23, -42, 4, 7, -81, -33, 7, -2, -4, 5, -1, 50, -57, -14, -13, -14, 44, 55, -2, -2, 5, -2, 33, 1, 57, -13, -7, 58, 87], "withholdReward": false, "trial_id": "mdp_trial_23", "block": "test", "trialIndex": 26, "score": 0, "costs": 0, "simulationMode": [null, null, null, null, null], "rewards": [-2, -2, 5, -2, 1], "path": ["0", "0", "23", "24", "25", "26", "28"], "rt": [1841, 215, 153, 639, 1243], "actions": ["left", "left", "left", "up", "right"], "actionTimes": [5407, 6144, 6815, 7967, 9712], "queries": {"click": {"state": {"target": [], "time": []}, "edge": {"target": [], "time": []}}, "mouseover": {"state": {"target": [], "time": []}, "edge": {"target": [], "time": []}}, "mouseout": {"state": {"target": ["7", "2", "1", "0", "1", "0"], "time": [2674, 2756, 2822, 4843, 17305, 19554]}, "edge": {"target": [], "time": []}}}, "displayed_time": "17.57", "trialTime": 20262, "trial_type": "mouselab-mdp", "trial_index": 37, "time_elapsed": 1717448, "internal_node_id": "0.0-6.0-1.0-22.0"}}, {"uniqueid": "w23162235:a72967399", "current_trial": 38, "dateTime": 1693566340941, "trialdata": {"revealed_states": [], "clicked_states": [], "num_clicks_accrued": [0, 0, 0, 0, 0, 0, 0, 0, 0, 0, 0, 0, 0], "stateRewards": ["", -1, -2, 4, 9, 10, -75, 39, 16, -43, 88, -19, -1, 1, 2, 4, -31, 10, 73, 12, 41, -64, -81, -2, 2, -6, 1, -81, -1, -26, 3, -59, -3, -20], "withholdReward": false, "trial_id": "mdp_trial_24", "block": "test", "trialIndex": 27, "score": -62, "costs": 0, "simulationMode": [null, null, null, null, null], "rewards": [-2, 2, -6, 3, -59], "path": ["0", "0", "23", "24", "25", "30", "31"], "rt": [1700, 449, 92, 1207, 858], "actions": ["left", "left", "left", "down", "right"], "actionTimes": [7684, 8652, 9307, 11027, 12395], "queries": {"click": {"state": {"target": [], "time": []}, "edge": {"target": [], "time": []}}, "mouseover": {"state": {"target": [], "time": []}, "edge": {"target": [], "time": []}}, "mouseout": {"state": {"target": ["12", "13", "0", "0"], "time": [5069, 5152, 12503, 20854]}, "edge": {"target": [], "time": []}}}, "displayed_time": "20.00", "trialTime": 21500, "trial_type": "mouselab-mdp", "trial_index": 38, "time_elapsed": 1739305, "internal_node_id": "0.0-6.0-1.0-23.0"}}, {"uniqueid": "w23162235:a72967399", "current_trial": 39, "dateTime": 1693566365516, "trialdata": {"revealed_states": [], "clicked_states": [], "num_clicks_accrued": [0, 0, 0, 0, 0, 0, 0, 0, 0, 0, 0, 0, 0], "stateRewards": ["", -1, 1, -1, 2, 19, 85, -18, 2, -3, -26, 36, 2, 4, 7, -9, -18, 70, 72, -5, 35, -20, -28, 1, -2, -4, -3, -59, -11, -63, -2, -72, 59, -69], "withholdReward": false, "trial_id": "mdp_trial_25", "block": "test", "trialIndex": 28, "score": -76, "costs": 0, "simulationMode": [null, null, null, null, null], "rewards": [1, -2, -4, -2, -69], "path": ["0", "0", "23", "24", "25", "30", "33"], "rt": [1604, 414, 658, 169, 239], "actions": ["left", "left", "left", "down", "left"], "actionTimes": [10625, 11553, 12713, 13377, 14113], "queries": {"click": {"state": {"target": [], "time": []}, "edge": {"target": [], "time": []}}, "mouseover": {"state": {"target": ["0"], "time": [9420]}, "edge": {"target": [], "time": []}}, "mouseout": {"state": {"target": ["0", "23", "23", "23"], "time": [9437, 17470, 20248, 23420]}, "edge": {"target": [], "time": []}}}, "displayed_time": "23.02", "trialTime": 24193, "trial_type": "mouselab-mdp", "trial_index": 39, "time_elapsed": 1763879, "internal_node_id": "0.0-6.0-1.0-24.0"}}, {"uniqueid": "w23162235:a72967399", "current_trial": 40, "dateTime": 1693566384905, "trialdata": {"revealed_states": [], "clicked_states": [], "num_clicks_accrued": [0, 0, 0, 0, 0, 0, 0, 0, 0, 0, 0, 0, 0], "stateRewards": ["", -1, 3, 1, -11, -22, -36, 19, -5, -70, -52, 50, -2, -4, 4, -2, -41, -83, 29, -2, 22, 10, -6, -2, 3, -2, 14, 54, 44, 77, -9, -65, -37, -40], "withholdReward": false, "trial_id": "mdp_trial_26", "block": "test", "trialIndex": 29, "score": -50, "costs": 0, "simulationMode": [null, null, null, null, null], "rewards": [-2, 3, -2, -9, -40], "path": ["0", "0", "23", "24", "25", "30", "33"], "rt": [1319, 190, 658, 1975, 695], "actions": ["left", "left", "left", "down", "left"], "actionTimes": [4656, 5361, 6537, 9033, 10233], "queries": {"click": {"state": {"target": [], "time": []}, "edge": {"target": [], "time": []}}, "mouseover": {"state": {"target": [], "time": []}, "edge": {"target": [], "time": []}}, "mouseout": {"state": {"target": ["12", "6", "4", "7", "1", "1", "0"], "time": [2318, 2352, 2636, 2671, 17189, 18001, 18036]}, "edge": {"target": [], "time": []}}}, "displayed_time": "17.34", "trialTime": 19032, "trial_type": "mouselab-mdp", "trial_index": 40, "time_elapsed": 1783269, "internal_node_id": "0.0-6.0-1.0-25.0"}}, {"uniqueid": "w23162235:a72967399", "current_trial": 41, "dateTime": 1693566411698, "trialdata": {"revealed_states": [], "clicked_states": ["23"], "num_clicks_accrued": [0, 0, 0, 0, 0, 0, 0, 0, 0, 0, 0, 0, 0], "stateRewards": ["", -1, -4, 8, 8, -68, 47, 24, -7, -61, 49, -69, -1, -1, 8, -7, 42, 1, -45, -11, 10, -63, -6, 1, 4, 6, -16, 79, -37, -58, -12, 81, 18, -53], "withholdReward": false, "trial_id": "mdp_trial_27", "block": "test", "trialIndex": 30, "score": -41.75, "costs": 0.25, "simulationMode": [null, null, null, null, null], "rewards": [1, 4, 6, -16, -37], "path": ["0", "0", "23", "24", "25", "26", "28"], "rt": [5524, 3281, 2147, 1831, 981], "actions": ["left", "left", "left", "up", "right"], "actionTimes": [12665, 16465, 19113, 21449, 22929], "queries": {"click": {"state": {"target": ["23"], "time": [8985]}, "edge": {"target": [], "time": []}}, "mouseover": {"state": {"target": ["23"], "time": [7797]}, "edge": {"target": [], "time": []}}, "mouseout": {"state": {"target": ["0", "23", "23", "23", "0", "0", "0", "23", "23", "0"], "time": [1246, 4000, 5062, 5729, 6247, 6513, 7579, 9004, 11781, 24546]}, "edge": {"target": [], "time": []}}}, "displayed_time": "23.43", "trialTime": 26353, "trial_type": "mouselab-mdp", "trial_index": 41, "time_elapsed": 1810061, "internal_node_id": "0.0-6.0-1.0-26.0"}}, {"uniqueid": "w23162235:a72967399", "current_trial": 42, "dateTime": 1693566432640, "trialdata": {"revealed_states": [], "clicked_states": [], "num_clicks_accrued": [0, 0, 0, 0, 0, 0, 0, 0, 0, 0, 0, 0, 0], "stateRewards": ["", -1, -3, -7, -4, -85, -70, 79, 8, 84, -66, 42, 2, -2, -3, -16, -54, -66, 68, -3, 21, -14, 7, -2, -1, -3, -8, 75, 80, 86, -7, -84, 73, -16], "withholdReward": false, "trial_id": "mdp_trial_28", "block": "test", "trialIndex": 31, "score": -85, "costs": 0, "simulationMode": [null, null, null, null, null], "rewards": [-1, -3, -7, -4, -70], "path": ["0", "0", "1", "2", "3", "4", "6"], "rt": [1627, 471, 10, 429, 467], "actions": ["up", "up", "up", "right", "right"], "actionTimes": [6638, 7614, 8119, 9086, 10055], "queries": {"click": {"state": {"target": [], "time": []}, "edge": {"target": [], "time": []}}, "mouseover": {"state": {"target": ["0", "23"], "time": [5174, 5536]}, "edge": {"target": [], "time": []}}, "mouseout": {"state": {"target": ["0", "0", "23"], "time": [4519, 5505, 5703]}, "edge": {"target": [], "time": []}}}, "displayed_time": "19.01", "trialTime": 20469, "trial_type": "mouselab-mdp", "trial_index": 42, "time_elapsed": 1831004, "internal_node_id": "0.0-6.0-1.0-27.0"}}, {"uniqueid": "w23162235:a72967399", "current_trial": 43, "dateTime": 1693566454337, "trialdata": {"revealed_states": [], "clicked_states": [], "num_clicks_accrued": [0, 0, 0, 0, 0, 0, 0, 0, 0, 0, 0, 0, 0], "stateRewards": ["", -1, -3, -7, -7, -76, 30, -49, 11, -70, 56, 2, 1, 4, -3, -14, -59, -83, -25, -9, -21, -67, -73, -2, 4, 4, -9, -11, -32, 60, 9, -87, 22, -64], "withholdReward": false, "trial_id": "mdp_trial_29", "block": "test", "trialIndex": 32, "score": 2, "costs": 0, "simulationMode": [null, null, null, null, null], "rewards": [-1, -3, -7, 11, 2], "path": ["0", "0", "1", "2", "3", "8", "11"], "rt": [1569, 226, 488, 462, 444], "actions": ["up", "up", "up", "left", "left"], "actionTimes": [6441, 7176, 8168, 9144, 10097], "queries": {"click": {"state": {"target": [], "time": []}, "edge": {"target": [], "time": []}}, "mouseover": {"state": {"target": ["0"], "time": [5231]}, "edge": {"target": [], "time": []}}, "mouseout": {"state": {"target": ["1", "0", "0"], "time": [4410, 5527, 19827]}, "edge": {"target": [], "time": []}}}, "displayed_time": "18.87", "trialTime": 21057, "trial_type": "mouselab-mdp", "trial_index": 43, "time_elapsed": 1852700, "internal_node_id": "0.0-6.0-1.0-28.0"}}, {"uniqueid": "w23162235:a72967399", "current_trial": 44, "dateTime": 1693566477144, "trialdata": {"revealed_states": [], "clicked_states": [], "num_clicks_accrued": [0, 0, 0, 0, 0, 0, 0, 0, 0, 0, 0, 0, 0], "stateRewards": ["", -1, 1, -2, 5, 73, 15, 61, 8, 7, 38, 76, 2, 2, -4, -6, -6, -26, 43, -5, -45, -85, -35, -2, 1, -4, 15, -10, 69, 72, -11, 84, -49, -38], "withholdReward": false, "trial_id": "mdp_trial_30", "block": "test", "trialIndex": 33, "score": -50, "costs": 0, "simulationMode": [null, null, null, null, null], "rewards": [2, 2, -4, -5, -45], "path": ["0", "0", "12", "13", "14", "19", "20"], "rt": [2671, 643, 5506, 1793, 748], "actions": ["right", "right", "right", "down", "right"], "actionTimes": [8253, 9406, 15429, 17733, 18973], "queries": {"click": {"state": {"target": [], "time": []}, "edge": {"target": [], "time": []}}, "mouseover": {"state": {"target": ["12"], "time": [7323]}, "edge": {"target": [], "time": []}}, "mouseout": {"state": {"target": ["0", "1", "1", "12", "12", "12", "14", "13"], "time": [4435, 4503, 4753, 8035, 8773, 10253, 21358, 21403]}, "edge": {"target": [], "time": []}}}, "displayed_time": "19.59", "trialTime": 22341, "trial_type": "mouselab-mdp", "trial_index": 44, "time_elapsed": 1875507, "internal_node_id": "0.0-6.0-1.0-29.0"}}, {"uniqueid": "w23162235:a72967399", "current_trial": 45, "dateTime": 1693566503481, "trialdata": {"revealed_states": [], "clicked_states": ["5"], "num_clicks_accrued": [0, 0, 0, 0, 0, 0, 0, 0, 0, 0, 0, 0, 0], "stateRewards": ["", -1, -3, 4, -10, -5, 79, -87, -2, 53, 29, -20, -2, -1, -5, 10, 27, 86, 46, -16, -29, 40, 3, 2, 4, -1, -6, 37, 79, -29, 7, 86, -62, 29], "withholdReward": false, "trial_id": "mdp_trial_31", "block": "test", "trialIndex": 34, "score": 26.85, "costs": -2.15, "simulationMode": [null, null, null, null, null], "rewards": [-2, -1, -5, 10, 27], "path": ["0", "0", "12", "13", "14", "15", "16"], "rt": [12908, 308, 187, 330, 472], "actions": ["right", "right", "right", "up", "up"], "actionTimes": [19763, 20588, 21283, 22115, 23091], "queries": {"click": {"state": {"target": ["5"], "time": [8893]}, "edge": {"target": [], "time": []}}, "mouseover": {"state": {"target": ["1", "2", "4", "5", "4", "7", "31", "30", "25", "25", "24"], "time": [7442, 7725, 8009, 8426, 9197, 9294, 10944, 11413, 15373, 15740, 18990]}, "edge": {"target": [], "time": []}}, "mouseout": {"state": {"target": ["0", "1", "2", "4", "5", "4", "7", "31", "30", "25", "25", "24", "30"], "time": [6108, 7609, 7943, 8025, 9160, 9252, 9379, 10997, 14873, 15473, 18906, 19206, 24823]}, "edge": {"target": [], "time": []}}}, "displayed_time": "23.59", "trialTime": 25950, "trial_type": "mouselab-mdp", "trial_index": 45, "time_elapsed": 1901844, "internal_node_id": "0.0-6.0-1.0-30.0"}}, {"uniqueid": "w23162235:a72967399", "current_trial": 46, "dateTime": 1693566523893, "trialdata": {"revealed_states": [], "clicked_states": ["11"], "num_clicks_accrued": [0, 0, 0, 0, 0, 0, 0, 0, 0, 0, 0, 0, 0], "stateRewards": ["", 1, -2, -2, 10, -31, -77, 35, 9, -47, 8, 48, -2, 1, -4, -3, -26, -50, 43, -11, 76, -38, 17, 1, -1, 6, 10, 15, -9, 12, -8, 85, 11, -55], "withholdReward": false, "trial_id": "mdp_trial_32", "block": "test", "trialIndex": 35, "score": 51.85, "costs": -2.15, "simulationMode": [null, null, null, null, null], "rewards": [1, -2, -2, 9, 48], "path": ["0", "0", "1", "2", "3", "8", "11"], "rt": [6551, 444, 388, 703, 401], "actions": ["up", "up", "up", "left", "left"], "actionTimes": [11265, 12233, 13129, 14352, 15264], "queries": {"click": {"state": {"target": ["11"], "time": [5585]}, "edge": {"target": [], "time": []}}, "mouseover": {"state": {"target": ["11", "28", "24", "25", "24"], "time": [5364, 6044, 6112, 7294, 9226]}, "edge": {"target": [], "time": []}}, "mouseout": {"state": {"target": ["32", "31", "23", "1", "0", "11", "28", "24", "25"], "time": [3809, 3875, 3943, 4065, 4325, 5943, 6078, 7195, 8575]}, "edge": {"target": [], "time": []}}}, "displayed_time": "18.71", "trialTime": 20032, "trial_type": "mouselab-mdp", "trial_index": 46, "time_elapsed": 1922257, "internal_node_id": "0.0-6.0-1.0-31.0"}}, {"uniqueid": "w23162235:a72967399", "current_trial": 47, "dateTime": 1693566544469, "trialdata": {"revealed_states": [], "clicked_states": ["1"], "num_clicks_accrued": [0, 0, 0, 0, 0, 0, 0, 0, 0, 0, 0, 0, 0], "stateRewards": ["", -2, 2, -2, -7, -50, -62, -45, 7, 36, -24, -72, -1, -1, 8, -1, -67, 20, -52, 2, 35, -50, 80, -1, 1, 6, -6, -70, 6, 88, 8, -47, 74, -19], "withholdReward": false, "trial_id": "mdp_trial_33", "block": "test", "trialIndex": 36, "score": -70.75, "costs": 0.25, "simulationMode": [null, null, null, null, null], "rewards": [-2, 2, -2, -7, -62], "path": ["0", "0", "1", "2", "3", "4", "6"], "rt": [4734, 430, 279, 640, 80], "actions": ["up", "up", "up", "right", "right"], "actionTimes": [9044, 9988, 10796, 11932, 12508], "queries": {"click": {"state": {"target": ["1"], "time": [6904]}, "edge": {"target": [], "time": []}}, "mouseover": {"state": {"target": ["0", "1", "2"], "time": [6221, 6438, 7629]}, "edge": {"target": [], "time": []}}, "mouseout": {"state": {"target": ["24", "10", "1", "0", "1", "2", "2"], "time": [1621, 3471, 3654, 6358, 7388, 8376, 14423]}, "edge": {"target": [], "time": []}}}, "displayed_time": "18.31", "trialTime": 20204, "trial_type": "mouselab-mdp", "trial_index": 47, "time_elapsed": 1942833, "internal_node_id": "0.0-6.0-1.0-32.0"}}, {"uniqueid": "w23162235:a72967399", "current_trial": 48, "dateTime": 1693566565437, "trialdata": {"revealed_states": [], "clicked_states": [], "num_clicks_accrued": [0, 0, 0, 0, 0, 0, 0, 0, 0, 0, 0, 0, 0], "stateRewards": ["", -2, -1, 3, -3, 71, -58, -21, 7, -10, -75, -37, 2, 4, -1, -12, -79, -29, -48, 3, -41, -10, -30, -1, -2, 1, -15, 13, 66, 22, -1, -42, -86, -55], "withholdReward": false, "trial_id": "mdp_trial_34", "block": "test", "trialIndex": 37, "score": -86, "costs": 0, "simulationMode": [null, null, null, null, null], "rewards": [2, 4, -1, -12, -79], "path": ["0", "0", "12", "13", "14", "15", "16"], "rt": [1646, 584, 78, 473, 399], "actions": ["right", "right", "right", "up", "up"], "actionTimes": [5802, 6888, 7480, 8448, 9336], "queries": {"click": {"state": {"target": [], "time": []}, "edge": {"target": [], "time": []}}, "mouseover": {"state": {"target": [], "time": []}, "edge": {"target": [], "time": []}}, "mouseout": {"state": {"target": ["23", "0", "0"], "time": [2285, 3301, 4335]}, "edge": {"target": [], "time": []}}}, "displayed_time": "18.17", "trialTime": 20569, "trial_type": "mouselab-mdp", "trial_index": 48, "time_elapsed": 1963800, "internal_node_id": "0.0-6.0-1.0-33.0"}}, {"uniqueid": "w23162235:a72967399", "current_trial": 49, "dateTime": 1693566585624, "trialdata": {"revealed_states": [], "clicked_states": [], "num_clicks_accrued": [0, 0, 0, 0, 0, 0, 0, 0, 0, 0, 0, 0, 0], "stateRewards": ["", -2, -2, -3, -6, -15, -11, 41, -12, -63, -76, 2, -2, -3, 8, 9, -36, -2, -18, -16, -32, -85, -17, -2, 1, 5, -16, 82, 35, -88, -1, 80, -82, -20], "withholdReward": false, "trial_id": "mdp_trial_35", "block": "test", "trialIndex": 38, "score": -28, "costs": 0, "simulationMode": [null, null, null, null, null], "rewards": [-2, -2, -3, -6, -15], "path": ["0", "0", "1", "2", "3", "4", "5"], "rt": [1928, 325, 358, 303, 1018], "actions": ["up", "up", "up", "right", "up"], "actionTimes": [6418, 7266, 8138, 8954, 10466], "queries": {"click": {"state": {"target": [], "time": []}, "edge": {"target": [], "time": []}}, "mouseover": {"state": {"target": ["23"], "time": [6129]}, "edge": {"target": [], "time": []}}, "mouseout": {"state": {"target": ["0", "23"], "time": [4028, 6679]}, "edge": {"target": [], "time": []}}}, "displayed_time": "18.49", "trialTime": 19748, "trial_type": "mouselab-mdp", "trial_index": 49, "time_elapsed": 1983987, "internal_node_id": "0.0-6.0-1.0-34.0"}}, {"uniqueid": "w23162235:a72967399", "current_trial": 50, "dateTime": 1693566605109, "trialdata": {"revealed_states": [], "clicked_states": [], "num_clicks_accrued": [0, 0, 0, 0, 0, 0, 0, 0, 0, 0, 0, 0, 0], "stateRewards": ["", 1, -2, -8, -13, 4, 34, -84, -4, -49, 88, -70, -1, 3, -4, 10, -77, 13, -34, 15, -21, -16, 27, 1, -2, 8, -8, -6, 38, -26, 6, -15, 66, -3], "withholdReward": false, "trial_id": "mdp_trial_36", "block": "test", "trialIndex": 39, "score": 37, "costs": 0, "simulationMode": [null, null, null, null, null], "rewards": [1, -2, 8, -8, 38], "path": ["0", "0", "23", "24", "25", "26", "28"], "rt": [1736, 437, 1073, 21, 294], "actions": ["left", "left", "left", "up", "right"], "actionTimes": [4556, 5492, 7060, 7596, 8420], "queries": {"click": {"state": {"target": [], "time": []}, "edge": {"target": [], "time": []}}, "mouseover": {"state": {"target": ["23", "24", "24"], "time": [3286, 3352, 3636]}, "edge": {"target": [], "time": []}}, "mouseout": {"state": {"target": ["0", "23", "24", "24", "23"], "time": [3236, 3320, 3425, 3721, 8904]}, "edge": {"target": [], "time": []}}}, "displayed_time": "16.82", "trialTime": 19092, "trial_type": "mouselab-mdp", "trial_index": 50, "time_elapsed": 2003472, "internal_node_id": "0.0-6.0-1.0-35.0"}}, {"uniqueid": "w23162235:a72967399", "current_trial": 51, "dateTime": 1693566625835, "trialdata": {"revealed_states": [], "clicked_states": [], "num_clicks_accrued": [0, 0, 0, 0, 0, 0, 0, 0, 0, 0, 0, 0, 0], "stateRewards": ["", 2, 4, -6, -13, -75, -81, 30, 7, 5, 59, -65, -1, -1, 7, 14, -38, 36, -41, 1, -54, -5, 64, 2, -1, 5, 6, -19, 79, 11, 16, -33, -50, 58], "withholdReward": false, "trial_id": "mdp_trial_37", "block": "test", "trialIndex": 40, "score": 12, "costs": 0, "simulationMode": [null, null, null, null, null], "rewards": [2, 4, -6, 7, 5], "path": ["0", "0", "1", "2", "3", "8", "9"], "rt": [6370, 870, 587, 2025, 144], "actions": ["up", "up", "up", "left", "up"], "actionTimes": [11256, 12631, 13711, 16247, 16887], "queries": {"click": {"state": {"target": [], "time": []}, "edge": {"target": [], "time": []}}, "mouseover": {"state": {"target": ["0", "0", "0", "0", "1"], "time": [5954, 6852, 7219, 8985, 10385]}, "edge": {"target": [], "time": []}}, "mouseout": {"state": {"target": ["0", "0", "0", "0", "0", "1"], "time": [3538, 5987, 6869, 7690, 9185, 11739]}, "edge": {"target": [], "time": []}}}, "displayed_time": "18.89", "trialTime": 20320, "trial_type": "mouselab-mdp", "trial_index": 51, "time_elapsed": 2024198, "internal_node_id": "0.0-6.0-1.0-36.0"}}, {"uniqueid": "w23162235:a72967399", "current_trial": 52, "dateTime": 1693566649451, "trialdata": {"revealed_states": [], "clicked_states": ["3", "5"], "num_clicks_accrued": [0, 0, 0, 0, 0, 0, 0, 0, 0, 0, 0, 0, 0], "stateRewards": ["", -2, 2, 8, -6, -25, 3, 87, 2, -62, -2, 74, -2, -1, 2, -1, 79, 49, -37, -14, 5, 67, -9, -1, 2, -2, 5, 15, 38, 32, -14, -38, -38, 30], "withholdReward": false, "trial_id": "mdp_trial_38", "block": "test", "trialIndex": 41, "score": 1.9000000000000004, "costs": -3.0999999999999996, "simulationMode": [null, null, null, null, null, null], "rewards": [-2, 2, 8, -6, 3], "path": ["0", "0", "1", "2", "3", "4", "6"], "rt": [4492, 781, 239, 250, 1757, 661], "actions": ["up", "up", "up", "up", "right", "right"], "actionTimes": [7006, 7791, 8542, 9286, 11542, 12697], "queries": {"click": {"state": {"target": ["3", "5"], "time": [3766, 5244]}, "edge": {"target": [], "time": []}}, "mouseover": {"state": {"target": ["1", "2", "3", "3", "5", "2", "1", "0"], "time": [3065, 3099, 3134, 3481, 5099, 6001, 6066, 6220]}, "edge": {"target": [], "time": []}}, "mouseout": {"state": {"target": ["0", "1", "2", "3", "3", "5", "2", "1", "0"], "time": [3015, 3081, 3118, 3165, 4251, 5818, 6051, 6136, 6238]}, "edge": {"target": [], "time": []}}}, "displayed_time": "16.52", "trialTime": 23199, "trial_type": "mouselab-mdp", "trial_index": 52, "time_elapsed": 2047815, "internal_node_id": "0.0-6.0-1.0-37.0"}}, {"uniqueid": "w23162235:a72967399", "current_trial": 53, "dateTime": 1693566670270, "trialdata": {"revealed_states": [], "clicked_states": [], "num_clicks_accrued": [0, 0, 0, 0, 0, 0, 0, 0, 0, 0, 0, 0, 0], "stateRewards": ["", -2, -3, -7, 7, -54, -69, -4, -14, -77, 22, 40, -2, -1, 5, 6, -35, 50, -60, 10, -28, 75, 57, 1, -4, -2, 2, 68, 34, -18, 12, 3, -21, -43], "withholdReward": false, "trial_id": "mdp_trial_39", "block": "test", "trialIndex": 42, "score": 87, "costs": 0, "simulationMode": [null, null, null, null, null], "rewards": [-2, -1, 5, 10, 75], "path": ["0", "0", "12", "13", "14", "19", "21"], "rt": [1762, 572, 279, 733, 79], "actions": ["right", "right", "right", "down", "down"], "actionTimes": [4653, 5741, 6532, 7781, 8365], "queries": {"click": {"state": {"target": [], "time": []}, "edge": {"target": [], "time": []}}, "mouseover": {"state": {"target": ["12"], "time": [3664]}, "edge": {"target": [], "time": []}}, "mouseout": {"state": {"target": ["0", "1", "12", "12"], "time": [2097, 2380, 4464, 8696]}, "edge": {"target": [], "time": []}}}, "displayed_time": "16.89", "trialTime": 20397, "trial_type": "mouselab-mdp", "trial_index": 53, "time_elapsed": 2068633, "internal_node_id": "0.0-6.0-1.0-38.0"}}, {"uniqueid": "w23162235:a72967399", "current_trial": 54, "dateTime": 1693566691945, "trialdata": {"revealed_states": [], "clicked_states": ["27"], "num_clicks_accrued": [0, 0, 0, 0, 0, 0, 0, 0, 0, 0, 0, 0, 0], "stateRewards": ["", -1, 1, 8, -3, -24, 11, -65, -6, -77, 48, 44, -2, 1, -2, -7, -55, -35, 33, 8, -28, 19, -53, -1, -1, -5, -5, -70, 10, 44, 8, -58, -70, 51], "withholdReward": false, "trial_id": "mdp_trial_40", "block": "test", "trialIndex": 43, "score": -71.15, "costs": -2.15, "simulationMode": [null, null, null, null, null], "rewards": [-1, -1, -5, 8, -70], "path": ["0", "0", "23", "24", "25", "30", "32"], "rt": [5224, 447, 523, 1518, 198], "actions": ["left", "left", "left", "down", "down"], "actionTimes": [10199, 11151, 12191, 14223, 14919], "queries": {"click": {"state": {"target": ["27"], "time": [6020]}, "edge": {"target": [], "time": []}}, "mouseover": {"state": {"target": ["27", "26", "29", "29", "26", "23", "0"], "time": [5667, 6605, 7102, 7385, 8268, 8668, 8771]}, "edge": {"target": [], "time": []}}, "mouseout": {"state": {"target": ["20", "17", "15", "13", "12", "0", "27", "26", "29", "29", "26", "23", "0"], "time": [3451, 3800, 3849, 3950, 3999, 4033, 6503, 7084, 7121, 8186, 8284, 8736, 8969]}, "edge": {"target": [], "time": []}}}, "displayed_time": "18.98", "trialTime": 21263, "trial_type": "mouselab-mdp", "trial_index": 54, "time_elapsed": 2090308, "internal_node_id": "0.0-6.0-1.0-39.0"}}, {"uniqueid": "w23162235:a72967399", "current_trial": 55, "dateTime": 1693566793958, "trialdata": {"rt": 101645, "response": {"Q0": "$-2 to $2", "Q1": "$-16 to $16", "Q2": "$-88 to $88", "Q3": "The cost for clicking on nodes varied between nodes.", "Q4": "Slightly motivated"}, "question_order": [0, 1, 2, 3, 4], "trial_id": "final_quiz_control", "trial_type": "survey-multi-choice", "trial_index": 55, "time_elapsed": 2192322, "internal_node_id": "0.0-6.0-2.0"}}, {"uniqueid": "w23162235:a72967399", "current_trial": 56, "dateTime": 1693566938100, "trialdata": {"rt": 143107, "response": {"Q0": "if the up parts were negative the first two times, the third time they are going to be positive and vice versa", "Q1": "I don't think so", "Q2": "the instructions were difficult but the game was not too bad"}, "trial_id": "self_report_control", "trial_type": "survey-text", "trial_index": 56, "time_elapsed": 2336464, "internal_node_id": "0.0-6.0-3.0"}}, {"uniqueid": "w23162235:a72967399", "current_trial": 57, "dateTime": 1693566987724, "trialdata": {"rt": 49620, "response": {"Q0": "Agree", "Q1": "Neither disagree nor agree", "Q2": "Disagree", "Q3": "Disagree", "Q4": "Agree", "Q5": "Agree", "Q6": "Disagree"}, "question_order": [0, 1, 2, 3, 4, 5, 6], "trial_id": "self_report_2", "trial_type": "survey-multi-choice", "trial_index": 57, "time_elapsed": 2386088, "internal_node_id": "0.0-6.0-4.0"}}, {"uniqueid": "w23162235:a72967399", "current_trial": 58, "dateTime": 1693567025310, "trialdata": {"rt": 37444, "response": {"gender": "female", "age": "23", "colorblind": "0", "effort": "1"}, "trial_type": "survey-html-form", "trial_index": 58, "time_elapsed": 2423674, "internal_node_id": "0.0-6.0-5.0"}}, {"uniqueid": "w23162235:a72967399", "current_trial": 59, "dateTime": 1693567057298, "trialdata": {"rt": 31982, "response": {"Q0": "", "Q1": "no I did not", "Q2": ""}, "trial_type": "survey-text", "trial_index": 59, "time_elapsed": 2455662, "internal_node_id": "0.0-6.0-6.0"}}, {"uniqueid": "w23162235:a72967399", "current_trial": 60, "dateTime": 1693567073647, "trialdata": {"rt": 16289, "stimulus": "<h1>Completion Code Instructions (1/2)</h1>\n<br><br><br><br>\nYou have reached the end of the experiment! The completion code consists of two parts: (1) a code with 2 characters (2) a code with 6 characters. On this page, you will receive the second part of the code. The first part of the completion code will be on the next page.\n<br><br>\nThe second part of your completion code is: <b>EWEK22</b>\n<br><br>\nPlease note this down. Then, press 'Finish HIT' in order to find the first part of your completion code. Once the data has been saved, you will receive this code either in this window or in the original browser window where you started the experiment.\n", "response": 0, "trial_type": "html-button-response", "trial_index": 60, "time_elapsed": 2472010, "internal_node_id": "0.0-6.0-7.0"}}, {"uniqueid": "w23162235:a72967399", "current_trial": 61, "dateTime": 1693567075089, "trialdata": {"success": true, "trial_type": "fullscreen", "trial_index": 61, "time_elapsed": 2473453, "internal_node_id": "0.0-7.0"}}], "questiondata": {"params": {"CODE": "C6DMOQA6", "MIN_TIME": 14, "inspectCost": 1, "startTime": "Fri Sep 01 2023 12:36:39 GMT+0200 (South Africa Standard Time)", "bonusRate": 0.002, "variance": "1_2_4_8_44", "branching": "31123"}, "final_score": -315.35}, "eventdata": [{"eventtype": "initialized", "value": null, "timestamp": 1693564599102, "interval": 0}, {"eventtype": "window_resize", "value": [1024, 767], "timestamp": 1693564599102, "interval": 0}, {"eventtype": "window_resize", "value": [1024, 767], "timestamp": 1693564599581, "interval": 479}, {"eventtype": "window_resize", "value": [1600, 900], "timestamp": 1693564613381, "interval": 13800}, {"eventtype": "focus", "value": "off", "timestamp": 1693565418189, "interval": 804808}, {"eventtype": "focus", "value": "on", "timestamp": 1693565418189, "interval": 0}, {"eventtype": "window_resize", "value": [1024, 767], "timestamp": 1693565418415, "interval": 226}, {"eventtype": "focus", "value": "off", "timestamp": 1693565419024, "interval": 609}, {"eventtype": "focus", "value": "on", "timestamp": 1693565427880, "interval": 8856}, {"eventtype": "focus", "value": "off", "timestamp": 1693565427884, "interval": 4}, {"eventtype": "focus", "value": "on", "timestamp": 1693565428073, "interval": 189}, {"eventtype": "window_resize", "value": [1600, 900], "timestamp": 1693565429365, "interval": 1292}], "useragent": "Mozilla/5.0 (Windows NT 10.0; Win64; x64) AppleWebKit/537.36 (KHTML, like Gecko) Chrome/116.0.0.0 Safari/537.36", "mode": "live", "id": "w23162235:a72967399", "status": "user data saved", "Beginhit": "2023-09-01 10:34:37.279881", "Beginexp": "2023-09-01 10:34:56.716675", "Endhit": "2023-09-01 11:16:01.796822", "psiturkStatus": 3, "browser": "<redacted>", "platform": "windows", "language": "en-US"}