{"condition": 1, "counterbalance": 0, "assignmentId": "a82022501", "workerId": "w96010362", "hitId": "h47882435", "currenttrial": 56, "bonus": 0, "data": [{"uniqueid": "w96010362:a82022501", "current_trial": 0, "dateTime": 1691071041071, "trialdata": {"success": true, "trial_type": "fullscreen", "trial_index": 0, "time_elapsed": 3284, "internal_node_id": "0.0-0.0"}}, {"uniqueid": "w96010362:a82022501", "current_trial": 1, "dateTime": 1691071043125, "trialdata": {"view_history": [{"page_index": 0, "viewing_time": 2052}], "rt": 2052, "trial_id": "exp_instructions_misaligned", "trial_type": "instructions", "trial_index": 1, "time_elapsed": 5338, "internal_node_id": "0.0-1.0"}}, {"uniqueid": "w96010362:a82022501", "current_trial": 2, "dateTime": 1691071046676, "trialdata": {"success": true, "trial_type": "fullscreen", "trial_index": 2, "time_elapsed": 8889, "internal_node_id": "0.0-2.0-0.0"}}, {"uniqueid": "w96010362:a82022501", "current_trial": 3, "dateTime": 1691071274465, "trialdata": {"view_history": [{"page_index": 0, "viewing_time": 102506}, {"page_index": 1, "viewing_time": 81958}, {"page_index": 2, "viewing_time": 16273}, {"page_index": 3, "viewing_time": 27052}], "rt": 227788, "trial_id": "mouselab_instructions_1_misaligned", "trial_type": "instructions", "trial_index": 3, "time_elapsed": 236678, "internal_node_id": "0.0-2.0-1.0"}}, {"uniqueid": "w96010362:a82022501", "current_trial": 4, "dateTime": 1691071304393, "trialdata": {"revealed_states": [], "clicked_states": ["24", "3", "14"], "num_clicks_accrued": [0, 0, 0, 0, 0, 0, 0, 0, 0, 0, 0, 0, 0], "stateRewards": ["", 10, -10, -10, -10, 10, -10, 10, 10, 10, -10, 10, -10, 10, -10, 10, -10, 10, -10, -10, -10, -10, -10, -10, -10, 10, -10, -10, 10, 10, -10, -10, 10, -10], "withholdReward": false, "trial_id": "practice_1", "block": "test", "trialIndex": 0, "score": -28, "costs": -1.5, "simulationMode": [null, null, null, null, null], "rewards": [-10, -10, 10, -10, -10], "path": ["0", "0", "23", "24", "25", "26", "27"], "rt": [10975, 4803, 3058, 652, 2497], "actions": ["left", "left", "left", "up", "up"], "actionTimes": [13647, 18951, 22511, 23670, 26672], "queries": {"click": {"state": {"target": ["24", "3", "14"], "time": [5016, 7382, 10005]}, "edge": {"target": [], "time": []}}, "mouseover": {"state": {"target": ["23", "24", "10", "3", "2", "1", "13", "14"], "time": [4383, 4467, 6848, 7157, 8011, 8095, 8269, 8889]}, "edge": {"target": [], "time": []}}, "mouseout": {"state": {"target": ["12", "0", "23", "24", "10", "3", "2", "1", "13", "14"], "time": [1475, 4342, 4426, 6445, 6890, 7970, 8060, 8102, 8791, 10226]}, "edge": {"target": [], "time": []}}}, "displayed_time": "27.18", "trialTime": 29680, "trial_type": "mouselab-mdp", "trial_index": 4, "time_elapsed": 266605, "internal_node_id": "0.0-2.0-2.0-0.0"}}, {"uniqueid": "w96010362:a82022501", "current_trial": 5, "dateTime": 1691071327287, "trialdata": {"revealed_states": [], "clicked_states": ["32", "9", "21"], "num_clicks_accrued": [0, 0, 0, 0, 0, 0, 0, 0, 0, 0, 0, 0, 0], "stateRewards": ["", 10, -10, -10, -10, -10, 10, 10, 10, 10, -10, -10, -10, -10, -10, 10, -10, -10, -10, -10, 10, 10, -10, -10, -10, 10, 10, -10, 10, 10, 10, 10, 10, -10], "withholdReward": false, "trial_id": "practice_2", "block": "test", "trialIndex": 1, "score": -28, "costs": -1.5, "simulationMode": [null, null, null, null, null], "rewards": [-10, -10, -10, -10, 10], "path": ["0", "0", "12", "13", "14", "19", "21"], "rt": [13170, 331, 270, 184, 286], "actions": ["right", "right", "right", "down", "down"], "actionTimes": [17269, 18101, 18869, 19556, 20340], "queries": {"click": {"state": {"target": ["32", "9", "21"], "time": [9417, 10652, 14125]}, "edge": {"target": [], "time": []}}, "mouseover": {"state": {"target": ["23", "30", "32", "32", "0", "1", "2", "3", "9", "4", "6", "15", "14", "19", "21", "21", "21"], "time": [5056, 7930, 8278, 8461, 9810, 9852, 9887, 9922, 10381, 10966, 10994, 11134, 11182, 11210, 11280, 11461, 13599]}, "edge": {"target": [], "time": []}}, "mouseout": {"state": {"target": ["15", "18", "1", "28", "25", "24", "0", "23", "30", "32", "32", "0", "1", "2", "3", "9", "4", "6", "15", "14", "19", "21", "21", "21"], "time": [3237, 3244, 3272, 3299, 3432, 3446, 4992, 7735, 8251, 8348, 9588, 9824, 9873, 9908, 9943, 10876, 10980, 11015, 11168, 11196, 11252, 11412, 11732, 14378]}, "edge": {"target": [], "time": []}}}, "displayed_time": "20.84", "trialTime": 22789, "trial_type": "mouselab-mdp", "trial_index": 5, "time_elapsed": 289500, "internal_node_id": "0.0-2.0-2.0-1.0"}}, {"uniqueid": "w96010362:a82022501", "current_trial": 6, "dateTime": 1691071357347, "trialdata": {"view_history": [{"page_index": 0, "viewing_time": 19399}, {"page_index": 1, "viewing_time": 10660}], "rt": 30059, "trial_id": "mouselab_instructions_2_misaligned", "trial_type": "instructions", "trial_index": 6, "time_elapsed": 319560, "internal_node_id": "0.0-2.0-3.0"}}, {"uniqueid": "w96010362:a82022501", "current_trial": 7, "dateTime": 1691071386580, "trialdata": {"rt": 29231, "response": {"Q0": "The cost for clicking on nodes may vary between nodes.", "Q1": "The better I perform the higher my bonus will be.", "Q2": "No, the amount of cash at each node of the web may be different each time.", "Q3": "To get the highest total score.", "Q4": "Only before moving the spider.", "Q5": "3 seconds"}, "question_order": [0, 1, 2, 3, 4, 5], "correct": {"Q0": "The cost for clicking on nodes may vary between nodes.", "Q1": "The better I perform the higher my bonus will be.", "Q2": "No, the amount of cash at each node of the web may be different each time.", "Q3": "To get the highest total score.", "Q4": "Only before moving the spider.", "Q5": "3 seconds"}, "trial_id": "mouselab_quiz_misaligned", "trial_type": "survey-multi-choice", "trial_index": 7, "time_elapsed": 348793, "internal_node_id": "0.0-2.0-4.0"}}, {"uniqueid": "w96010362:a82022501", "current_trial": 8, "dateTime": 1691071410654, "trialdata": {"rt": 24072, "stimulus": "\n<h1> Get ready to start the game! </h1>\n\nThank you for reading the instructions. Get ready start with the 40 rounds of this game.\n<br><br>\nIf you need to take a break, feel free to take one after the end of a round, before continuing to the next one.\n<br><br>\nRemember, the more money the spider gets, the bigger your bonus will be!\n<br><br>\n<div style='text-align: center;'>Press <code>space</code> to begin.</div>\n\n<br><br>\n(If, at any point, the <code>space</code> key does not take you to the next page, click once on the text and try again.)", "response": " ", "trial_id": "mdp_ready", "trial_type": "html-keyboard-response", "trial_index": 8, "time_elapsed": 372866, "internal_node_id": "0.0-4.0-0.0"}}, {"uniqueid": "w96010362:a82022501", "current_trial": 9, "dateTime": 1691071432542, "trialdata": {"revealed_states": [], "clicked_states": ["21", "32", "5"], "num_clicks_accrued": [0, 0, 0, 0, 0, 0, 0, 0, 0, 0, 0, 0, 0], "stateRewards": ["", 2, 3, 6, -12, -29, 12, 87, 4, 35, -30, 67, 2, 3, -5, -9, 44, 69, -8, 1, 45, -8, 28, -2, -1, -8, 11, -12, -5, 81, 9, 87, 82, 88], "withholdReward": false, "trial_id": "mdp_trial_1", "block": "test", "trialIndex": 2, "score": 73.55, "costs": -6.449999999999999, "simulationMode": [null, null, null, null, null], "rewards": [-2, -1, -8, 9, 82], "path": ["0", "0", "23", "24", "25", "30", "32"], "rt": [12660, 834, 625, 161, 205], "actions": ["left", "left", "left", "down", "down"], "actionTimes": [15025, 16360, 17489, 18152, 18857], "queries": {"click": {"state": {"target": ["21", "32", "5"], "time": [4245, 7508, 11161]}, "edge": {"target": [], "time": []}}, "mouseover": {"state": {"target": ["0", "12", "13", "14", "19", "21", "32", "31", "23", "23", "31", "32", "31", "23", "1", "2", "5"], "time": [2477, 2622, 3109, 3160, 3625, 3992, 4816, 5588, 5665, 5895, 6730, 7039, 7768, 7817, 7865, 7942, 8966]}, "edge": {"target": [], "time": []}}, "mouseout": {"state": {"target": ["17", "14", "13", "12", "0", "0", "12", "13", "14", "19", "21", "32", "31", "23", "23", "31", "32", "31", "23", "1", "2", "5", "5"], "time": [442, 568, 595, 616, 2368, 2545, 2754, 3130, 3576, 3862, 4273, 5540, 5609, 5679, 5909, 6744, 7741, 7775, 7831, 7907, 7984, 12426, 13979]}, "edge": {"target": [], "time": []}}}, "displayed_time": "19.36", "trialTime": 21778, "trial_type": "mouselab-mdp", "trial_index": 9, "time_elapsed": 394755, "internal_node_id": "0.0-4.0-1.0-0.0"}}, {"uniqueid": "w96010362:a82022501", "current_trial": 10, "dateTime": 1691071453197, "trialdata": {"revealed_states": [], "clicked_states": ["5", "16", "20"], "num_clicks_accrued": [0, 0, 0, 0, 0, 0, 0, 0, 0, 0, 0, 0, 0], "stateRewards": ["", -2, -4, 2, 10, -17, 18, 73, 11, -32, 23, -13, -2, -4, 7, 12, -25, 66, -23, 15, 40, -76, -9, 1, 2, -7, -5, -20, 24, 3, -5, 16, -73, 70], "withholdReward": false, "trial_id": "mdp_trial_2", "block": "test", "trialIndex": 3, "score": 49.55, "costs": -6.449999999999999, "simulationMode": [null, null, null, null, null], "rewards": [-2, -4, 7, 15, 40], "path": ["0", "0", "12", "13", "14", "19", "20"], "rt": [13780, 279, 161, 157, 312], "actions": ["right", "right", "right", "down", "right"], "actionTimes": [15505, 16287, 16949, 17613, 18422], "queries": {"click": {"state": {"target": ["5", "16", "20"], "time": [4127, 7760, 11164]}, "edge": {"target": [], "time": []}}, "mouseover": {"state": {"target": ["1", "4", "5", "6", "16", "20"], "time": [2227, 3808, 3954, 5200, 5311, 10032]}, "edge": {"target": [], "time": []}}, "mouseout": {"state": {"target": ["17", "15", "15", "18", "12", "0", "1", "4", "5", "6", "16", "20"], "time": [819, 876, 1265, 1314, 1335, 2089, 2339, 3891, 4916, 5242, 8821, 11390]}, "edge": {"target": [], "time": []}}}, "displayed_time": "18.93", "trialTime": 20549, "trial_type": "mouselab-mdp", "trial_index": 10, "time_elapsed": 415410, "internal_node_id": "0.0-4.0-1.0-1.0"}}, {"uniqueid": "w96010362:a82022501", "current_trial": 11, "dateTime": 1691071475973, "trialdata": {"revealed_states": [], "clicked_states": ["33", "5", "16"], "num_clicks_accrued": [0, 0, 0, 0, 0, 0, 0, 0, 0, 0, 0, 0, 0], "stateRewards": ["", -2, 3, 8, -9, 59, 41, -50, -1, 82, 66, 33, 2, -2, 7, 8, 1, -38, 12, -16, 24, -37, 67, 1, 4, -2, 5, 35, -83, 28, 8, -27, 69, -64], "withholdReward": false, "trial_id": "mdp_trial_3", "block": "test", "trialIndex": 4, "score": 52.55, "costs": -6.449999999999999, "simulationMode": [null, null, null, null, null], "rewards": [-2, 3, 8, -9, 59], "path": ["0", "0", "1", "2", "3", "4", "5"], "rt": [13302, 186, 83, 41, 75], "actions": ["up", "up", "up", "right", "up"], "actionTimes": [15521, 16209, 16794, 17336, 17913], "queries": {"click": {"state": {"target": ["33", "5", "16"], "time": [4893, 8679, 11973]}, "edge": {"target": [], "time": []}}, "mouseover": {"state": {"target": ["30", "33", "25", "26", "27", "8", "5", "4", "7", "16"], "time": [3118, 3320, 6265, 6307, 6509, 8242, 8451, 8932, 9169, 11557]}, "edge": {"target": [], "time": []}}, "mouseout": {"state": {"target": ["19", "22", "0", "30", "33", "25", "26", "27", "8", "5", "4", "7", "16"], "time": [1641, 1655, 2826, 3229, 6223, 6286, 6363, 8173, 8257, 8890, 9071, 9392, 12233]}, "edge": {"target": [], "time": []}}}, "displayed_time": "18.42", "trialTime": 22664, "trial_type": "mouselab-mdp", "trial_index": 11, "time_elapsed": 438186, "internal_node_id": "0.0-4.0-1.0-2.0"}}, {"uniqueid": "w96010362:a82022501", "current_trial": 12, "dateTime": 1691071494660, "trialdata": {"revealed_states": [], "clicked_states": ["20", "5", "29"], "num_clicks_accrued": [0, 0, 0, 0, 0, 0, 0, 0, 0, 0, 0, 0, 0], "stateRewards": ["", -2, -3, -6, -7, 9, 16, 65, 5, -41, 20, -25, -1, -4, 1, -11, -49, -4, 71, 1, 39, -62, 52, -2, -3, 7, -9, -28, -70, 84, 8, 24, -58, 82], "withholdReward": false, "trial_id": "mdp_trial_4", "block": "test", "trialIndex": 5, "score": 70.55, "costs": -6.449999999999999, "simulationMode": [null, null, null, null, null], "rewards": [-2, -3, 7, -9, 84], "path": ["0", "0", "23", "24", "25", "26", "29"], "rt": [12912, 340, 123, 36, 110], "actions": ["left", "left", "left", "up", "left"], "actionTimes": [13877, 14715, 15340, 15875, 16483], "queries": {"click": {"state": {"target": ["20", "5", "29"], "time": [2174, 7417, 10615]}, "edge": {"target": [], "time": []}}, "mouseover": {"state": {"target": ["12", "13", "14", "20", "17", "16", "6", "5", "5", "5", "6", "2", "10", "28", "26", "29", "25", "31"], "time": [1235, 1346, 1521, 1764, 6157, 6562, 6603, 6652, 6777, 7321, 8226, 8281, 8309, 8351, 8372, 8497, 12703, 12766]}, "edge": {"target": [], "time": []}}, "mouseout": {"state": {"target": ["18", "12", "0", "12", "13", "14", "20", "17", "16", "6", "5", "5", "5", "6", "2", "10", "28", "26", "29", "25", "31"], "time": [587, 684, 859, 1319, 1444, 1576, 2405, 6520, 6582, 6624, 6694, 6854, 7634, 8246, 8295, 8323, 8358, 8393, 12662, 12738, 12780]}, "edge": {"target": [], "time": []}}}, "displayed_time": "16.99", "trialTime": 18587, "trial_type": "mouselab-mdp", "trial_index": 12, "time_elapsed": 456873, "internal_node_id": "0.0-4.0-1.0-3.0"}}, {"uniqueid": "w96010362:a82022501", "current_trial": 13, "dateTime": 1691071512872, "trialdata": {"revealed_states": [], "clicked_states": ["9", "33", "17"], "num_clicks_accrued": [0, 0, 0, 0, 0, 0, 0, 0, 0, 0, 0, 0, 0], "stateRewards": ["", -1, 3, 8, 10, -86, 61, -36, 10, 17, -60, 24, -1, -3, 3, 11, 50, 60, 33, -3, -20, 58, -6, 1, -4, -4, 13, -70, -71, 43, 14, 52, 82, -11], "withholdReward": false, "trial_id": "mdp_trial_5", "block": "test", "trialIndex": 6, "score": 63.55, "costs": -6.449999999999999, "simulationMode": [null, null, null, null, null], "rewards": [-1, -3, 3, 11, 60], "path": ["0", "0", "12", "13", "14", "15", "17"], "rt": [10605, 227, 153, 139, 139], "actions": ["right", "right", "right", "up", "right"], "actionTimes": [11626, 12353, 13009, 13650, 14290], "queries": {"click": {"state": {"target": ["9", "33", "17"], "time": [1907, 5044, 8283]}, "edge": {"target": [], "time": []}}, "mouseover": {"state": {"target": ["1", "2", "3", "9", "11", "26", "25", "33", "30", "20", "17"], "time": [1401, 1478, 1526, 1714, 2210, 2306, 2364, 2599, 5321, 5732, 6672]}, "edge": {"target": [], "time": []}}, "mouseout": {"state": {"target": ["0", "1", "2", "3", "9", "11", "26", "25", "33", "30", "20", "17"], "time": [879, 1450, 1505, 1568, 2160, 2223, 2334, 2390, 5294, 5335, 6408, 9304]}, "edge": {"target": [], "time": []}}}, "displayed_time": "15.02", "trialTime": 18108, "trial_type": "mouselab-mdp", "trial_index": 13, "time_elapsed": 475084, "internal_node_id": "0.0-4.0-1.0-4.0"}}, {"uniqueid": "w96010362:a82022501", "current_trial": 14, "dateTime": 1691071531917, "trialdata": {"revealed_states": [], "clicked_states": ["9", "20", "32"], "num_clicks_accrued": [0, 0, 0, 0, 0, 0, 0, 0, 0, 0, 0, 0, 0], "stateRewards": ["", -1, -4, 8, 8, -68, 47, 24, -7, -61, 49, -69, -1, -1, 8, -7, 42, 1, -45, -11, 10, -63, -6, 1, 4, 6, -16, 79, -37, -58, -12, 81, 18, -53], "withholdReward": false, "trial_id": "mdp_trial_6", "block": "test", "trialIndex": 7, "score": 10.55, "costs": -6.449999999999999, "simulationMode": [null, null, null, null, null], "rewards": [1, 4, 6, -12, 18], "path": ["0", "0", "23", "24", "25", "30", "32"], "rt": [13986, 144, 128, 148, 223], "actions": ["left", "left", "left", "down", "down"], "actionTimes": [15138, 15785, 16410, 17057, 17787], "queries": {"click": {"state": {"target": ["9", "20", "32"], "time": [3185, 7320, 11282]}, "edge": {"target": [], "time": []}}, "mouseover": {"state": {"target": ["12", "2", "3", "9", "11", "8", "9", "2", "1", "0", "22", "20", "21", "32"], "time": [1338, 1519, 1561, 1750, 2411, 2794, 2961, 3462, 3497, 4082, 6456, 7049, 7577, 10968]}, "edge": {"target": [], "time": []}}, "mouseout": {"state": {"target": ["15", "13", "0", "12", "2", "3", "9", "11", "8", "9", "2", "1", "0", "22", "20", "21", "32", "32"], "time": [712, 760, 1262, 1415, 1540, 1610, 2341, 2731, 2815, 3385, 3483, 3525, 4151, 6464, 7542, 7598, 11286, 11470]}, "edge": {"target": [], "time": []}}}, "displayed_time": "18.29", "trialTime": 18937, "trial_type": "mouselab-mdp", "trial_index": 14, "time_elapsed": 494130, "internal_node_id": "0.0-4.0-1.0-5.0"}}, {"uniqueid": "w96010362:a82022501", "current_trial": 15, "dateTime": 1691071549765, "trialdata": {"revealed_states": [], "clicked_states": ["32", "27", "17"], "num_clicks_accrued": [0, 0, 0, 0, 0, 0, 0, 0, 0, 0, 0, 0, 0], "stateRewards": ["", 1, -3, -2, 14, 49, -40, -39, 2, 26, -61, 73, 1, -4, -8, 12, 79, 29, -65, -13, 55, -26, 27, -1, 3, 3, 9, -17, -60, -18, -8, 35, -88, 69], "withholdReward": false, "trial_id": "mdp_trial_7", "block": "test", "trialIndex": 8, "score": 23.55, "costs": -6.449999999999999, "simulationMode": [null, null, null, null, null], "rewards": [1, -4, -8, 12, 29], "path": ["0", "0", "12", "13", "14", "15", "17"], "rt": [11939, 25, 39, 106, 106], "actions": ["right", "right", "right", "up", "right"], "actionTimes": [13991, 14519, 15062, 15665, 16272], "queries": {"click": {"state": {"target": ["32", "27", "17"], "time": [3106, 6901, 10701]}, "edge": {"target": [], "time": []}}, "mouseover": {"state": {"target": ["23", "24", "30", "32", "31", "31", "24", "25", "29", "27", "18", "15", "17"], "time": [2558, 2621, 2753, 2865, 3561, 6235, 6304, 6360, 6444, 6611, 8345, 8372, 8693]}, "edge": {"target": [], "time": []}}, "mouseout": {"state": {"target": ["0", "23", "24", "30", "32", "31", "31", "24", "25", "29", "27", "18", "15", "17"], "time": [1938, 2600, 2635, 2802, 3275, 5888, 6263, 6318, 6375, 6569, 6982, 8359, 8540, 11137]}, "edge": {"target": [], "time": []}}}, "displayed_time": "16.77", "trialTime": 17742, "trial_type": "mouselab-mdp", "trial_index": 15, "time_elapsed": 511977, "internal_node_id": "0.0-4.0-1.0-6.0"}}, {"uniqueid": "w96010362:a82022501", "current_trial": 16, "dateTime": 1691071572733, "trialdata": {"revealed_states": [], "clicked_states": ["21", "5", "9"], "num_clicks_accrued": [0, 0, 0, 0, 0, 0, 0, 0, 0, 0, 0, 0, 0], "stateRewards": ["", 1, 1, -6, -2, 7, 77, 3, 16, -16, 66, 31, -1, 3, -8, -6, 33, -50, -48, 7, -60, -66, 36, 2, -3, 3, -7, -12, -61, -79, -4, 8, 74, -70], "withholdReward": false, "trial_id": "mdp_trial_8", "block": "test", "trialIndex": 9, "score": -90.45, "costs": -6.449999999999999, "simulationMode": [null, null, null, null, null], "rewards": [2, -3, 3, -7, -79], "path": ["0", "0", "23", "24", "25", "26", "29"], "rt": [13481, 161, 82, 441, 95], "actions": ["left", "left", "left", "up", "left"], "actionTimes": [16878, 17542, 18125, 19069, 19663], "queries": {"click": {"state": {"target": ["21", "5", "9"], "time": [4341, 8008, 11491]}, "edge": {"target": [], "time": []}}, "mouseover": {"state": {"target": ["22", "21", "20", "17", "16", "6", "5", "9"], "time": [4004, 4144, 4652, 4791, 4854, 4937, 5355, 10028]}, "edge": {"target": [], "time": []}}, "mouseout": {"state": {"target": ["19", "22", "0", "22", "21", "20", "17", "16", "6", "5", "9"], "time": [3001, 3029, 3865, 4018, 4561, 4701, 4805, 4889, 4979, 9554, 13140]}, "edge": {"target": [], "time": []}}}, "displayed_time": "20.17", "trialTime": 22862, "trial_type": "mouselab-mdp", "trial_index": 16, "time_elapsed": 534946, "internal_node_id": "0.0-4.0-1.0-7.0"}}, {"uniqueid": "w96010362:a82022501", "current_trial": 17, "dateTime": 1691071591108, "trialdata": {"revealed_states": [], "clicked_states": ["21", "16", "32"], "num_clicks_accrued": [0, 0, 0, 0, 0, 0, 0, 0, 0, 0, 0, 0, 0], "stateRewards": ["", 2, -2, -3, 10, -4, -1, -11, -8, -9, -36, -78, 2, 1, 7, -7, 44, -1, -31, -1, 26, 47, 83, 2, -4, -4, -6, -52, -76, -81, -1, -59, 45, 67], "withholdReward": false, "trial_id": "mdp_trial_9", "block": "test", "trialIndex": 10, "score": 49.55, "costs": -6.449999999999999, "simulationMode": [null, null, null, null, null], "rewards": [2, 1, 7, -1, 47], "path": ["0", "0", "12", "13", "14", "19", "21"], "rt": [12276, 105, 103, 63, 68], "actions": ["right", "right", "right", "down", "down"], "actionTimes": [14075, 14691, 15293, 15858, 16427], "queries": {"click": {"state": {"target": ["21", "16", "32"], "time": [3233, 7208, 10724]}, "edge": {"target": [], "time": []}}, "mouseover": {"state": {"target": ["12", "13", "14", "20", "21", "17", "16", "18", "0", "31", "30", "32", "32"], "time": [2264, 2285, 2313, 2530, 2842, 4311, 7013, 7661, 7723, 7793, 7870, 7925, 8099]}, "edge": {"target": [], "time": []}}, "mouseout": {"state": {"target": ["12", "13", "14", "20", "21", "17", "16", "18", "0", "31", "30", "32", "32"], "time": [2278, 2299, 2334, 2772, 3392, 6923, 7633, 7688, 7730, 7821, 7884, 7932, 10947]}, "edge": {"target": [], "time": []}}}, "displayed_time": "16.93", "trialTime": 18266, "trial_type": "mouselab-mdp", "trial_index": 17, "time_elapsed": 553321, "internal_node_id": "0.0-4.0-1.0-8.0"}}, {"uniqueid": "w96010362:a82022501", "current_trial": 18, "dateTime": 1691071609628, "trialdata": {"revealed_states": [], "clicked_states": ["21", "5", "33"], "num_clicks_accrued": [0, 0, 0, 0, 0, 0, 0, 0, 0, 0, 0, 0, 0], "stateRewards": ["", 1, 1, 5, 6, -29, -7, 3, -16, 9, -46, 65, -1, 4, -1, -16, -63, -77, -87, 8, 80, -50, 43, -1, -1, -5, 5, -38, -71, -62, 9, 81, -50, -52], "withholdReward": false, "trial_id": "mdp_trial_10", "block": "test", "trialIndex": 11, "score": -46.45, "costs": -6.449999999999999, "simulationMode": [null, null, null, null, null], "rewards": [-1, -1, -5, 5, -38], "path": ["0", "0", "23", "24", "25", "26", "27"], "rt": [13745, 144, 122, 54, 154], "actions": ["left", "left", "left", "up", "up"], "actionTimes": [14766, 15413, 16038, 16590, 17247], "queries": {"click": {"state": {"target": ["21", "5", "33"], "time": [2137, 6246, 9989]}, "edge": {"target": [], "time": []}}, "mouseover": {"state": {"target": ["22", "19", "21", "5", "7", "1", "30", "33", "33", "32"], "time": [1682, 1731, 2051, 5631, 9460, 9481, 9523, 9537, 9768, 10171]}, "edge": {"target": [], "time": []}}, "mouseout": {"state": {"target": ["0", "22", "19", "21", "5", "7", "1", "30", "33", "33", "32"], "time": [1634, 1703, 1774, 2275, 6529, 9467, 9488, 9530, 9544, 10157, 10179]}, "edge": {"target": [], "time": []}}}, "displayed_time": "17.75", "trialTime": 18414, "trial_type": "mouselab-mdp", "trial_index": 18, "time_elapsed": 571841, "internal_node_id": "0.0-4.0-1.0-9.0"}}, {"uniqueid": "w96010362:a82022501", "current_trial": 19, "dateTime": 1691071628597, "trialdata": {"revealed_states": [], "clicked_states": ["21", "16", "9"], "num_clicks_accrued": [0, 0, 0, 0, 0, 0, 0, 0, 0, 0, 0, 0, 0], "stateRewards": ["", -1, -4, -1, -5, -28, -23, -15, -15, -38, 59, -87, 2, 2, -5, 9, -55, -39, -71, -6, 85, -85, -11, -1, -2, 5, -10, 1, 25, 41, -4, 69, -35, 86], "withholdReward": false, "trial_id": "mdp_trial_11", "block": "test", "trialIndex": 12, "score": -32.45, "costs": -6.449999999999999, "simulationMode": [null, null, null, null, null], "rewards": [-1, -4, -1, -5, -15], "path": ["0", "0", "1", "2", "3", "4", "7"], "rt": [12994, 42, 115, 72, 52], "actions": ["up", "up", "up", "right", "down"], "actionTimes": [15438, 15981, 16597, 17166, 17717], "queries": {"click": {"state": {"target": ["21", "16", "9"], "time": [3531, 7256, 10498]}, "edge": {"target": [], "time": []}}, "mouseover": {"state": {"target": ["0", "19", "20", "21", "19", "14", "6", "5", "5", "6", "16", "4", "9"], "time": [2617, 2888, 2896, 3356, 3766, 3793, 3857, 3898, 4288, 5068, 5423, 7659, 7958]}, "edge": {"target": [], "time": []}}, "mouseout": {"state": {"target": ["0", "0", "19", "20", "21", "19", "14", "6", "5", "5", "6", "16", "4", "9"], "time": [1969, 2686, 2895, 2902, 3731, 3779, 3801, 3870, 3926, 4956, 5165, 7554, 7687, 12393]}, "edge": {"target": [], "time": []}}}, "displayed_time": "18.21", "trialTime": 18861, "trial_type": "mouselab-mdp", "trial_index": 19, "time_elapsed": 590809, "internal_node_id": "0.0-4.0-1.0-10.0"}}, {"uniqueid": "w96010362:a82022501", "current_trial": 20, "dateTime": 1691071648084, "trialdata": {"revealed_states": [], "clicked_states": ["32", "21", "5"], "num_clicks_accrued": [0, 0, 0, 0, 0, 0, 0, 0, 0, 0, 0, 0, 0], "stateRewards": ["", 2, 1, -3, 7, 46, 11, -36, 16, 71, 5, 1, 2, -2, -8, -3, -4, 6, 55, 7, 68, -54, 2, 1, 1, 6, -6, 42, -4, -84, -11, -65, 63, 25], "withholdReward": false, "trial_id": "mdp_trial_12", "block": "test", "trialIndex": 13, "score": 53.55, "costs": -6.449999999999999, "simulationMode": [null, null, null, null, null], "rewards": [1, 1, 6, -11, 63], "path": ["0", "0", "23", "24", "25", "30", "32"], "rt": [11992, 93, 13, 188, 81], "actions": ["left", "left", "left", "down", "down"], "actionTimes": [13899, 14491, 15002, 15692, 16275], "queries": {"click": {"state": {"target": ["32", "21", "5"], "time": [3028, 6927, 9999]}, "edge": {"target": [], "time": []}}, "mouseover": {"state": {"target": ["23", "31", "32", "32", "21", "22", "13", "7", "4", "5", "5"], "time": [2245, 2294, 2350, 2765, 6710, 7419, 7447, 7524, 7607, 7718, 7927]}, "edge": {"target": [], "time": []}}, "mouseout": {"state": {"target": ["4", "7", "0", "23", "31", "32", "32", "21", "22", "13", "7", "4", "5", "5"], "time": [1507, 1528, 1744, 2266, 2329, 2378, 3199, 7363, 7433, 7461, 7559, 7697, 7753, 11792]}, "edge": {"target": [], "time": []}}}, "displayed_time": "16.78", "trialTime": 19379, "trial_type": "mouselab-mdp", "trial_index": 20, "time_elapsed": 610297, "internal_node_id": "0.0-4.0-1.0-11.0"}}, {"uniqueid": "w96010362:a82022501", "current_trial": 21, "dateTime": 1691071667580, "trialdata": {"revealed_states": [], "clicked_states": ["21", "32", "5"], "num_clicks_accrued": [0, 0, 0, 0, 0, 0, 0, 0, 0, 0, 0, 0, 0], "stateRewards": ["", 1, -2, 7, -14, 88, -56, -44, -14, 64, -51, -57, -2, 3, -4, -9, -11, 19, -77, -1, 68, 75, -67, -1, 1, -2, 5, -37, 70, -34, -10, -72, 63, -41], "withholdReward": false, "trial_id": "mdp_trial_13", "block": "test", "trialIndex": 14, "score": 73.55, "costs": -6.449999999999999, "simulationMode": [null, null, null, null, null], "rewards": [1, -2, 7, -14, 88], "path": ["0", "0", "1", "2", "3", "4", "5"], "rt": [11104, 364, 132, 123, 105], "actions": ["up", "up", "up", "right", "up"], "actionTimes": [13020, 13884, 14514, 15139, 15748], "queries": {"click": {"state": {"target": ["21", "32", "5"], "time": [2881, 6278, 9507]}, "edge": {"target": [], "time": []}}, "mouseover": {"state": {"target": ["22", "19", "21", "32", "7", "5"], "time": [2468, 2476, 2697, 4257, 6945, 7307]}, "edge": {"target": [], "time": []}}, "mouseout": {"state": {"target": ["7", "24", "1", "0", "22", "19", "21", "32", "7", "5"], "time": [1138, 1305, 1472, 2440, 2475, 2482, 3108, 6458, 6973, 9856]}, "edge": {"target": [], "time": []}}}, "displayed_time": "16.25", "trialTime": 19363, "trial_type": "mouselab-mdp", "trial_index": 21, "time_elapsed": 629793, "internal_node_id": "0.0-4.0-1.0-12.0"}}, {"uniqueid": "w96010362:a82022501", "current_trial": 22, "dateTime": 1691071686612, "trialdata": {"revealed_states": [], "clicked_states": ["21", "5", "33"], "num_clicks_accrued": [0, 0, 0, 0, 0, 0, 0, 0, 0, 0, 0, 0, 0], "stateRewards": ["", -2, -3, -3, 9, 79, 67, 22, -15, -56, 27, -85, -2, 4, -4, -15, -20, -32, 60, 15, 71, 57, 17, 1, 2, -8, 15, -37, -81, 82, 15, 21, -3, 2], "withholdReward": false, "trial_id": "mdp_trial_14", "block": "test", "trialIndex": 15, "score": 73.55, "costs": -6.449999999999999, "simulationMode": [null, null, null, null, null], "rewards": [-2, -3, -3, 9, 79], "path": ["0", "0", "1", "2", "3", "4", "5"], "rt": [11784, 254, 318, 456, 143], "actions": ["up", "up", "up", "right", "up"], "actionTimes": [12938, 13697, 14522, 15481, 16129], "queries": {"click": {"state": {"target": ["21", "5", "33"], "time": [2048, 5528, 9735]}, "edge": {"target": [], "time": []}}, "mouseover": {"state": {"target": ["12", "14", "20", "20", "21", "20", "5", "6", "2", "23", "33", "33", "33", "30", "31"], "time": [1460, 1522, 1592, 1684, 1851, 2790, 5353, 8806, 8869, 8931, 9099, 9209, 9733, 10059, 10087]}, "edge": {"target": [], "time": []}}, "mouseout": {"state": {"target": ["16", "18", "0", "12", "14", "20", "20", "21", "20", "5", "6", "2", "23", "33", "33", "33", "30", "31"], "time": [659, 673, 1432, 1467, 1536, 1634, 1705, 2256, 2826, 5689, 8821, 8883, 8952, 9106, 9273, 10032, 10081, 10094]}, "edge": {"target": [], "time": []}}}, "displayed_time": "16.63", "trialTime": 18921, "trial_type": "mouselab-mdp", "trial_index": 22, "time_elapsed": 648825, "internal_node_id": "0.0-4.0-1.0-13.0"}}, {"uniqueid": "w96010362:a82022501", "current_trial": 23, "dateTime": 1691071704092, "trialdata": {"revealed_states": [], "clicked_states": ["29", "16", "5"], "num_clicks_accrued": [0, 0, 0, 0, 0, 0, 0, 0, 0, 0, 0, 0, 0], "stateRewards": ["", -1, -1, 7, -15, -43, -21, -84, -9, -45, -66, 2, 1, -2, 2, 8, -27, 44, -52, -5, -84, 11, 53, 1, 4, -4, 16, 83, -82, -15, -16, 68, -43, 81], "withholdReward": false, "trial_id": "mdp_trial_15", "block": "test", "trialIndex": 16, "score": -94.45, "costs": -6.449999999999999, "simulationMode": [null, null, null, null, null], "rewards": [1, -2, 2, -5, -84], "path": ["0", "0", "12", "13", "14", "19", "20"], "rt": [11752, 163, 270, 90, 177], "actions": ["right", "right", "right", "down", "right"], "actionTimes": [12756, 13428, 14196, 14788, 15468], "queries": {"click": {"state": {"target": ["29", "16", "5"], "time": [2110, 5578, 8809]}, "edge": {"target": [], "time": []}}, "mouseover": {"state": {"target": ["1", "10", "26", "29", "25", "24", "18", "16", "5"], "time": [1343, 1461, 1733, 1960, 2393, 2456, 2616, 5500, 7490]}, "edge": {"target": [], "time": []}}, "mouseout": {"state": {"target": ["0", "1", "10", "26", "29", "25", "24", "18", "16", "5", "20"], "time": [807, 1392, 1517, 1830, 2310, 2415, 2477, 2646, 5722, 9009, 16536]}, "edge": {"target": [], "time": []}}}, "displayed_time": "15.97", "trialTime": 17364, "trial_type": "mouselab-mdp", "trial_index": 23, "time_elapsed": 666305, "internal_node_id": "0.0-4.0-1.0-14.0"}}, {"uniqueid": "w96010362:a82022501", "current_trial": 24, "dateTime": 1691071721803, "trialdata": {"revealed_states": [], "clicked_states": ["32", "21", "5"], "num_clicks_accrued": [0, 0, 0, 0, 0, 0, 0, 0, 0, 0, 0, 0, 0], "stateRewards": ["", 1, -2, -8, -13, 4, 34, -84, -4, -49, 88, -70, -1, 3, -4, 10, -77, 13, -34, 15, -21, -16, 27, 1, -2, 8, -8, -6, 38, -26, 6, -15, 66, -3], "withholdReward": false, "trial_id": "mdp_trial_16", "block": "test", "trialIndex": 17, "score": 72.55, "costs": -6.449999999999999, "simulationMode": [null, null, null, null, null], "rewards": [1, -2, 8, 6, 66], "path": ["0", "0", "23", "24", "25", "30", "32"], "rt": [11052, 192, 128, 96, 1143], "actions": ["left", "left", "left", "down", "down"], "actionTimes": [12343, 13039, 13671, 14273, 15919], "queries": {"click": {"state": {"target": ["32", "21", "5"], "time": [1941, 5134, 8607]}, "edge": {"target": [], "time": []}}, "mouseover": {"state": {"target": ["31", "30", "32", "21", "19", "14", "17", "5"], "time": [1692, 1755, 1811, 2778, 7025, 7143, 7193, 7853]}, "edge": {"target": [], "time": []}}, "mouseout": {"state": {"target": ["0", "0", "31", "30", "32", "21", "19", "14", "17", "5"], "time": [724, 1658, 1713, 1769, 2145, 5271, 7129, 7164, 7200, 10409]}, "edge": {"target": [], "time": []}}}, "displayed_time": "16.42", "trialTime": 17599, "trial_type": "mouselab-mdp", "trial_index": 24, "time_elapsed": 684016, "internal_node_id": "0.0-4.0-1.0-15.0"}}, {"uniqueid": "w96010362:a82022501", "current_trial": 25, "dateTime": 1691071739667, "trialdata": {"revealed_states": [], "clicked_states": ["9", "17", "32"], "num_clicks_accrued": [0, 0, 0, 0, 0, 0, 0, 0, 0, 0, 0, 0, 0], "stateRewards": ["", -1, 1, 8, -8, -49, 62, -78, 16, 28, -81, 78, -2, -3, -1, -4, 67, 49, -2, -13, -16, -39, 83, 1, -4, 4, -5, -20, 7, 84, 7, -32, -59, 19], "withholdReward": false, "trial_id": "mdp_trial_17", "block": "test", "trialIndex": 18, "score": 32.55, "costs": -6.449999999999999, "simulationMode": [null, null, null, null, null], "rewards": [-2, -3, -1, -4, 49], "path": ["0", "0", "12", "13", "14", "15", "17"], "rt": [10467, 151, 113, 132, 45], "actions": ["right", "right", "right", "up", "right"], "actionTimes": [12941, 13598, 14213, 14853, 15406], "queries": {"click": {"state": {"target": ["9", "17", "32"], "time": [3316, 6550, 9828]}, "edge": {"target": [], "time": []}}, "mouseover": {"state": {"target": ["0", "12", "7", "3", "9", "3", "4", "16", "17", "17", "17", "14", "13", "31", "32"], "time": [2550, 2583, 2876, 2911, 3141, 3627, 3651, 3690, 3718, 4073, 4323, 6830, 6844, 7088, 7206]}, "edge": {"target": [], "time": []}}, "mouseout": {"state": {"target": ["4", "28", "25", "33", "12", "0", "0", "12", "7", "3", "9", "3", "4", "16", "17", "17", "17", "14", "13", "31", "32"], "time": [1511, 1539, 1545, 1560, 2172, 2256, 2570, 2604, 2890, 2917, 3551, 3642, 3662, 3697, 3739, 4163, 6782, 6837, 6865, 7123, 10047]}, "edge": {"target": [], "time": []}}}, "displayed_time": "16.48", "trialTime": 17749, "trial_type": "mouselab-mdp", "trial_index": 25, "time_elapsed": 701880, "internal_node_id": "0.0-4.0-1.0-16.0"}}, {"uniqueid": "w96010362:a82022501", "current_trial": 26, "dateTime": 1691071760579, "trialdata": {"revealed_states": [], "clicked_states": ["32", "21", "5"], "num_clicks_accrued": [0, 0, 0, 0, 0, 0, 0, 0, 0, 0, 0, 0, 0], "stateRewards": ["", -2, 4, -7, -3, -76, 39, -28, 10, 14, 12, 60, 2, -3, 6, -10, 88, -34, -41, -3, 72, -13, -56, 1, 3, 2, 8, -51, 23, -57, 1, 14, -46, -16], "withholdReward": false, "trial_id": "mdp_trial_18", "block": "test", "trialIndex": 19, "score": -45.45, "costs": -6.449999999999999, "simulationMode": [null, null, null, null, null], "rewards": [2, -3, 6, -10, -34], "path": ["0", "0", "12", "13", "14", "15", "17"], "rt": [13758, 160, 220, 136, 68], "actions": ["right", "right", "right", "up", "right"], "actionTimes": [16957, 17621, 18341, 18974, 19540], "queries": {"click": {"state": {"target": ["32", "21", "5"], "time": [4394, 8303, 12123]}, "edge": {"target": [], "time": []}}, "mouseover": {"state": {"target": ["0", "0", "23", "30", "32", "21", "21", "3", "9", "5"], "time": [3457, 3691, 3827, 4055, 4264, 6202, 7329, 8894, 8908, 9270]}, "edge": {"target": [], "time": []}}, "mouseout": {"state": {"target": ["12", "12", "0", "0", "0", "23", "30", "32", "21", "21", "3", "9", "5"], "time": [2218, 2599, 3025, 3492, 3714, 3929, 4104, 4528, 6207, 8602, 8901, 8957, 12201]}, "edge": {"target": [], "time": []}}}, "displayed_time": "20.04", "trialTime": 20796, "trial_type": "mouselab-mdp", "trial_index": 26, "time_elapsed": 722792, "internal_node_id": "0.0-4.0-1.0-17.0"}}, {"uniqueid": "w96010362:a82022501", "current_trial": 27, "dateTime": 1691071777778, "trialdata": {"revealed_states": [], "clicked_states": [], "num_clicks_accrued": [0, 0, 0, 0, 0, 0, 0, 0, 0, 0, 0, 0, 0], "stateRewards": ["", -1, 1, 3, -8, -23, -15, -14, -11, -23, 58, 68, 1, 3, 5, 12, -17, -41, -7, -10, -4, 82, 10, 1, 4, -4, 11, 73, 55, -55, -1, -86, -86, 54], "withholdReward": false, "trial_id": "mdp_trial_19", "block": "test", "trialIndex": 20, "score": -20, "costs": 0, "simulationMode": [null, null, null, null, null], "rewards": [1, 3, 5, 12, -41], "path": ["0", "0", "12", "13", "14", "15", "17"], "rt": [8731, 754, 85, 100, 78], "actions": ["right", "right", "right", "up", "right"], "actionTimes": [10772, 12028, 12612, 13219, 13803], "queries": {"click": {"state": {"target": [], "time": []}, "edge": {"target": [], "time": []}}, "mouseover": {"state": {"target": ["22", "19", "20", "21", "21"], "time": [5070, 5091, 5118, 5822, 6106]}, "edge": {"target": [], "time": []}}, "mouseout": {"state": {"target": ["4", "7", "1", "0", "22", "19", "20", "21", "21"], "time": [1504, 1546, 1664, 2717, 5075, 5104, 5132, 5885, 6706]}, "edge": {"target": [], "time": []}}}, "displayed_time": "16.04", "trialTime": 17075, "trial_type": "mouselab-mdp", "trial_index": 27, "time_elapsed": 739991, "internal_node_id": "0.0-4.0-1.0-18.0"}}, {"uniqueid": "w96010362:a82022501", "current_trial": 28, "dateTime": 1691071793091, "trialdata": {"revealed_states": [], "clicked_states": ["21", "5", "29"], "num_clicks_accrued": [0, 0, 0, 0, 0, 0, 0, 0, 0, 0, 0, 0, 0], "stateRewards": ["", -1, -3, -7, -4, -85, -70, 79, 8, 84, -66, 42, 2, -2, -3, -16, -54, -66, 68, -3, 21, -14, 7, -2, -1, -3, -8, 75, 80, 86, -7, -84, 73, -16], "withholdReward": false, "trial_id": "mdp_trial_20", "block": "test", "trialIndex": 21, "score": 65.55, "costs": -6.449999999999999, "simulationMode": [null, null, null, null, null], "rewards": [-2, -1, -3, -8, 86], "path": ["0", "0", "23", "24", "25", "26", "29"], "rt": [11073, 24, 143, 71, 125], "actions": ["left", "left", "left", "up", "left"], "actionTimes": [11934, 12462, 13110, 13685, 14317], "queries": {"click": {"state": {"target": ["21", "5", "29"], "time": [1838, 5064, 8172]}, "edge": {"target": [], "time": []}}, "mouseover": {"state": {"target": ["12", "22", "21", "21", "17", "16", "6", "5", "3", "26", "29", "24", "21"], "time": [1108, 1199, 1247, 1567, 2402, 2423, 2451, 2730, 5633, 5898, 6030, 8565, 9728]}, "edge": {"target": [], "time": []}}, "mouseout": {"state": {"target": ["0", "12", "22", "21", "21", "17", "16", "6", "5", "3", "26", "29", "24", "21"], "time": [1094, 1136, 1213, 1282, 2043, 2416, 2437, 2458, 5612, 5647, 5912, 8524, 8572, 9777]}, "edge": {"target": [], "time": []}}}, "displayed_time": "14.86", "trialTime": 15190, "trial_type": "mouselab-mdp", "trial_index": 28, "time_elapsed": 755304, "internal_node_id": "0.0-4.0-1.0-19.0"}}, {"uniqueid": "w96010362:a82022501", "current_trial": 29, "dateTime": 1691071809946, "trialdata": {"revealed_states": [], "clicked_states": ["17", "9", "29"], "num_clicks_accrued": [0, 0, 0, 0, 0, 0, 0, 0, 0, 0, 0, 0, 0], "stateRewards": ["", -2, 2, -5, 1, 42, -63, -58, -6, 2, 16, 81, -2, 4, 7, -10, 33, 3, -33, -2, -52, -84, -27, 2, -3, -3, 15, -74, -14, -5, -5, -84, 79, -31], "withholdReward": false, "trial_id": "mdp_trial_21", "block": "test", "trialIndex": 22, "score": -15.45, "costs": -6.449999999999999, "simulationMode": [null, null, null, null, null], "rewards": [-2, 2, -5, -6, 2], "path": ["0", "0", "1", "2", "3", "8", "9"], "rt": [10720, 309, 174, 203, 246], "actions": ["up", "up", "up", "left", "up"], "actionTimes": [11914, 12731, 13411, 14123, 14875], "queries": {"click": {"state": {"target": ["17", "9", "29"], "time": [2217, 5524, 8697]}, "edge": {"target": [], "time": []}}, "mouseover": {"state": {"target": ["12", "13", "17", "17", "6", "5", "9", "10", "28", "26", "29", "32"], "time": [1294, 1329, 1768, 2187, 2561, 2616, 3034, 6565, 6613, 7275, 7477, 9879]}, "edge": {"target": [], "time": []}}, "mouseout": {"state": {"target": ["22", "23", "12", "13", "17", "17", "6", "5", "9", "10", "28", "26", "29", "32", "32"], "time": [674, 876, 1314, 1719, 1788, 2401, 2582, 2679, 5812, 6585, 6655, 7365, 9802, 9893, 16356]}, "edge": {"target": [], "time": []}}}, "displayed_time": "15.38", "trialTime": 16738, "trial_type": "mouselab-mdp", "trial_index": 29, "time_elapsed": 772159, "internal_node_id": "0.0-4.0-1.0-20.0"}}, {"uniqueid": "w96010362:a82022501", "current_trial": 30, "dateTime": 1691071827275, "trialdata": {"revealed_states": [], "clicked_states": ["21", "5", "29"], "num_clicks_accrued": [0, 0, 0, 0, 0, 0, 0, 0, 0, 0, 0, 0, 0], "stateRewards": ["", 1, -4, -6, -1, -21, 17, -72, 10, 77, 67, -46, -1, 4, -2, 14, -66, -49, -45, -15, -52, 23, -67, 2, -2, -2, 15, -3, 45, -64, 5, -44, 83, 61], "withholdReward": false, "trial_id": "mdp_trial_22", "block": "test", "trialIndex": 23, "score": 2.5500000000000007, "costs": -6.449999999999999, "simulationMode": [null, null, null, null, null], "rewards": [-1, 4, -2, -15, 23], "path": ["0", "0", "12", "13", "14", "19", "21"], "rt": [10761, 206, 194, 233, 110], "actions": ["right", "right", "right", "down", "down"], "actionTimes": [12758, 13461, 14158, 14894, 15502], "queries": {"click": {"state": {"target": ["21", "5", "29"], "time": [2934, 6423, 9568]}, "edge": {"target": [], "time": []}}, "mouseover": {"state": {"target": ["12", "13", "20", "21", "16", "6", "5", "3", "10", "26", "29", "29", "30", "32"], "time": [2475, 2537, 2663, 2830, 3735, 5957, 6290, 6624, 6652, 6694, 6930, 7125, 9932, 9945]}, "edge": {"target": [], "time": []}}, "mouseout": {"state": {"target": ["33", "33", "30", "31", "23", "12", "13", "20", "21", "16", "6", "5", "3", "10", "26", "29", "29", "30", "32"], "time": [657, 1193, 1312, 1409, 1437, 2509, 2565, 2733, 3073, 5580, 6033, 6610, 6645, 6659, 6708, 6979, 9876, 9939, 9953]}, "edge": {"target": [], "time": []}}}, "displayed_time": "16.00", "trialTime": 17206, "trial_type": "mouselab-mdp", "trial_index": 30, "time_elapsed": 789488, "internal_node_id": "0.0-4.0-1.0-21.0"}}, {"uniqueid": "w96010362:a82022501", "current_trial": 31, "dateTime": 1691071845803, "trialdata": {"revealed_states": [], "clicked_states": ["32", "21", "5"], "num_clicks_accrued": [0, 0, 0, 0, 0, 0, 0, 0, 0, 0, 0, 0, 0], "stateRewards": ["", -1, 1, -6, -1, 80, 23, 2, -11, 73, -81, 59, 1, 3, 5, -1, -26, 28, -3, 16, -59, -13, -50, -2, -2, 2, 15, -50, 86, 17, -4, 37, 35, 44], "withholdReward": false, "trial_id": "mdp_trial_23", "block": "test", "trialIndex": 24, "score": 66.55, "costs": -6.449999999999999, "simulationMode": [null, null, null, null, null], "rewards": [-1, 1, -6, -1, 80], "path": ["0", "0", "1", "2", "3", "4", "5"], "rt": [10651, 290, 256, 186, 1961], "actions": ["up", "up", "up", "right", "up"], "actionTimes": [11890, 12682, 13442, 14130, 16594], "queries": {"click": {"state": {"target": ["32", "21", "5"], "time": [2008, 5258, 8409]}, "edge": {"target": [], "time": []}}, "mouseover": {"state": {"target": ["0", "32", "21", "17", "6", "5", "4", "3", "10", "23"], "time": [1543, 1869, 3624, 5629, 5720, 6096, 8881, 8895, 8930, 9264]}, "edge": {"target": [], "time": []}}, "mouseout": {"state": {"target": ["0", "0", "32", "32", "21", "17", "6", "5", "4", "3", "10", "23"], "time": [1033, 1563, 2074, 2189, 5406, 5636, 5728, 8672, 8888, 8902, 8937, 9299]}, "edge": {"target": [], "time": []}}}, "displayed_time": "17.10", "trialTime": 18410, "trial_type": "mouselab-mdp", "trial_index": 31, "time_elapsed": 808015, "internal_node_id": "0.0-4.0-1.0-22.0"}}, {"uniqueid": "w96010362:a82022501", "current_trial": 32, "dateTime": 1691071863651, "trialdata": {"revealed_states": [], "clicked_states": ["33", "17", "9"], "num_clicks_accrued": [0, 0, 0, 0, 0, 0, 0, 0, 0, 0, 0, 0, 0], "stateRewards": ["", 2, 4, 7, 7, -79, -2, -21, -5, -53, 47, -21, 1, -3, -1, 7, 83, 7, 84, -7, 80, -37, 69, 2, -4, 5, 2, 4, -20, -30, 7, 71, 44, -81], "withholdReward": false, "trial_id": "mdp_trial_24", "block": "test", "trialIndex": 25, "score": 4.550000000000001, "costs": -6.449999999999999, "simulationMode": [null, null, null, null, null], "rewards": [1, -3, -1, 7, 7], "path": ["0", "0", "12", "13", "14", "15", "17"], "rt": [11815, 154, 59, 119, 259], "actions": ["right", "right", "right", "up", "right"], "actionTimes": [13069, 13726, 14292, 14908, 15668], "queries": {"click": {"state": {"target": ["33", "17", "9"], "time": [2405, 6555, 9783]}, "edge": {"target": [], "time": []}}, "mouseover": {"state": {"target": ["31", "30", "33", "30", "31", "13", "14", "17", "16", "4", "9"], "time": [1915, 2068, 2354, 2617, 2652, 2728, 2744, 2875, 6865, 6912, 7164]}, "edge": {"target": [], "time": []}}, "mouseout": {"state": {"target": ["0", "31", "30", "33", "30", "31", "13", "14", "17", "16", "4", "9"], "time": [1657, 1963, 2193, 2448, 2645, 2666, 2735, 2752, 6631, 6879, 6928, 10291]}, "edge": {"target": [], "time": []}}}, "displayed_time": "16.17", "trialTime": 17725, "trial_type": "mouselab-mdp", "trial_index": 32, "time_elapsed": 825864, "internal_node_id": "0.0-4.0-1.0-23.0"}}, {"uniqueid": "w96010362:a82022501", "current_trial": 33, "dateTime": 1691071881443, "trialdata": {"revealed_states": [], "clicked_states": ["21", "32", "5"], "num_clicks_accrued": [0, 0, 0, 0, 0, 0, 0, 0, 0, 0, 0, 0, 0], "stateRewards": ["", -1, -4, -3, 1, -45, -67, -24, 14, 32, 22, 22, -1, 1, -5, -7, 72, 84, -79, -5, 19, -40, -2, -1, -2, 8, -3, 84, -25, -28, 11, 64, -66, 77], "withholdReward": false, "trial_id": "mdp_trial_25", "block": "test", "trialIndex": 26, "score": 21.55, "costs": -6.449999999999999, "simulationMode": [null, null, null, null, null], "rewards": [-1, -4, -3, 14, 22], "path": ["0", "0", "1", "2", "3", "8", "11"], "rt": [11758, 338, 120, 38, 68], "actions": ["up", "up", "up", "left", "left"], "actionTimes": [14019, 14859, 15483, 16028, 16595], "queries": {"click": {"state": {"target": ["21", "32", "5"], "time": [3379, 6544, 9932]}, "edge": {"target": [], "time": []}}, "mouseover": {"state": {"target": ["0", "12", "22", "19", "21", "21", "32", "32", "32", "24", "10", "5"], "time": [2315, 2530, 2628, 2641, 2948, 3088, 4207, 4458, 4778, 6847, 6916, 7605]}, "edge": {"target": [], "time": []}}, "mouseout": {"state": {"target": ["3", "2", "23", "0", "12", "22", "19", "21", "21", "21", "32", "32", "32", "24", "10", "5"], "time": [1590, 1771, 1938, 2503, 2544, 2634, 2677, 2976, 3433, 3623, 4214, 4472, 6763, 6867, 6951, 11171]}, "edge": {"target": [], "time": []}}}, "displayed_time": "17.10", "trialTime": 17659, "trial_type": "mouselab-mdp", "trial_index": 33, "time_elapsed": 843656, "internal_node_id": "0.0-4.0-1.0-24.0"}}, {"uniqueid": "w96010362:a82022501", "current_trial": 34, "dateTime": 1691071898579, "trialdata": {"revealed_states": [], "clicked_states": ["32", "9", "17"], "num_clicks_accrued": [0, 0, 0, 0, 0, 0, 0, 0, 0, 0, 0, 0, 0], "stateRewards": ["", -1, 3, 2, 9, 41, 4, -46, -12, -54, -87, -25, 2, 3, -1, 11, -77, 12, -33, -9, -32, 35, 72, 1, 3, -7, 4, 37, 65, -73, 6, 77, -43, 8], "withholdReward": false, "trial_id": "mdp_trial_26", "block": "test", "trialIndex": 27, "score": 20.55, "costs": -6.449999999999999, "simulationMode": [null, null, null, null, null], "rewards": [2, 3, -1, 11, 12], "path": ["0", "0", "12", "13", "14", "15", "17"], "rt": [11328, 108, 24, 278, 75], "actions": ["right", "right", "right", "up", "right"], "actionTimes": [13282, 13890, 14418, 15201, 15778], "queries": {"click": {"state": {"target": ["32", "9", "17"], "time": [3932, 7092, 10162]}, "edge": {"target": [], "time": []}}, "mouseover": {"state": {"target": ["31", "32", "32", "30", "24", "24", "10", "8", "9", "5", "17"], "time": [3330, 3448, 3699, 4304, 4363, 4410, 5035, 5077, 5766, 7361, 7695]}, "edge": {"target": [], "time": []}}, "mouseout": {"state": {"target": ["18", "12", "0", "31", "32", "32", "30", "24", "24", "10", "8", "9", "5", "17"], "time": [1018, 1233, 3226, 3344, 3519, 4269, 4321, 4369, 4947, 5064, 5113, 7305, 7375, 10263]}, "edge": {"target": [], "time": []}}}, "displayed_time": "16.28", "trialTime": 17010, "trial_type": "mouselab-mdp", "trial_index": 34, "time_elapsed": 860791, "internal_node_id": "0.0-4.0-1.0-25.0"}}, {"uniqueid": "w96010362:a82022501", "current_trial": 35, "dateTime": 1691071918418, "trialdata": {"revealed_states": [], "clicked_states": ["21", "32", "9"], "num_clicks_accrued": [0, 0, 0, 0, 0, 0, 0, 0, 0, 0, 0, 0, 0], "stateRewards": ["", -2, -3, -5, 8, 27, 11, 43, -6, -24, -87, 69, -2, 1, 1, 9, 19, 48, -37, 9, -14, 45, 62, 1, 2, 1, 16, -81, -41, 22, 4, -6, -63, 47], "withholdReward": false, "trial_id": "mdp_trial_27", "block": "test", "trialIndex": 28, "score": 47.55, "costs": -6.449999999999999, "simulationMode": [null, null, null, null, null], "rewards": [-2, 1, 1, 9, 45], "path": ["0", "0", "12", "13", "14", "19", "21"], "rt": [13003, 242, 49, 235, 321], "actions": ["right", "right", "right", "down", "down"], "actionTimes": [14723, 15467, 16019, 16755, 17579], "queries": {"click": {"state": {"target": ["21", "32", "9"], "time": [4346, 8317, 11667]}, "edge": {"target": [], "time": []}}, "mouseover": {"state": {"target": ["18", "14", "20", "20", "21", "32", "31", "23", "1", "2", "9", "5"], "time": [2057, 2099, 2168, 2621, 2908, 6715, 8532, 8569, 8595, 8609, 8950, 12550]}, "edge": {"target": [], "time": []}}, "mouseout": {"state": {"target": ["6", "7", "18", "14", "20", "20", "21", "32", "31", "23", "1", "2", "9", "5"], "time": [1123, 1158, 2071, 2141, 2196, 2649, 4713, 8460, 8553, 8581, 8602, 8623, 12487, 12571]}, "edge": {"target": [], "time": []}}}, "displayed_time": "18.08", "trialTime": 19715, "trial_type": "mouselab-mdp", "trial_index": 35, "time_elapsed": 880631, "internal_node_id": "0.0-4.0-1.0-26.0"}}, {"uniqueid": "w96010362:a82022501", "current_trial": 36, "dateTime": 1691071937361, "trialdata": {"revealed_states": [], "clicked_states": ["21", "5", "29"], "num_clicks_accrued": [0, 0, 0, 0, 0, 0, 0, 0, 0, 0, 0, 0, 0], "stateRewards": ["", -2, -1, -1, 5, -54, -87, 35, 2, -8, 20, -22, 1, 3, 6, 13, -75, -32, -55, -3, 56, 62, -22, -1, -4, -1, -7, -51, 84, 70, 7, -15, 5, 55], "withholdReward": false, "trial_id": "mdp_trial_28", "block": "test", "trialIndex": 29, "score": 50.55, "costs": -6.449999999999999, "simulationMode": [null, null, null, null, null], "rewards": [-1, -4, -1, -7, 70], "path": ["0", "0", "23", "24", "25", "26", "29"], "rt": [10520, 207, 487, 194, 90], "actions": ["left", "left", "left", "up", "left"], "actionTimes": [13599, 14311, 15295, 15991, 16583], "queries": {"click": {"state": {"target": ["21", "5", "29"], "time": [3743, 7035, 10176]}, "edge": {"target": [], "time": []}}, "mouseover": {"state": {"target": ["12", "13", "21", "17", "5", "4", "24", "25", "26", "29", "26", "28", "1", "18", "15", "17"], "time": [3151, 3374, 3499, 4362, 4696, 7315, 7461, 7496, 7649, 7781, 11750, 11764, 11785, 11813, 11821, 11834]}, "edge": {"target": [], "time": []}}, "mouseout": {"state": {"target": ["6", "0", "12", "13", "21", "17", "5", "4", "24", "25", "26", "29", "26", "28", "1", "18", "15", "17"], "time": [2677, 3137, 3165, 3409, 3972, 4376, 7294, 7349, 7468, 7614, 7732, 11736, 11757, 11771, 11792, 11820, 11827, 11848]}, "edge": {"target": [], "time": []}}}, "displayed_time": "17.09", "trialTime": 18815, "trial_type": "mouselab-mdp", "trial_index": 36, "time_elapsed": 899574, "internal_node_id": "0.0-4.0-1.0-27.0"}}, {"uniqueid": "w96010362:a82022501", "current_trial": 37, "dateTime": 1691071953866, "trialdata": {"revealed_states": [], "clicked_states": ["32", "21", "16"], "num_clicks_accrued": [0, 0, 0, 0, 0, 0, 0, 0, 0, 0, 0, 0, 0], "stateRewards": ["", -2, -4, -6, 12, -58, -70, -80, 2, 16, -88, -62, 1, 2, -5, 11, 77, -35, -44, -5, 18, -83, 87, 1, -3, -5, 13, -44, -21, -86, 10, -52, 8, 29], "withholdReward": false, "trial_id": "mdp_trial_29", "block": "test", "trialIndex": 30, "score": 79.55, "costs": -6.449999999999999, "simulationMode": [null, null, null, null, null], "rewards": [1, 2, -5, 11, 77], "path": ["0", "0", "12", "13", "14", "15", "16"], "rt": [10520, 83, 108, 365, 160], "actions": ["right", "right", "right", "up", "up"], "actionTimes": [11882, 12466, 13074, 13946, 14610], "queries": {"click": {"state": {"target": ["32", "21", "16"], "time": [2218, 5514, 8733]}, "edge": {"target": [], "time": []}}, "mouseover": {"state": {"target": ["23", "31", "32", "13", "17", "20", "21", "16"], "time": [1673, 1776, 2094, 3196, 3224, 3496, 3781, 7137]}, "edge": {"target": [], "time": []}}, "mouseout": {"state": {"target": ["14", "13", "12", "0", "0", "23", "31", "32", "13", "17", "20", "21", "16", "17", "20"], "time": [731, 857, 892, 1073, 1652, 1735, 1867, 2402, 3203, 3231, 3517, 5696, 9011, 15437, 15619]}, "edge": {"target": [], "time": []}}}, "displayed_time": "15.36", "trialTime": 16362, "trial_type": "mouselab-mdp", "trial_index": 37, "time_elapsed": 916079, "internal_node_id": "0.0-4.0-1.0-28.0"}}, {"uniqueid": "w96010362:a82022501", "current_trial": 38, "dateTime": 1691071971585, "trialdata": {"revealed_states": [], "clicked_states": ["32", "9", "17"], "num_clicks_accrued": [0, 0, 0, 0, 0, 0, 0, 0, 0, 0, 0, 0, 0], "stateRewards": ["", -1, 3, -7, 16, -32, -74, -48, 2, 10, 15, -30, 1, 1, -2, 10, 12, -83, 67, 13, -66, 47, 65, -2, 4, 2, -14, -8, -57, 24, 9, 65, 12, 46], "withholdReward": false, "trial_id": "mdp_trial_30", "block": "test", "trialIndex": 31, "score": 18.55, "costs": -6.449999999999999, "simulationMode": [null, null, null, null, null], "rewards": [-2, 4, 2, 9, 12], "path": ["0", "0", "23", "24", "25", "30", "32"], "rt": [12578, 72, 15, 276, 190], "actions": ["left", "left", "left", "down", "down"], "actionTimes": [14207, 14784, 15304, 16079, 16768], "queries": {"click": {"state": {"target": ["32", "9", "17"], "time": [2332, 6115, 9357]}, "edge": {"target": [], "time": []}}, "mouseover": {"state": {"target": ["0", "32", "31", "24", "28", "27", "27", "8", "9", "9", "5", "16", "17", "17"], "time": [1871, 2206, 2622, 2664, 2705, 2831, 3060, 3805, 4119, 4286, 6514, 7705, 7844, 8262]}, "edge": {"target": [], "time": []}}, "mouseout": {"state": {"target": ["0", "0", "32", "31", "24", "28", "27", "27", "8", "9", "9", "5", "16", "17", "17"], "time": [1411, 1898, 2538, 2650, 2692, 2762, 2907, 3694, 3861, 4216, 6270, 7517, 7719, 7962, 9606]}, "edge": {"target": [], "time": []}}}, "displayed_time": "17.27", "trialTime": 17575, "trial_type": "mouselab-mdp", "trial_index": 38, "time_elapsed": 933797, "internal_node_id": "0.0-4.0-1.0-29.0"}}, {"uniqueid": "w96010362:a82022501", "current_trial": 39, "dateTime": 1691071988937, "trialdata": {"revealed_states": [], "clicked_states": ["32", "9", "17"], "num_clicks_accrued": [0, 0, 0, 0, 0, 0, 0, 0, 0, 0, 0, 0, 0], "stateRewards": ["", 1, 2, 2, -15, -84, 28, -26, 13, 31, 86, 30, -2, 1, -1, -8, 66, -40, -1, -10, -32, 57, -17, 1, 2, -2, 9, -23, 77, 85, 12, -32, -62, -35], "withholdReward": false, "trial_id": "mdp_trial_31", "block": "test", "trialIndex": 32, "score": 42.55, "costs": -6.449999999999999, "simulationMode": [null, null, null, null, null], "rewards": [1, 2, 2, 13, 31], "path": ["0", "0", "1", "2", "3", "8", "9"], "rt": [10491, 38, 190, 443, 67], "actions": ["up", "up", "up", "left", "up"], "actionTimes": [11955, 12491, 13178, 14122, 14692], "queries": {"click": {"state": {"target": ["32", "9", "17"], "time": [2269, 5560, 8779]}, "edge": {"target": [], "time": []}}, "mouseover": {"state": {"target": ["0", "32", "28", "11", "27", "27", "8", "8", "9", "4", "6", "17"], "time": [1549, 2181, 2814, 2919, 3085, 3252, 4053, 4172, 4304, 6518, 6539, 7201]}, "edge": {"target": [], "time": []}}, "mouseout": {"state": {"target": ["14", "13", "12", "0", "0", "32", "28", "11", "27", "27", "8", "8", "9", "4", "6", "17", "20", "21"], "time": [976, 1074, 1116, 1471, 1896, 2463, 2835, 3011, 3106, 3991, 4109, 4200, 6477, 6532, 6553, 8983, 15634, 15649]}, "edge": {"target": [], "time": []}}}, "displayed_time": "15.47", "trialTime": 17210, "trial_type": "mouselab-mdp", "trial_index": 39, "time_elapsed": 951150, "internal_node_id": "0.0-4.0-1.0-30.0"}}, {"uniqueid": "w96010362:a82022501", "current_trial": 40, "dateTime": 1691072005258, "trialdata": {"revealed_states": [], "clicked_states": ["21", "32", "5"], "num_clicks_accrued": [0, 0, 0, 0, 0, 0, 0, 0, 0, 0, 0, 0, 0], "stateRewards": ["", -1, 2, 7, 8, 75, 67, -11, 6, 52, -17, 38, -1, 4, -8, 14, 74, -37, -17, -12, 52, 55, 71, -2, -1, -5, 2, 21, 6, -88, -14, 64, -61, -47], "withholdReward": false, "trial_id": "mdp_trial_32", "block": "test", "trialIndex": 33, "score": 84.55, "costs": -6.449999999999999, "simulationMode": [null, null, null, null, null], "rewards": [-1, 2, 7, 8, 75], "path": ["0", "0", "1", "2", "3", "4", "5"], "rt": [11362, 74, 193, 63, 109], "actions": ["up", "up", "up", "right", "up"], "actionTimes": [12459, 13035, 13731, 14300, 14908], "queries": {"click": {"state": {"target": ["21", "32", "5"], "time": [1928, 5201, 8598]}, "edge": {"target": [], "time": []}}, "mouseover": {"state": {"target": ["0", "21", "32", "12", "3", "5", "5"], "time": [1380, 1770, 2710, 5516, 5748, 5871, 6170]}, "edge": {"target": [], "time": []}}, "mouseout": {"state": {"target": ["0", "1", "0", "21", "32", "12", "3", "5", "5"], "time": [684, 809, 1415, 2167, 5349, 5565, 5775, 5906, 8865]}, "edge": {"target": [], "time": []}}}, "displayed_time": "15.41", "trialTime": 16172, "trial_type": "mouselab-mdp", "trial_index": 40, "time_elapsed": 967470, "internal_node_id": "0.0-4.0-1.0-31.0"}}, {"uniqueid": "w96010362:a82022501", "current_trial": 41, "dateTime": 1691072021994, "trialdata": {"revealed_states": [], "clicked_states": ["20", "5", "29"], "num_clicks_accrued": [0, 0, 0, 0, 0, 0, 0, 0, 0, 0, 0, 0, 0], "stateRewards": ["", 2, -4, 7, 3, 23, -42, 4, 7, -81, -33, 7, -2, -4, 5, -1, 50, -57, -14, -13, -14, 44, 55, -2, -2, 5, -2, 33, 1, 57, -13, -7, 58, 87], "withholdReward": false, "trial_id": "mdp_trial_33", "block": "test", "trialIndex": 34, "score": 49.55, "costs": -6.449999999999999, "simulationMode": [null, null, null, null, null], "rewards": [-2, -2, 5, -2, 57], "path": ["0", "0", "23", "24", "25", "26", "29"], "rt": [10324, 325, 327, 483, 167], "actions": ["left", "left", "left", "up", "left"], "actionTimes": [12003, 12827, 13658, 14642, 15314], "queries": {"click": {"state": {"target": ["20", "5", "29"], "time": [2206, 5301, 8497]}, "edge": {"target": [], "time": []}}, "mouseover": {"state": {"target": ["12", "13", "20", "16", "6", "5", "3", "27", "29"], "time": [1758, 1785, 2057, 2745, 2892, 2968, 5482, 5572, 5712]}, "edge": {"target": [], "time": []}}, "mouseout": {"state": {"target": ["4", "7", "0", "12", "13", "20", "16", "6", "5", "3", "27", "29"], "time": [1193, 1241, 1486, 1779, 1806, 2370, 2759, 2913, 5461, 5503, 5607, 9493]}, "edge": {"target": [], "time": []}}}, "displayed_time": "15.82", "trialTime": 16587, "trial_type": "mouselab-mdp", "trial_index": 41, "time_elapsed": 984207, "internal_node_id": "0.0-4.0-1.0-32.0"}}, {"uniqueid": "w96010362:a82022501", "current_trial": 42, "dateTime": 1691072042049, "trialdata": {"revealed_states": [], "clicked_states": ["32", "21", "5"], "num_clicks_accrued": [0, 0, 0, 0, 0, 0, 0, 0, 0, 0, 0, 0, 0], "stateRewards": ["", -2, -3, 1, -7, 39, -67, 16, 5, -20, 73, 66, -1, 4, 5, -3, 23, -68, -87, -8, 3, -3, 17, 1, -4, -2, -13, -32, 34, 61, -5, -11, -18, 12], "withholdReward": false, "trial_id": "mdp_trial_34", "block": "test", "trialIndex": 35, "score": 21.55, "costs": -6.449999999999999, "simulationMode": [null, null, null, null, null], "rewards": [-2, -3, 1, -7, 39], "path": ["0", "0", "1", "2", "3", "4", "5"], "rt": [11099, 185, 1031, 883, 160], "actions": ["up", "up", "up", "right", "up"], "actionTimes": [13991, 14680, 16215, 17599, 18263], "queries": {"click": {"state": {"target": ["32", "21", "5"], "time": [3614, 7541, 10749]}, "edge": {"target": [], "time": []}}, "mouseover": {"state": {"target": ["31", "32", "21", "5"], "time": [3284, 3325, 7377, 8373]}, "edge": {"target": [], "time": []}}, "mouseout": {"state": {"target": ["29", "25", "24", "0", "31", "32", "21", "5"], "time": [2280, 2323, 2406, 3256, 3297, 6849, 7760, 11033]}, "edge": {"target": [], "time": []}}}, "displayed_time": "18.76", "trialTime": 19911, "trial_type": "mouselab-mdp", "trial_index": 42, "time_elapsed": 1004262, "internal_node_id": "0.0-4.0-1.0-33.0"}}, {"uniqueid": "w96010362:a82022501", "current_trial": 43, "dateTime": 1691072061482, "trialdata": {"revealed_states": [], "clicked_states": ["20", "5", "9"], "num_clicks_accrued": [0, 0, 0, 0, 0, 0, 0, 0, 0, 0, 0, 0, 0], "stateRewards": ["", -2, -3, 7, -13, 60, 9, 37, -6, 37, 20, 1, 2, -2, -8, 6, -80, -31, -10, -7, 70, -65, -44, -1, 1, 7, 6, -11, 73, -85, 16, -21, 47, 34], "withholdReward": false, "trial_id": "mdp_trial_35", "block": "test", "trialIndex": 36, "score": 48.55, "costs": -6.449999999999999, "simulationMode": [null, null, null, null, null], "rewards": [2, -2, -8, -7, 70], "path": ["0", "0", "12", "13", "14", "19", "20"], "rt": [10672, 137, 79, 142, 127], "actions": ["right", "right", "right", "down", "right"], "actionTimes": [12091, 12731, 13308, 13955, 14588], "queries": {"click": {"state": {"target": ["20", "5", "9"], "time": [2406, 5557, 8885]}, "edge": {"target": [], "time": []}}, "mouseover": {"state": {"target": ["12", "19", "20", "20", "17", "16", "4", "3", "8", "3", "5", "4", "15", "17", "9"], "time": [1551, 1920, 1962, 2311, 2748, 2846, 2915, 2929, 2957, 3096, 3347, 7197, 7232, 8214, 8710]}, "edge": {"target": [], "time": []}}, "mouseout": {"state": {"target": ["7", "0", "12", "19", "20", "20", "17", "16", "4", "3", "8", "3", "5", "4", "15", "20", "20", "17", "5", "9"], "time": [959, 1523, 1801, 1941, 1983, 2546, 2790, 2887, 2922, 2943, 3061, 3194, 6995, 7204, 7239, 7267, 8088, 8221, 8298, 9029]}, "edge": {"target": [], "time": []}}}, "displayed_time": "15.42", "trialTime": 19284, "trial_type": "mouselab-mdp", "trial_index": 43, "time_elapsed": 1023694, "internal_node_id": "0.0-4.0-1.0-34.0"}}, {"uniqueid": "w96010362:a82022501", "current_trial": 44, "dateTime": 1691072081888, "trialdata": {"revealed_states": [], "clicked_states": ["32", "27", "17"], "num_clicks_accrued": [0, 0, 0, 0, 0, 0, 0, 0, 0, 0, 0, 0, 0], "stateRewards": ["", -2, 2, 5, -14, -56, 64, 84, -5, 52, 39, 85, -2, 1, 7, 8, 21, 29, -78, -9, -10, -69, 10, -2, -1, -7, 15, 72, 20, 41, -2, 52, 80, 22], "withholdReward": false, "trial_id": "mdp_trial_36", "block": "test", "trialIndex": 37, "score": 61.55, "costs": -6.449999999999999, "simulationMode": [null, null, null, null, null], "rewards": [-2, -1, -7, -2, 80], "path": ["0", "0", "23", "24", "25", "30", "32"], "rt": [10629, 123, 72, 236, 347], "actions": ["left", "left", "left", "down", "down"], "actionTimes": [11960, 12584, 13153, 13896, 14744], "queries": {"click": {"state": {"target": ["32", "27", "17"], "time": [2004, 5288, 8534]}, "edge": {"target": [], "time": []}}, "mouseover": {"state": {"target": ["0", "32", "24", "25", "29", "26", "27", "27", "10", "18", "17", "13", "12", "31", "32"], "time": [1579, 1933, 3172, 3248, 3429, 3520, 3624, 3819, 5539, 5630, 5929, 8784, 8805, 8840, 8923]}, "edge": {"target": [], "time": []}}, "mouseout": {"state": {"target": ["0", "0", "32", "24", "25", "29", "26", "27", "27", "10", "18", "17", "13", "12", "31", "32"], "time": [1147, 1613, 2092, 3207, 3341, 3513, 3527, 3687, 5491, 5553, 5644, 8749, 8798, 8812, 8861, 8944]}, "edge": {"target": [], "time": []}}}, "displayed_time": "15.33", "trialTime": 20256, "trial_type": "mouselab-mdp", "trial_index": 44, "time_elapsed": 1044101, "internal_node_id": "0.0-4.0-1.0-35.0"}}, {"uniqueid": "w96010362:a82022501", "current_trial": 45, "dateTime": 1691072099665, "trialdata": {"revealed_states": [], "clicked_states": ["32", "27", "17"], "num_clicks_accrued": [0, 0, 0, 0, 0, 0, 0, 0, 0, 0, 0, 0, 0], "stateRewards": ["", -2, -3, -7, 7, -54, -69, -4, -14, -77, 22, 40, -2, -1, 5, 6, -35, 50, -60, 10, -28, 75, 57, 1, -4, -2, 2, 68, 34, -18, 12, 3, -21, -43], "withholdReward": false, "trial_id": "mdp_trial_37", "block": "test", "trialIndex": 38, "score": 58.55, "costs": -6.449999999999999, "simulationMode": [null, null, null, null, null], "rewards": [1, -4, -2, 2, 68], "path": ["0", "0", "23", "24", "25", "26", "27"], "rt": [12381, 243, 58, 2, 10], "actions": ["left", "left", "left", "up", "up"], "actionTimes": [13860, 14603, 15163, 15672, 16187], "queries": {"click": {"state": {"target": ["32", "27", "17"], "time": [2082, 6810, 10584]}, "edge": {"target": [], "time": []}}, "mouseover": {"state": {"target": ["31", "32", "24", "28", "27", "10", "2", "18", "15", "17", "15", "18", "1", "28", "27"], "time": [1874, 1916, 2626, 2653, 2862, 7556, 7576, 7646, 7723, 7827, 10773, 10800, 10835, 11121, 12827]}, "edge": {"target": [], "time": []}}, "mouseout": {"state": {"target": ["0", "31", "32", "32", "24", "28", "27", "10", "2", "18", "15", "17", "15", "18", "1", "28", "27"], "time": [1771, 1888, 2347, 2577, 2639, 2686, 7514, 7563, 7583, 7688, 7750, 10759, 10793, 10807, 10849, 11128, 16454]}, "edge": {"target": [], "time": []}}}, "displayed_time": "16.69", "trialTime": 17628, "trial_type": "mouselab-mdp", "trial_index": 45, "time_elapsed": 1061878, "internal_node_id": "0.0-4.0-1.0-36.0"}}, {"uniqueid": "w96010362:a82022501", "current_trial": 46, "dateTime": 1691072116265, "trialdata": {"revealed_states": [], "clicked_states": ["20", "33", "9"], "num_clicks_accrued": [0, 0, 0, 0, 0, 0, 0, 0, 0, 0, 0, 0, 0], "stateRewards": ["", 2, 3, 8, 11, 25, -80, 6, -4, -56, 84, -23, -2, -4, -3, 4, -51, -9, -61, -15, -64, 67, -35, 1, -1, -7, -6, 83, 59, -15, 12, -79, 56, 41], "withholdReward": false, "trial_id": "mdp_trial_38", "block": "test", "trialIndex": 39, "score": 39.55, "costs": -6.449999999999999, "simulationMode": [null, null, null, null, null], "rewards": [1, -1, -7, 12, 41], "path": ["0", "0", "23", "24", "25", "30", "33"], "rt": [10483, 327, 428, 50, 190], "actions": ["left", "left", "left", "down", "left"], "actionTimes": [12145, 12975, 13904, 14459, 15143], "queries": {"click": {"state": {"target": ["20", "33", "9"], "time": [2310, 5582, 8700]}, "edge": {"target": [], "time": []}}, "mouseover": {"state": {"target": ["12", "22", "19", "20", "19", "22", "31", "30", "33", "25", "8", "9"], "time": [1869, 1959, 1980, 2203, 2494, 2524, 2585, 2602, 2801, 5774, 5850, 6032]}, "edge": {"target": [], "time": []}}, "mouseout": {"state": {"target": ["27", "1", "12", "0", "12", "22", "19", "20", "19", "22", "31", "30", "33", "25", "8", "9"], "time": [698, 817, 1046, 1848, 1874, 1965, 2015, 2481, 2517, 2530, 2595, 2609, 5639, 5788, 5864, 9492]}, "edge": {"target": [], "time": []}}}, "displayed_time": "15.66", "trialTime": 16423, "trial_type": "mouselab-mdp", "trial_index": 46, "time_elapsed": 1078478, "internal_node_id": "0.0-4.0-1.0-37.0"}}, {"uniqueid": "w96010362:a82022501", "current_trial": 47, "dateTime": 1691072138113, "trialdata": {"revealed_states": [], "clicked_states": ["21", "16", "5"], "num_clicks_accrued": [0, 0, 0, 0, 0, 0, 0, 0, 0, 0, 0, 0, 0], "stateRewards": ["", 1, 1, 1, 15, -76, 52, -32, 14, -57, 37, 49, 1, -4, -3, 6, 83, -76, 25, 9, 36, -1, -17, -1, 4, 4, -2, -22, -21, 58, -15, -57, 49, -24], "withholdReward": false, "trial_id": "mdp_trial_39", "block": "test", "trialIndex": 40, "score": 76.55, "costs": -6.449999999999999, "simulationMode": [null, null, null, null, null], "rewards": [1, -4, -3, 6, 83], "path": ["0", "0", "12", "13", "14", "15", "16"], "rt": [11331, 57, 69, 105, 202], "actions": ["right", "right", "right", "up", "up"], "actionTimes": [13100, 13658, 14226, 14833, 15536], "queries": {"click": {"state": {"target": ["21", "16", "5"], "time": [3035, 6509, 9775]}, "edge": {"target": [], "time": []}}, "mouseover": {"state": {"target": ["0", "12", "22", "21", "16", "6", "5", "6"], "time": [2146, 2445, 2508, 2674, 3824, 6762, 7006, 10028]}, "edge": {"target": [], "time": []}}, "mouseout": {"state": {"target": ["0", "0", "0", "12", "22", "21", "16", "6", "5", "6", "16", "15", "22", "19", "21"], "time": [1268, 1883, 2417, 2460, 2550, 3322, 6720, 6776, 9965, 10042, 20904, 20924, 21043, 21162, 21183]}, "edge": {"target": [], "time": []}}}, "displayed_time": "16.04", "trialTime": 21698, "trial_type": "mouselab-mdp", "trial_index": 47, "time_elapsed": 1100326, "internal_node_id": "0.0-4.0-1.0-38.0"}}, {"uniqueid": "w96010362:a82022501", "current_trial": 48, "dateTime": 1691072154512, "trialdata": {"revealed_states": [], "clicked_states": ["20", "16", "5"], "num_clicks_accrued": [0, 0, 0, 0, 0, 0, 0, 0, 0, 0, 0, 0, 0], "stateRewards": ["", -1, 4, -3, 3, 57, -61, 5, -11, 23, -1, 34, -2, -4, -1, -13, 27, 38, -36, 4, -45, 21, 88, 1, -2, -1, 1, -69, -5, -78, -12, -9, 38, -54], "withholdReward": false, "trial_id": "mdp_trial_40", "block": "test", "trialIndex": 41, "score": 53.55, "costs": -6.449999999999999, "simulationMode": [null, null, null, null, null], "rewards": [-1, 4, -3, 3, 57], "path": ["0", "0", "1", "2", "3", "4", "5"], "rt": [9997, 269, 178, 72, 61], "actions": ["up", "up", "up", "right", "up"], "actionTimes": [11195, 11971, 12651, 13227, 13795], "queries": {"click": {"state": {"target": ["20", "16", "5"], "time": [1824, 4888, 7921]}, "edge": {"target": [], "time": []}}, "mouseover": {"state": {"target": ["12", "19", "20", "16", "16", "4", "5", "5"], "time": [1394, 1470, 1610, 4241, 4374, 5272, 5286, 5725]}, "edge": {"target": [], "time": []}}, "mouseout": {"state": {"target": ["0", "0", "12", "19", "20", "20", "16", "16", "16", "4", "5", "5", "16"], "time": [753, 1380, 1415, 1533, 3768, 3845, 4311, 5138, 5223, 5279, 5294, 8176, 11623]}, "edge": {"target": [], "time": []}}}, "displayed_time": "15.20", "trialTime": 16227, "trial_type": "mouselab-mdp", "trial_index": 48, "time_elapsed": 1116725, "internal_node_id": "0.0-4.0-1.0-39.0"}}, {"uniqueid": "w96010362:a82022501", "current_trial": 49, "dateTime": 1691072206447, "trialdata": {"rt": 51933, "response": {"Q0": "$-2 to $2", "Q1": "$-16 to $16", "Q2": "$-88 to $88", "Q3": "The cost for clicking on nodes varied between nodes.", "Q4": "Very motivated"}, "question_order": [0, 1, 2, 3, 4], "trial_id": "final_quiz_control", "trial_type": "survey-multi-choice", "trial_index": 49, "time_elapsed": 1168660, "internal_node_id": "0.0-4.0-2.0"}}, {"uniqueid": "w96010362:a82022501", "current_trial": 50, "dateTime": 1691072297575, "trialdata": {"rt": 91125, "response": {"Q0": "I chose to inspect three nodes, every round. I only inspected the end-nodes.", "Q1": "No, not really.", "Q2": "I didn't change my strategy during the game."}, "trial_id": "self_report_control", "trial_type": "survey-text", "trial_index": 50, "time_elapsed": 1259788, "internal_node_id": "0.0-4.0-3.0"}}, {"uniqueid": "w96010362:a82022501", "current_trial": 51, "dateTime": 1691072382755, "trialdata": {"rt": 85178, "response": {"Q0": "Strongly disagree", "Q1": "Strongly disagree", "Q2": "Strongly agree", "Q3": "Neither disagree nor agree", "Q4": "Strongly disagree", "Q5": "Strongly agree", "Q6": "Strongly disagree"}, "question_order": [0, 1, 2, 3, 4, 5, 6], "trial_id": "self_report_2", "trial_type": "survey-multi-choice", "trial_index": 51, "time_elapsed": 1344967, "internal_node_id": "0.0-4.0-4.0"}}, {"uniqueid": "w96010362:a82022501", "current_trial": 52, "dateTime": 1691072401299, "trialdata": {"rt": 18541, "response": {"gender": "male", "age": "31", "colorblind": "0", "effort": "0"}, "trial_type": "survey-html-form", "trial_index": 52, "time_elapsed": 1363512, "internal_node_id": "0.0-4.0-5.0"}}, {"uniqueid": "w96010362:a82022501", "current_trial": 53, "dateTime": 1691072455391, "trialdata": {"rt": 54090, "response": {"Q0": "Nope.", "Q1": "I am pretty sure I haven't played this game before.", "Q2": ""}, "trial_type": "survey-text", "trial_index": 53, "time_elapsed": 1417604, "internal_node_id": "0.0-4.0-6.0"}}, {"uniqueid": "w96010362:a82022501", "current_trial": 54, "dateTime": 1691072456817, "trialdata": {"rt": 1423, "stimulus": "Press 'Finish HIT' in order to reach the completion code. Once the data has been saved, you will receive the code either in this window or in the original browser window where you started the experiment.\n", "response": 0, "trial_type": "html-button-response", "trial_index": 54, "time_elapsed": 1419030, "internal_node_id": "0.0-5.0"}}, {"uniqueid": "w96010362:a82022501", "current_trial": 55, "dateTime": 1691072457819, "trialdata": {"success": true, "trial_type": "fullscreen", "trial_index": 55, "time_elapsed": 1420032, "internal_node_id": "0.0-6.0"}}], "questiondata": {"params": {"CODE": "C6DMOQA6", "MIN_TIME": 14, "inspectCost": 1, "startTime": "Thu Aug 03 2023 15:57:17 GMT+0200 (centraleuropeisk sommartid)", "bonusRate": 0.002, "variance": "1_2_4_8_44", "branching": "31123"}, "final_score": 1268.45}, "eventdata": [{"eventtype": "initialized", "value": null, "timestamp": 1691071036712, "interval": 0}, {"eventtype": "window_resize", "value": [1024, 767], "timestamp": 1691071036712, "interval": 0}, {"eventtype": "window_resize", "value": [1024, 767], "timestamp": 1691071037026, "interval": 314}, {"eventtype": "window_resize", "value": [1920, 1080], "timestamp": 1691071040279, "interval": 3253}, {"eventtype": "focus", "value": "off", "timestamp": 1691071093396, "interval": 53117}, {"eventtype": "focus", "value": "on", "timestamp": 1691071094699, "interval": 1303}, {"eventtype": "focus", "value": "off", "timestamp": 1691071666117, "interval": 571418}, {"eventtype": "focus", "value": "on", "timestamp": 1691071667022, "interval": 905}, {"eventtype": "window_resize", "value": [1024, 767], "timestamp": 1691072457036, "interval": 790014}], "useragent": "Mozilla/5.0 (Windows NT 10.0; Win64; x64) AppleWebKit/537.36 (KHTML, like Gecko) Chrome/115.0.0.0 Safari/537.36", "mode": "live", "id": "w96010362:a82022501", "status": "user data saved", "Beginhit": "2023-08-03 13:57:15.643432", "Beginexp": "2023-08-03 13:57:21.100977", "Endhit": "2023-08-03 14:20:58.18392", "psiturkStatus": 3, "browser": "<redacted>", "platform": "windows", "language": "sv-SE"}