{"condition": 0, "counterbalance": 0, "assignmentId": "a42678517", "workerId": "w58882365", "hitId": "h17892881", "currenttrial": 55, "bonus": 0, "data": [{"uniqueid": "w58882365:a42678517", "current_trial": 0, "dateTime": 1691071011349, "trialdata": {"success": true, "trial_type": "fullscreen", "trial_index": 0, "time_elapsed": 11103, "internal_node_id": "0.0-0.0"}}, {"uniqueid": "w58882365:a42678517", "current_trial": 1, "dateTime": 1691071115081, "trialdata": {"view_history": [{"page_index": 0, "viewing_time": 103727}], "rt": 103728, "trial_id": "exp_instructions_control", "trial_type": "instructions", "trial_index": 1, "time_elapsed": 114835, "internal_node_id": "0.0-1.0"}}, {"uniqueid": "w58882365:a42678517", "current_trial": 2, "dateTime": 1691071119940, "trialdata": {"success": true, "trial_type": "fullscreen", "trial_index": 2, "time_elapsed": 119695, "internal_node_id": "0.0-2.0-0.0"}}, {"uniqueid": "w58882365:a42678517", "current_trial": 3, "dateTime": 1691071650005, "trialdata": {"view_history": [{"page_index": 0, "viewing_time": 217581}, {"page_index": 1, "viewing_time": 206393}, {"page_index": 2, "viewing_time": 34602}, {"page_index": 3, "viewing_time": 71490}], "rt": 530067, "trial_id": "mouselab_instructions_1_control", "trial_type": "instructions", "trial_index": 3, "time_elapsed": 649760, "internal_node_id": "0.0-2.0-1.0"}}, {"uniqueid": "w58882365:a42678517", "current_trial": 4, "dateTime": 1691071704867, "trialdata": {"revealed_states": [], "clicked_states": ["1", "23", "12", "2", "3", "4"], "num_clicks_accrued": [0, 0, 0, 0, 0, 0, 0, 0, 0, 0, 0, 0, 0], "stateRewards": ["", -10, 10, -10, 10, 10, -10, -10, 10, -10, -10, -10, -10, 10, -10, 10, -10, -10, 10, 10, -10, -10, -10, -10, -10, -10, 10, -10, 10, 10, -10, -10, -10, -10], "withholdReward": false, "trial_id": "practice_1", "block": "test", "trialIndex": 0, "score": 10.5, "costs": -3, "simulationMode": [null, null, null, null, null], "rewards": [-10, 10, -10, 10, 10], "path": ["0", "0", "1", "2", "3", "4", "5"], "rt": [32890, 587, 312, 570, 653], "actions": ["up", "up", "up", "right", "up"], "actionTimes": [40779, 41869, 42675, 43752, 44901], "queries": {"click": {"state": {"target": ["1", "23", "12", "2", "3", "4"], "time": [13128, 17595, 20063, 27449, 32363, 36515]}, "edge": {"target": [], "time": []}}, "mouseover": {"state": {"target": ["1", "0", "12", "13", "18", "0", "23", "12", "19", "14", "18", "7", "2", "3", "4", "7", "13", "19", "20"], "time": [12548, 13596, 15361, 15713, 16028, 16778, 17062, 19213, 25414, 25445, 25730, 26347, 26697, 28697, 34198, 37329, 37647, 37781, 37847]}, "edge": {"target": [], "time": []}}, "mouseout": {"state": {"target": ["12", "12", "13", "13", "12", "0", "1", "0", "12", "13", "18", "0", "23", "12", "19", "14", "18", "7", "2", "2", "3", "4", "7", "13", "19", "20"], "time": [2245, 2945, 2978, 6778, 6961, 11929, 13530, 13630, 15480, 15962, 16711, 16794, 18080, 20529, 25429, 25462, 26030, 26530, 27582, 28465, 33812, 37263, 37430, 37714, 37814, 37878]}, "edge": {"target": [], "time": []}}}, "displayed_time": "45.41", "trialTime": 53714, "trial_type": "mouselab-mdp", "trial_index": 4, "time_elapsed": 704621, "internal_node_id": "0.0-2.0-2.0-0.0"}}, {"uniqueid": "w58882365:a42678517", "current_trial": 5, "dateTime": 1691071716684, "trialdata": {"revealed_states": [], "clicked_states": [], "num_clicks_accrued": [0, 0, 0, 0, 0, 0, 0, 0, 0, 0, 0, 0, 0], "stateRewards": ["", -10, -10, -10, 10, 10, 10, 10, 10, 10, -10, 10, 10, 10, 10, -10, -10, 10, 10, -10, -10, 10, 10, 10, -10, 10, -10, -10, 10, 10, 10, -10, 10, -10], "withholdReward": false, "trial_id": "practice_2", "block": "test", "trialIndex": 1, "score": 33.5, "costs": 0, "simulationMode": [null, null, null, null, null], "rewards": [10, 10, 10, -10, 10], "path": ["0", "0", "12", "13", "14", "15", "17"], "rt": [1333, 867, 599, 713, 247], "actions": ["right", "right", "right", "up", "right"], "actionTimes": [4561, 5947, 7063, 8277, 9027], "queries": {"click": {"state": {"target": [], "time": []}, "edge": {"target": [], "time": []}}, "mouseover": {"state": {"target": [], "time": []}, "edge": {"target": [], "time": []}}, "mouseout": {"state": {"target": ["17", "13", "12"], "time": [2140, 2174, 2514]}, "edge": {"target": [], "time": []}}}, "displayed_time": "9.53", "trialTime": 11677, "trial_type": "mouselab-mdp", "trial_index": 5, "time_elapsed": 716439, "internal_node_id": "0.0-2.0-2.0-1.0"}}, {"uniqueid": "w58882365:a42678517", "current_trial": 6, "dateTime": 1691071834876, "trialdata": {"view_history": [{"page_index": 0, "viewing_time": 93110}, {"page_index": 1, "viewing_time": 25086}], "rt": 118197, "trial_id": "mouselab_instructions_2_control", "trial_type": "instructions", "trial_index": 6, "time_elapsed": 834631, "internal_node_id": "0.0-2.0-3.0"}}, {"uniqueid": "w58882365:a42678517", "current_trial": 7, "dateTime": 1691071956336, "trialdata": {"rt": 121453, "response": {"Q0": "The cost for clicking on nodes may vary between nodes.", "Q1": "The better I perform the higher my bonus will be.", "Q2": "No, the amount of cash at each node of the web may be different each time.", "Q3": "To get the highest total score.", "Q4": "Only before moving the spider.", "Q5": "3 seconds"}, "question_order": [0, 1, 2, 3, 4, 5], "correct": {"Q0": "The cost for clicking on nodes may vary between nodes.", "Q1": "The better I perform the higher my bonus will be.", "Q2": "No, the amount of cash at each node of the web may be different each time.", "Q3": "To get the highest total score.", "Q4": "Only before moving the spider.", "Q5": "3 seconds"}, "trial_id": "mouselab_quiz_control", "trial_type": "survey-multi-choice", "trial_index": 7, "time_elapsed": 956091, "internal_node_id": "0.0-2.0-4.0"}}, {"uniqueid": "w58882365:a42678517", "current_trial": 8, "dateTime": 1691072006483, "trialdata": {"rt": 50134, "stimulus": "\n<h1> Get ready to start the game! </h1>\n\nThank you for reading the instructions. Get ready start with the 40 rounds of this game.\n<br><br>\nIf you need to take a break, feel free to take one after the end of a round, before continuing to the next one.\n<br><br>\nRemember, the more money the spider gets, the bigger your bonus will be!\n<br><br>\n<div style='text-align: center;'>Press <code>space</code> to begin.</div>\n\n<br><br>\n(If, at any point, the <code>space</code> key does not take you to the next page, click once on the text and try again.)", "response": " ", "trial_id": "mdp_ready", "trial_type": "html-keyboard-response", "trial_index": 8, "time_elapsed": 1006238, "internal_node_id": "0.0-4.0-0.0"}}, {"uniqueid": "w58882365:a42678517", "current_trial": 9, "dateTime": 1691072035030, "trialdata": {"revealed_states": [], "clicked_states": [], "num_clicks_accrued": [0, 0, 0, 0, 0, 0, 0, 0, 0, 0, 0, 0, 0], "stateRewards": ["", -2, -3, 1, -14, 48, -49, 67, -1, -35, -48, 3, -2, 1, -4, -5, 86, -84, 39, 1, 48, 41, -42, -1, -4, 2, -7, 18, -86, 17, 7, -9, 57, -69], "withholdReward": false, "trial_id": "mdp_trial_1", "block": "test", "trialIndex": 2, "score": -94, "costs": 0, "simulationMode": [null, null, null, null, null], "rewards": [-2, 1, -4, -5, -84], "path": ["0", "0", "12", "13", "14", "15", "17"], "rt": [2793, 732, 380, 457, 568], "actions": ["right", "right", "right", "up", "right"], "actionTimes": [8566, 9790, 10672, 11632, 12694], "queries": {"click": {"state": {"target": [], "time": []}, "edge": {"target": [], "time": []}}, "mouseover": {"state": {"target": [], "time": []}, "edge": {"target": [], "time": []}}, "mouseout": {"state": {"target": ["33", "0"], "time": [1856, 2723]}, "edge": {"target": [], "time": []}}}, "displayed_time": "19.78", "trialTime": 28375, "trial_type": "mouselab-mdp", "trial_index": 9, "time_elapsed": 1034784, "internal_node_id": "0.0-4.0-1.0-0.0"}}, {"uniqueid": "w58882365:a42678517", "current_trial": 10, "dateTime": 1691072069308, "trialdata": {"revealed_states": [], "clicked_states": ["1", "7"], "num_clicks_accrued": [0, 0, 0, 0, 0, 0, 0, 0, 0, 0, 0, 0, 0], "stateRewards": ["", 1, 1, -2, 7, -31, -6, 76, 1, -36, -16, -53, 2, 1, 7, 13, -47, -10, 47, -7, 72, 46, -56, -2, -2, -2, 11, -80, 44, 38, 16, 67, 85, -78], "withholdReward": false, "trial_id": "mdp_trial_2", "block": "test", "trialIndex": 3, "score": -26.8, "costs": -2.8, "simulationMode": [null, null, null, null, null], "rewards": [1, 1, -2, 7, -31], "path": ["0", "0", "1", "2", "3", "4", "5"], "rt": [18457, 880, 1267, 766, 400], "actions": ["up", "up", "up", "right", "up"], "actionTimes": [20912, 22283, 24069, 25335, 26236], "queries": {"click": {"state": {"target": ["1", "7"], "time": [4179, 8531]}, "edge": {"target": [], "time": []}}, "mouseover": {"state": {"target": ["1", "7", "2", "3"], "time": [3468, 8034, 13219, 14000]}, "edge": {"target": [], "time": []}}, "mouseout": {"state": {"target": ["0", "1", "7", "2", "3"], "time": [3156, 5668, 10973, 13818, 15734]}, "edge": {"target": [], "time": []}}}, "displayed_time": "26.74", "trialTime": 34113, "trial_type": "mouselab-mdp", "trial_index": 10, "time_elapsed": 1069062, "internal_node_id": "0.0-4.0-1.0-1.0"}}, {"uniqueid": "w58882365:a42678517", "current_trial": 11, "dateTime": 1691072096798, "trialdata": {"revealed_states": [], "clicked_states": [], "num_clicks_accrued": [0, 0, 0, 0, 0, 0, 0, 0, 0, 0, 0, 0, 0], "stateRewards": ["", -2, 2, -4, -4, -59, 88, 62, -3, 69, -15, -34, 1, -2, -5, 7, -54, -20, 78, -16, -74, -53, -21, 2, -4, 2, 13, -8, -44, 26, 9, 72, 4, 17], "withholdReward": false, "trial_id": "mdp_trial_3", "block": "test", "trialIndex": 4, "score": 39, "costs": 0, "simulationMode": [null, null, null, null, null], "rewards": [2, -4, 2, 13, 26], "path": ["0", "0", "23", "24", "25", "26", "29"], "rt": [11782, 766, 724, 2812, 1386], "actions": ["left", "left", "left", "up", "left"], "actionTimes": [13633, 14897, 16139, 19444, 21351], "queries": {"click": {"state": {"target": [], "time": []}, "edge": {"target": [], "time": []}}, "mouseover": {"state": {"target": ["23"], "time": [3296]}, "edge": {"target": [], "time": []}}, "mouseout": {"state": {"target": ["0"], "time": [1347]}, "edge": {"target": [], "time": []}}}, "displayed_time": "21.87", "trialTime": 27322, "trial_type": "mouselab-mdp", "trial_index": 11, "time_elapsed": 1096552, "internal_node_id": "0.0-4.0-1.0-2.0"}}, {"uniqueid": "w58882365:a42678517", "current_trial": 12, "dateTime": 1691072130207, "trialdata": {"revealed_states": [], "clicked_states": ["1", "2", "3", "4", "5"], "num_clicks_accrued": [0, 0, 0, 0, 0, 0, 0, 0, 0, 0, 0, 0, 0], "stateRewards": ["", 1, 2, -5, 14, 54, -14, -25, 16, -5, -87, 78, -1, 1, 3, -3, 52, 53, 53, -10, 73, -69, -48, 2, 3, 1, 8, -62, -7, 85, 7, 82, 52, -28], "withholdReward": false, "trial_id": "mdp_trial_4", "block": "test", "trialIndex": 5, "score": 59, "costs": -7, "simulationMode": [null, null, null, null, null], "rewards": [1, 2, -5, 14, 54], "path": ["0", "0", "1", "2", "3", "4", "5"], "rt": [20092, 326, 306, 451, 894], "actions": ["up", "up", "up", "right", "up"], "actionTimes": [21646, 22487, 23284, 24230, 25622], "queries": {"click": {"state": {"target": ["1", "2", "3", "4", "5"], "time": [4300, 6574, 8718, 11035, 15173]}, "edge": {"target": [], "time": []}}, "mouseover": {"state": {"target": ["1", "24", "23", "1", "2", "3", "4", "5", "4", "7", "0"], "time": [2232, 3093, 3275, 3775, 5826, 8159, 10009, 11844, 16093, 16210, 18626]}, "edge": {"target": [], "time": []}}, "mouseout": {"state": {"target": ["23", "1", "24", "23", "1", "2", "3", "4", "5", "4", "7", "0"], "time": [827, 2726, 3178, 3742, 5609, 7894, 9761, 11778, 16043, 16127, 16444, 18727]}, "edge": {"target": [], "time": []}}}, "displayed_time": "26.13", "trialTime": 33225, "trial_type": "mouselab-mdp", "trial_index": 12, "time_elapsed": 1129961, "internal_node_id": "0.0-4.0-1.0-3.0"}}, {"uniqueid": "w58882365:a42678517", "current_trial": 13, "dateTime": 1691072165934, "trialdata": {"revealed_states": [], "clicked_states": ["12", "13", "14", "15", "17"], "num_clicks_accrued": [0, 0, 0, 0, 0, 0, 0, 0, 0, 0, 0, 0, 0], "stateRewards": ["", -1, 4, -3, 3, 57, -61, 5, -11, 23, -1, 34, -2, -4, -1, -13, 27, 38, -36, 4, -45, 21, 88, 1, -2, -1, 1, -69, -5, -78, -12, -9, 38, -54], "withholdReward": false, "trial_id": "mdp_trial_5", "block": "test", "trialIndex": 6, "score": -55, "costs": -7, "simulationMode": [null, null, null, null, null], "rewards": [-2, -4, -1, 4, -45], "path": ["0", "0", "12", "13", "14", "19", "20"], "rt": [21142, 555, 454, 609, 296], "actions": ["right", "right", "right", "down", "right"], "actionTimes": [24130, 25191, 26140, 27246, 28031], "queries": {"click": {"state": {"target": ["12", "13", "14", "15", "17"], "time": [4766, 8120, 11791, 13902, 16354]}, "edge": {"target": [], "time": []}}, "mouseover": {"state": {"target": ["12", "13", "14", "14", "15", "17", "14", "19", "22"], "time": [4267, 6443, 10652, 11218, 13118, 16034, 18420, 19301, 19918]}, "edge": {"target": [], "time": []}}, "mouseout": {"state": {"target": ["0", "12", "13", "14", "14", "15", "17", "14", "19", "22"], "time": [4017, 6017, 8336, 10934, 11991, 15750, 17967, 19000, 19551, 20451]}, "edge": {"target": [], "time": []}}}, "displayed_time": "28.55", "trialTime": 35542, "trial_type": "mouselab-mdp", "trial_index": 13, "time_elapsed": 1165688, "internal_node_id": "0.0-4.0-1.0-4.0"}}, {"uniqueid": "w58882365:a42678517", "current_trial": 14, "dateTime": 1691072185969, "trialdata": {"revealed_states": [], "clicked_states": [], "num_clicks_accrued": [0, 0, 0, 0, 0, 0, 0, 0, 0, 0, 0, 0, 0], "stateRewards": ["", -1, 4, -8, 12, 14, 69, -8, 5, -72, -14, 56, -1, -1, -1, 9, 67, 19, 11, -9, -88, -58, 3, 2, -4, -8, 4, 62, 77, -74, 5, -31, 65, 88], "withholdReward": false, "trial_id": "mdp_trial_6", "block": "test", "trialIndex": 7, "score": -70, "costs": 0, "simulationMode": [null, null, null, null, null], "rewards": [-1, -1, -1, -9, -58], "path": ["0", "0", "12", "13", "14", "19", "21"], "rt": [5938, 404, 628, 1123, 277], "actions": ["right", "right", "right", "down", "down"], "actionTimes": [7978, 8887, 10012, 11639, 12427], "queries": {"click": {"state": {"target": [], "time": []}, "edge": {"target": [], "time": []}}, "mouseover": {"state": {"target": ["1", "13", "12", "12"], "time": [2999, 3631, 3832, 4715]}, "edge": {"target": [], "time": []}}, "mouseout": {"state": {"target": ["0", "1", "13", "12"], "time": [2715, 3449, 3765, 4232]}, "edge": {"target": [], "time": []}}}, "displayed_time": "16.05", "trialTime": 19842, "trial_type": "mouselab-mdp", "trial_index": 14, "time_elapsed": 1185724, "internal_node_id": "0.0-4.0-1.0-5.0"}}, {"uniqueid": "w58882365:a42678517", "current_trial": 15, "dateTime": 1691072223863, "trialdata": {"revealed_states": [], "clicked_states": ["1", "2", "3", "4", "6"], "num_clicks_accrued": [0, 0, 0, 0, 0, 0, 0, 0, 0, 0, 0, 0, 0], "stateRewards": ["", 1, -1, 1, 13, 31, -56, 72, 2, 41, 5, 63, -2, -3, -2, 3, -71, -26, 52, 13, -31, 24, -67, 2, -2, 5, 4, 66, 43, 72, 9, 86, -26, 44], "withholdReward": false, "trial_id": "mdp_trial_7", "block": "test", "trialIndex": 8, "score": 74, "costs": -7, "simulationMode": [null, null, null, null, null], "rewards": [2, -2, 5, 4, 72], "path": ["0", "0", "23", "24", "25", "26", "29"], "rt": [21008, 763, 577, 1844, 696], "actions": ["left", "left", "left", "up", "left"], "actionTimes": [23099, 24363, 25444, 27796, 28980], "queries": {"click": {"state": {"target": ["1", "2", "3", "4", "6"], "time": [3732, 6124, 9397, 12564, 15378]}, "edge": {"target": [], "time": []}}, "mouseover": {"state": {"target": ["1", "2", "3", "4", "6", "7", "23"], "time": [3011, 4849, 8817, 11901, 14851, 18784, 19267]}, "edge": {"target": [], "time": []}}, "mouseout": {"state": {"target": ["12", "0", "1", "2", "3", "4", "6", "7"], "time": [1400, 2809, 4432, 8522, 11698, 14750, 18648, 18815]}, "edge": {"target": [], "time": []}}}, "displayed_time": "29.48", "trialTime": 37698, "trial_type": "mouselab-mdp", "trial_index": 15, "time_elapsed": 1223617, "internal_node_id": "0.0-4.0-1.0-6.0"}}, {"uniqueid": "w58882365:a42678517", "current_trial": 16, "dateTime": 1691072253156, "trialdata": {"revealed_states": [], "clicked_states": [], "num_clicks_accrued": [0, 0, 0, 0, 0, 0, 0, 0, 0, 0, 0, 0, 0], "stateRewards": ["", -1, -3, -7, -4, -85, -70, 79, 8, 84, -66, 42, 2, -2, -3, -16, -54, -66, 68, -3, 21, -14, 7, -2, -1, -3, -8, 75, 80, 86, -7, -84, 73, -16], "withholdReward": false, "trial_id": "mdp_trial_8", "block": "test", "trialIndex": 9, "score": -85, "costs": 0, "simulationMode": [null, null, null, null, null], "rewards": [2, -2, -3, -16, -66], "path": ["0", "0", "12", "13", "14", "15", "17"], "rt": [5732, 676, 1229, 636, 685], "actions": ["right", "right", "right", "up", "right"], "actionTimes": [9005, 10182, 11918, 13057, 14256], "queries": {"click": {"state": {"target": [], "time": []}, "edge": {"target": [], "time": []}}, "mouseover": {"state": {"target": ["1", "12"], "time": [4821, 5753]}, "edge": {"target": [], "time": []}}, "mouseout": {"state": {"target": ["23", "1"], "time": [1886, 5588]}, "edge": {"target": [], "time": []}}}, "displayed_time": "17.28", "trialTime": 29078, "trial_type": "mouselab-mdp", "trial_index": 16, "time_elapsed": 1252910, "internal_node_id": "0.0-4.0-1.0-7.0"}}, {"uniqueid": "w58882365:a42678517", "current_trial": 17, "dateTime": 1691072289481, "trialdata": {"revealed_states": [], "clicked_states": ["23", "24", "25", "30", "33"], "num_clicks_accrued": [0, 0, 0, 0, 0, 0, 0, 0, 0, 0, 0, 0, 0], "stateRewards": ["", -2, 2, -5, -6, 10, -66, -58, -10, -11, -63, -70, -1, -4, -5, 7, 66, -64, -43, -3, 45, -37, 4, -2, -2, -6, -4, -30, 33, 43, 15, -32, -65, -59], "withholdReward": false, "trial_id": "mdp_trial_9", "block": "test", "trialIndex": 10, "score": -33, "costs": -7, "simulationMode": [null, null, null, null, null], "rewards": [-2, 2, -5, -10, -11], "path": ["0", "0", "1", "2", "3", "8", "9"], "rt": [20730, 1896, 1380, 1147, 949], "actions": ["up", "up", "up", "left", "up"], "actionTimes": [22729, 25120, 27004, 28671, 30139], "queries": {"click": {"state": {"target": ["23", "24", "25", "30", "33"], "time": [4458, 6700, 8564, 10723, 14065]}, "edge": {"target": [], "time": []}}, "mouseover": {"state": {"target": ["23", "24", "25", "26", "30", "33", "24", "1"], "time": [3788, 6255, 8191, 9407, 10356, 11673, 16939, 17756]}, "edge": {"target": [], "time": []}}, "mouseout": {"state": {"target": ["12", "0", "23", "24", "25", "26", "25", "30", "30", "33", "24"], "time": [1223, 3688, 5455, 8090, 9274, 9773, 10173, 10926, 11590, 16421, 17107]}, "edge": {"target": [], "time": []}}}, "displayed_time": "30.64", "trialTime": 36122, "trial_type": "mouselab-mdp", "trial_index": 17, "time_elapsed": 1289236, "internal_node_id": "0.0-4.0-1.0-8.0"}}, {"uniqueid": "w58882365:a42678517", "current_trial": 18, "dateTime": 1691072319148, "trialdata": {"revealed_states": [], "clicked_states": ["12", "13", "14", "15", "17"], "num_clicks_accrued": [0, 0, 0, 0, 0, 0, 0, 0, 0, 0, 0, 0, 0], "stateRewards": ["", -2, 3, -1, 2, -72, 63, 20, -1, 62, -66, 39, -2, 3, -6, 14, 22, 47, 1, 8, -49, -1, -41, 2, 2, -6, -16, -64, -60, -34, 16, 54, 22, -7], "withholdReward": false, "trial_id": "mdp_trial_10", "block": "test", "trialIndex": 11, "score": 49, "costs": -7, "simulationMode": [null, null, null, null, null], "rewards": [-2, 3, -6, 14, 47], "path": ["0", "0", "12", "13", "14", "15", "17"], "rt": [15856, 235, 671, 755, 322], "actions": ["right", "right", "right", "up", "right"], "actionTimes": [17878, 18623, 19793, 21059, 21878], "queries": {"click": {"state": {"target": ["12", "13", "14", "15", "17"], "time": [3790, 6033, 8231, 11097, 13863]}, "edge": {"target": [], "time": []}}, "mouseover": {"state": {"target": ["12", "13", "14", "14", "15", "17", "19"], "time": [3453, 4304, 6821, 7641, 10537, 13338, 16420]}, "edge": {"target": [], "time": []}}, "mouseout": {"state": {"target": ["1", "12", "13", "14", "14", "15", "17", "19"], "time": [1219, 4286, 6787, 7120, 10288, 13254, 16221, 16486]}, "edge": {"target": [], "time": []}}}, "displayed_time": "22.39", "trialTime": 29451, "trial_type": "mouselab-mdp", "trial_index": 18, "time_elapsed": 1318902, "internal_node_id": "0.0-4.0-1.0-9.0"}}, {"uniqueid": "w58882365:a42678517", "current_trial": 19, "dateTime": 1691072343721, "trialdata": {"revealed_states": [], "clicked_states": ["1", "2", "3", "4", "6"], "num_clicks_accrued": [0, 0, 0, 0, 0, 0, 0, 0, 0, 0, 0, 0, 0], "stateRewards": ["", 1, -1, 4, 5, -32, 18, 20, 6, -88, -74, 9, -2, 1, -2, -14, 34, -77, -38, -1, 80, -36, 73, 2, 3, -8, 10, -48, -73, -71, -11, -22, 20, 54], "withholdReward": false, "trial_id": "mdp_trial_11", "block": "test", "trialIndex": 12, "score": 20, "costs": -7, "simulationMode": [null, null, null, null, null], "rewards": [1, -1, 4, 5, 18], "path": ["0", "0", "1", "2", "3", "4", "6"], "rt": [14658, 162, 272, 378, 197], "actions": ["up", "up", "up", "right", "right"], "actionTimes": [16858, 17538, 18299, 19189, 19906], "queries": {"click": {"state": {"target": ["1", "2", "3", "4", "6"], "time": [3549, 5641, 8143, 10926, 13444]}, "edge": {"target": [], "time": []}}, "mouseover": {"state": {"target": ["1", "2", "3", "4", "6"], "time": [2992, 4142, 7608, 10459, 12859]}, "edge": {"target": [], "time": []}}, "mouseout": {"state": {"target": ["22", "0", "1", "2", "3", "4", "6"], "time": [742, 1591, 4058, 7500, 8351, 12792, 15859]}, "edge": {"target": [], "time": []}}}, "displayed_time": "20.41", "trialTime": 24365, "trial_type": "mouselab-mdp", "trial_index": 19, "time_elapsed": 1343476, "internal_node_id": "0.0-4.0-1.0-10.0"}}, {"uniqueid": "w58882365:a42678517", "current_trial": 20, "dateTime": 1691072372116, "trialdata": {"revealed_states": [], "clicked_states": ["23", "24", "25", "30", "32"], "num_clicks_accrued": [0, 0, 0, 0, 0, 0, 0, 0, 0, 0, 0, 0, 0], "stateRewards": ["", 2, 3, -2, -8, -8, -41, 74, 15, -23, -80, 1, 1, 3, 3, -15, -63, -78, 67, 13, 75, -41, 86, 2, -2, 6, -3, -8, -49, 50, -6, 83, 74, 80], "withholdReward": false, "trial_id": "mdp_trial_12", "block": "test", "trialIndex": 13, "score": 67, "costs": -7, "simulationMode": [null, null, null, null, null], "rewards": [2, -2, 6, -6, 74], "path": ["0", "0", "23", "24", "25", "30", "32"], "rt": [18004, 404, 381, 695, 356], "actions": ["left", "left", "left", "down", "down"], "actionTimes": [19721, 20622, 21500, 22696, 23542], "queries": {"click": {"state": {"target": ["23", "24", "25", "30", "32"], "time": [3235, 5561, 8457, 11263, 14236]}, "edge": {"target": [], "time": []}}, "mouseover": {"state": {"target": ["23", "24", "25", "30", "32"], "time": [2684, 4849, 8035, 10851, 13478]}, "edge": {"target": [], "time": []}}, "mouseout": {"state": {"target": ["0", "23", "24", "25", "25", "30", "30"], "time": [2552, 3900, 7901, 8661, 10651, 11488, 13351]}, "edge": {"target": [], "time": []}}}, "displayed_time": "24.05", "trialTime": 28185, "trial_type": "mouselab-mdp", "trial_index": 20, "time_elapsed": 1371871, "internal_node_id": "0.0-4.0-1.0-11.0"}}, {"uniqueid": "w58882365:a42678517", "current_trial": 21, "dateTime": 1691072395027, "trialdata": {"revealed_states": [], "clicked_states": [], "num_clicks_accrued": [0, 0, 0, 0, 0, 0, 0, 0, 0, 0, 0, 0, 0], "stateRewards": ["", -1, 2, 7, 8, 75, 67, -11, 6, 52, -17, 38, -1, 4, -8, 14, 74, -37, -17, -12, 52, 55, 71, -2, -1, -5, 2, 21, 6, -88, -14, 64, -61, -47], "withholdReward": false, "trial_id": "mdp_trial_13", "block": "test", "trialIndex": 14, "score": 83, "costs": 0, "simulationMode": [null, null, null, null, null], "rewards": [-1, 4, -8, 14, 74], "path": ["0", "0", "12", "13", "14", "15", "16"], "rt": [8855, 309, 220, 533, 572], "actions": ["right", "right", "right", "up", "up"], "actionTimes": [11708, 12536, 13248, 14278, 15366], "queries": {"click": {"state": {"target": [], "time": []}, "edge": {"target": [], "time": []}}, "mouseover": {"state": {"target": ["1", "12"], "time": [3873, 5293]}, "edge": {"target": [], "time": []}}, "mouseout": {"state": {"target": ["32", "0", "1"], "time": [1560, 3757, 4873]}, "edge": {"target": [], "time": []}}}, "displayed_time": "16.86", "trialTime": 22719, "trial_type": "mouselab-mdp", "trial_index": 21, "time_elapsed": 1394782, "internal_node_id": "0.0-4.0-1.0-12.0"}}, {"uniqueid": "w58882365:a42678517", "current_trial": 22, "dateTime": 1691072421709, "trialdata": {"revealed_states": [], "clicked_states": ["1", "2", "3", "8", "11"], "num_clicks_accrued": [0, 0, 0, 0, 0, 0, 0, 0, 0, 0, 0, 0, 0], "stateRewards": ["", 2, -2, 7, -11, -76, -65, -23, 16, -58, 30, 81, 1, 2, 7, 14, 9, 55, -2, 6, 11, -15, 31, -1, -1, -3, 2, 15, 2, 46, 15, 18, 45, -34], "withholdReward": false, "trial_id": "mdp_trial_14", "block": "test", "trialIndex": 15, "score": 97, "costs": -7, "simulationMode": [null, null, null, null, null], "rewards": [2, -2, 7, 16, 81], "path": ["0", "0", "1", "2", "3", "8", "11"], "rt": [15537, 273, 247, 751, 308], "actions": ["up", "up", "up", "left", "left"], "actionTimes": [17162, 17938, 18695, 19950, 20774], "queries": {"click": {"state": {"target": ["1", "2", "3", "8", "11"], "time": [3079, 4669, 6972, 9072, 12056]}, "edge": {"target": [], "time": []}}, "mouseover": {"state": {"target": ["1", "2", "3", "8", "11", "28", "24", "31"], "time": [2597, 4118, 6182, 8601, 11314, 14348, 14363, 14413]}, "edge": {"target": [], "time": []}}, "mouseout": {"state": {"target": ["12", "1", "2", "3", "8", "11", "28", "24", "31"], "time": [680, 3864, 5814, 8447, 11182, 14280, 14362, 14404, 14446]}, "edge": {"target": [], "time": []}}}, "displayed_time": "21.28", "trialTime": 26403, "trial_type": "mouselab-mdp", "trial_index": 22, "time_elapsed": 1421463, "internal_node_id": "0.0-4.0-1.0-13.0"}}, {"uniqueid": "w58882365:a42678517", "current_trial": 23, "dateTime": 1691072457870, "trialdata": {"revealed_states": [], "clicked_states": ["23", "24", "25", "26", "27"], "num_clicks_accrued": [0, 0, 0, 0, 0, 0, 0, 0, 0, 0, 0, 0, 0], "stateRewards": ["", -1, 1, -6, -1, 80, 23, 2, -11, 73, -81, 59, 1, 3, 5, -1, -26, 28, -3, 16, -59, -13, -50, -2, -2, 2, 15, -50, 86, 17, -4, 37, 35, 44], "withholdReward": false, "trial_id": "mdp_trial_15", "block": "test", "trialIndex": 16, "score": -41, "costs": -7, "simulationMode": [null, null, null, null, null], "rewards": [1, 3, 5, 16, -59], "path": ["0", "0", "12", "13", "14", "19", "20"], "rt": [21818, 223, 313, 654, 527], "actions": ["right", "right", "right", "down", "right"], "actionTimes": [25170, 25908, 26731, 27890, 28914], "queries": {"click": {"state": {"target": ["23", "24", "25", "26", "27"], "time": [5765, 8013, 10226, 12653, 15154]}, "edge": {"target": [], "time": []}}, "mouseover": {"state": {"target": ["23", "24", "25", "26", "27", "1", "12", "0"], "time": [5155, 6870, 9503, 11853, 14585, 19286, 19386, 21104]}, "edge": {"target": [], "time": []}}, "mouseout": {"state": {"target": ["0", "23", "23", "24", "25", "26", "27", "1", "12", "0", "28", "11", "11", "23"], "time": [4770, 5974, 6553, 9403, 10427, 14220, 18944, 19337, 20904, 33674, 33717, 33735, 34052, 34469]}, "edge": {"target": [], "time": []}}}, "displayed_time": "29.42", "trialTime": 35935, "trial_type": "mouselab-mdp", "trial_index": 23, "time_elapsed": 1457624, "internal_node_id": "0.0-4.0-1.0-14.0"}}, {"uniqueid": "w58882365:a42678517", "current_trial": 24, "dateTime": 1691072510023, "trialdata": {"revealed_states": [], "clicked_states": ["1", "2", "3", "8", "9", "12", "13", "14", "15", "16", "23", "24", "25", "30", "32"], "num_clicks_accrued": [0, 0, 0, 0, 0, 0, 0, 0, 0, 0, 0, 0, 0], "stateRewards": ["", 1, -3, -6, -5, 47, 80, -29, 11, -71, 10, -29, -2, 3, -6, 12, 2, -78, -6, 8, 34, -16, -5, -1, 3, 3, -13, 84, -36, -62, -3, -27, 66, 15], "withholdReward": false, "trial_id": "mdp_trial_16", "block": "test", "trialIndex": 17, "score": 47, "costs": -20.999999999999996, "simulationMode": [null, null, null, null, null], "rewards": [-1, 3, 3, -3, 66], "path": ["0", "0", "23", "24", "25", "30", "32"], "rt": [40990, 217, 269, 621, 208], "actions": ["left", "left", "left", "down", "down"], "actionTimes": [42752, 43491, 44259, 45378, 46098], "queries": {"click": {"state": {"target": ["1", "2", "3", "8", "9", "12", "13", "14", "15", "16", "23", "24", "25", "30", "32"], "time": [2749, 4893, 8044, 10179, 12590, 15068, 17201, 19234, 21464, 23475, 27001, 28822, 30796, 32907, 35063]}, "edge": {"target": [], "time": []}}, "mouseover": {"state": {"target": ["1", "2", "3", "8", "8", "9", "1", "12", "13", "14", "15", "16", "14", "0", "23", "24", "25", "30", "32"], "time": [2386, 3188, 5955, 9408, 9570, 12021, 14539, 14704, 16471, 18870, 20980, 22956, 25940, 26522, 26555, 27655, 30405, 31871, 34606]}, "edge": {"target": [], "time": []}}, "mouseout": {"state": {"target": ["0", "1", "2", "3", "8", "8", "9", "8", "1", "12", "12", "13", "14", "15", "16", "15", "14", "0", "23", "24", "25", "25", "30", "32"], "time": [2220, 3120, 5016, 9273, 9454, 11690, 13355, 13505, 14554, 15140, 15755, 18690, 20588, 22639, 24155, 24472, 26122, 26537, 27456, 30038, 30842, 31588, 34522, 35161]}, "edge": {"target": [], "time": []}}}, "displayed_time": "46.59", "trialTime": 51924, "trial_type": "mouselab-mdp", "trial_index": 24, "time_elapsed": 1509777, "internal_node_id": "0.0-4.0-1.0-15.0"}}, {"uniqueid": "w58882365:a42678517", "current_trial": 25, "dateTime": 1691072561279, "trialdata": {"revealed_states": [], "clicked_states": ["1", "2", "3", "4", "6", "23", "24", "25", "26", "27", "12", "13", "14", "19", "20"], "num_clicks_accrued": [0, 0, 0, 0, 0, 0, 0, 0, 0, 0, 0, 0, 0], "stateRewards": ["", 1, 1, 7, -11, 80, -20, -53, -14, 3, 31, 27, 2, -1, -8, -10, 33, 41, 86, 9, 78, -37, -13, -1, -2, -6, -8, -80, 75, 4, -16, -49, -74, 24], "withholdReward": false, "trial_id": "mdp_trial_17", "block": "test", "trialIndex": 18, "score": 59, "costs": -20.999999999999996, "simulationMode": [null, null, null, null, null], "rewards": [2, -1, -8, 9, 78], "path": ["0", "0", "12", "13", "14", "19", "20"], "rt": [35210, 257, 300, 480, 448], "actions": ["right", "right", "right", "down", "right"], "actionTimes": [37463, 38239, 39032, 40028, 40997], "queries": {"click": {"state": {"target": ["1", "2", "3", "4", "6", "23", "24", "25", "26", "27", "12", "13", "14", "19", "20"], "time": [3355, 5164, 6955, 8789, 10748, 13965, 16215, 18184, 19884, 21410, 23898, 25977, 27937, 29887, 31733]}, "edge": {"target": [], "time": []}}, "mouseover": {"state": {"target": ["1", "2", "3", "4", "6", "7", "1", "23", "24", "25", "26", "27", "30", "12", "22", "13", "14", "19", "20"], "time": [2980, 3798, 5896, 8513, 10480, 13079, 13264, 13664, 15512, 17030, 19230, 20814, 22397, 23663, 25164, 25581, 27397, 29364, 31197]}, "edge": {"target": [], "time": []}}, "mouseout": {"state": {"target": ["20", "19", "1", "2", "3", "3", "3", "4", "6", "7", "1", "23", "23", "23", "24", "25", "26", "27", "26", "25", "30", "12", "22", "13", "14", "14", "19", "20"], "time": [1429, 1461, 3629, 5696, 7058, 7613, 8113, 9397, 11163, 13131, 13362, 14068, 14496, 15246, 16714, 18980, 20313, 21999, 22130, 22263, 22731, 24296, 25330, 26450, 28039, 29131, 31047, 32247]}, "edge": {"target": [], "time": []}}}, "displayed_time": "41.50", "trialTime": 51022, "trial_type": "mouselab-mdp", "trial_index": 25, "time_elapsed": 1561034, "internal_node_id": "0.0-4.0-1.0-16.0"}}, {"uniqueid": "w58882365:a42678517", "current_trial": 26, "dateTime": 1691072616082, "trialdata": {"revealed_states": [], "clicked_states": ["1", "2", "3", "4", "6", "5", "23", "24", "25", "30", "33", "32", "12", "13", "14", "15", "17"], "num_clicks_accrued": [0, 0, 0, 0, 0, 0, 0, 0, 0, 0, 0, 0, 0], "stateRewards": ["", 1, -1, 4, -2, -75, -75, 84, -9, -60, -79, 59, 2, -4, 8, 9, -17, -82, 80, 14, -4, 49, 49, -1, 3, 6, -11, -33, 34, 55, 9, -57, 5, 59], "withholdReward": false, "trial_id": "mdp_trial_18", "block": "test", "trialIndex": 19, "score": 52.2, "costs": -23.799999999999994, "simulationMode": [null, null, null, null, null], "rewards": [-1, 3, 6, 9, 59], "path": ["0", "0", "23", "24", "25", "30", "33"], "rt": [42138, 517, 707, 833, 2051], "actions": ["left", "left", "left", "down", "left"], "actionTimes": [44582, 45607, 46813, 48139, 50690], "queries": {"click": {"state": {"target": ["1", "2", "3", "4", "6", "5", "23", "24", "25", "30", "33", "32", "12", "13", "14", "15", "17"], "time": [3367, 5504, 7522, 9251, 11286, 13583, 15781, 17667, 19589, 21352, 23354, 26526, 29740, 31325, 33170, 34791, 36465]}, "edge": {"target": [], "time": []}}, "mouseover": {"state": {"target": ["1", "2", "3", "3", "4", "6", "5", "4", "1", "23", "24", "25", "30", "33", "32", "12", "13", "14", "15", "17", "22", "19"], "time": [3035, 3819, 6501, 6935, 8086, 10571, 13237, 14754, 15205, 15422, 17305, 19103, 20637, 22904, 25422, 29105, 30754, 32238, 33956, 36205, 40789, 41056]}, "edge": {"target": [], "time": []}}, "mouseout": {"state": {"target": ["17", "17", "14", "13", "12", "1", "2", "1", "1", "3", "3", "4", "6", "5", "4", "1", "23", "24", "25", "30", "33", "30", "32", "12", "13", "14", "15", "15", "17", "14", "22"], "time": [1285, 1401, 1485, 1569, 1768, 3686, 6052, 6185, 6401, 6519, 7936, 10438, 11822, 14054, 14939, 15272, 17139, 18655, 20238, 22539, 23871, 24421, 27170, 30454, 32088, 33689, 35538, 35821, 36855, 37072, 40889]}, "edge": {"target": [], "time": []}}}, "displayed_time": "51.21", "trialTime": 54562, "trial_type": "mouselab-mdp", "trial_index": 26, "time_elapsed": 1615836, "internal_node_id": "0.0-4.0-1.0-17.0"}}, {"uniqueid": "w58882365:a42678517", "current_trial": 27, "dateTime": 1691072703715, "trialdata": {"revealed_states": [], "clicked_states": ["12", "13", "14", "15", "17", "19", "20", "21", "1", "2", "3", "4", "5", "6", "8", "9", "11", "23", "25", "30", "32", "33", "26", "29"], "num_clicks_accrued": [0, 0, 0, 0, 0, 0, 0, 0, 0, 0, 0, 0, 0], "stateRewards": ["", -2, -4, -2, 10, -8, -15, -47, 7, -84, 53, 5, -1, 2, -7, 3, 83, 31, 47, -1, 30, -8, 69, 2, -4, -1, 8, -7, 12, -8, -8, -13, 30, -84], "withholdReward": false, "trial_id": "mdp_trial_19", "block": "test", "trialIndex": 20, "score": -48.59999999999999, "costs": -33.59999999999999, "simulationMode": [null, null, null, null, null], "rewards": [-1, 2, -7, -1, -8], "path": ["0", "0", "12", "13", "14", "19", "21"], "rt": [73495, 1300, 1144, 719, 978], "actions": ["right", "right", "right", "down", "down"], "actionTimes": [75926, 77721, 79383, 80592, 82067], "queries": {"click": {"state": {"target": ["12", "13", "14", "15", "17", "19", "20", "21", "1", "2", "3", "4", "5", "6", "8", "9", "11", "23", "25", "30", "32", "33", "26", "29"], "time": [4144, 6516, 9522, 11586, 13704, 16990, 19070, 21888, 25164, 29452, 31492, 33484, 35373, 38674, 41715, 43604, 46514, 49332, 51931, 54102, 57291, 60264, 63509, 65640]}, "edge": {"target": [], "time": []}}, "mouseover": {"state": {"target": ["1", "12", "13", "14", "15", "17", "19", "20", "21", "19", "22", "12", "1", "2", "3", "2", "3", "4", "5", "7", "6", "7", "3", "8", "9", "10", "10", "11", "23", "24", "25", "30", "32", "30", "32", "31", "30", "33", "30", "31", "24", "26", "29", "25", "31", "22"], "time": [3019, 3619, 4784, 6986, 10951, 12884, 16232, 18565, 21298, 24416, 24499, 24600, 24932, 26249, 27400, 28866, 30016, 32617, 34816, 36250, 38450, 40882, 40983, 41067, 42166, 44316, 45801, 46149, 48967, 50466, 51450, 52416, 53101, 53883, 54601, 59434, 59483, 60003, 60834, 62400, 62550, 63051, 65217, 66401, 66668, 69184]}, "edge": {"target": [], "time": []}}, "mouseout": {"state": {"target": ["19", "12", "1", "12", "13", "14", "14", "15", "17", "19", "19", "20", "21", "19", "22", "12", "1", "2", "3", "2", "3", "4", "5", "4", "7", "6", "7", "3", "8", "9", "8", "10", "10", "11", "23", "23", "24", "25", "30", "32", "30", "32", "31", "30", "33", "30", "31", "24", "26", "29", "25", "31", "22"], "time": [1167, 1567, 3569, 4669, 6919, 9952, 10651, 12418, 14266, 17599, 18033, 19783, 22383, 24466, 24550, 24615, 25649, 27233, 28765, 29554, 32200, 34534, 35867, 36101, 37983, 39017, 40915, 41001, 42017, 44100, 44233, 44599, 45933, 46868, 49426, 50116, 51317, 52317, 53050, 53650, 54466, 57750, 59450, 59650, 60736, 60983, 62518, 62617, 65000, 66183, 66517, 67968, 69784]}, "edge": {"target": [], "time": []}}}, "displayed_time": "82.59", "trialTime": 87408, "trial_type": "mouselab-mdp", "trial_index": 27, "time_elapsed": 1703469, "internal_node_id": "0.0-4.0-1.0-18.0"}}, {"uniqueid": "w58882365:a42678517", "current_trial": 28, "dateTime": 1691072740698, "trialdata": {"revealed_states": [], "clicked_states": ["1", "2", "3", "8", "9", "4", "5", "11", "6"], "num_clicks_accrued": [0, 0, 0, 0, 0, 0, 0, 0, 0, 0, 0, 0, 0], "stateRewards": ["", -1, -1, 4, -16, -75, 81, -51, -7, -84, 73, -30, -2, 1, -3, -16, -77, 33, 14, 1, 45, 87, -66, 2, 2, -5, -7, -19, -17, 79, -3, 8, 49, 47], "withholdReward": false, "trial_id": "mdp_trial_20", "block": "test", "trialIndex": 21, "score": 54.4, "costs": -12.600000000000001, "simulationMode": [null, null, null, null, null], "rewards": [-1, -1, 4, -16, 81], "path": ["0", "0", "1", "2", "3", "4", "6"], "rt": [21765, 265, 252, 534, 314], "actions": ["up", "up", "up", "right", "right"], "actionTimes": [24566, 25330, 26083, 27116, 27928], "queries": {"click": {"state": {"target": ["1", "2", "3", "8", "9", "4", "5", "11", "6"], "time": [3845, 5663, 7953, 9532, 11572, 14596, 16385, 18863, 21118]}, "edge": {"target": [], "time": []}}, "mouseover": {"state": {"target": ["1", "2", "2", "3", "8", "9", "2", "12", "22", "12", "7", "4", "5", "8", "11", "8", "10", "2", "7", "6", "20"], "time": [3446, 4263, 5197, 6146, 8497, 10429, 12163, 12646, 12780, 13896, 14178, 14346, 15564, 17829, 18579, 19596, 19797, 19880, 19946, 20847, 23163]}, "edge": {"target": [], "time": []}}, "mouseout": {"state": {"target": ["16", "1", "1", "2", "2", "3", "3", "8", "9", "2", "12", "22", "12", "7", "4", "5", "4", "8", "11", "8", "10", "2", "7", "6", "20"], "time": [1911, 1978, 4030, 4847, 5770, 8039, 8397, 9945, 11914, 12229, 12664, 12913, 13912, 14262, 15063, 16980, 17280, 18379, 19413, 19613, 19812, 19912, 20081, 21563, 23180]}, "edge": {"target": [], "time": []}}}, "displayed_time": "28.45", "trialTime": 36749, "trial_type": "mouselab-mdp", "trial_index": 28, "time_elapsed": 1740452, "internal_node_id": "0.0-4.0-1.0-19.0"}}, {"uniqueid": "w58882365:a42678517", "current_trial": 29, "dateTime": 1691072775431, "trialdata": {"revealed_states": [], "clicked_states": ["12", "13", "14", "15", "16", "17", "19", "21", "20"], "num_clicks_accrued": [0, 0, 0, 0, 0, 0, 0, 0, 0, 0, 0, 0, 0], "stateRewards": ["", -2, 3, -5, -7, 66, 43, -60, -4, -70, -75, 4, -1, 2, 2, -13, 54, 11, -40, -1, 77, 32, 15, -2, 3, -8, -9, -35, 83, -27, 6, -74, -34, 44], "withholdReward": false, "trial_id": "mdp_trial_21", "block": "test", "trialIndex": 22, "score": 66.4, "costs": -12.600000000000001, "simulationMode": [null, null, null, null, null], "rewards": [-1, 2, 2, -1, 77], "path": ["0", "0", "12", "13", "14", "19", "20"], "rt": [24400, 337, 270, 595, 717], "actions": ["right", "right", "right", "down", "right"], "actionTimes": [27203, 28056, 28839, 29949, 31186], "queries": {"click": {"state": {"target": ["12", "13", "14", "15", "16", "17", "19", "21", "20"], "time": [4337, 6863, 8778, 10314, 11832, 14606, 17774, 20034, 22555]}, "edge": {"target": [], "time": []}}, "mouseover": {"state": {"target": ["1", "12", "13", "14", "13", "14", "15", "16", "17", "20", "19", "21", "20", "21"], "time": [3620, 3954, 4637, 5820, 6619, 7170, 9686, 11070, 12968, 16868, 17435, 18869, 22184, 24558]}, "edge": {"target": [], "time": []}}, "mouseout": {"state": {"target": ["12", "1", "12", "13", "14", "13", "14", "15", "16", "17", "20", "19", "21", "20", "21"], "time": [2002, 3804, 4587, 5770, 6454, 7121, 9370, 10886, 12551, 15135, 17320, 18418, 20535, 23019, 24617]}, "edge": {"target": [], "time": []}}}, "displayed_time": "31.70", "trialTime": 34472, "trial_type": "mouselab-mdp", "trial_index": 29, "time_elapsed": 1775185, "internal_node_id": "0.0-4.0-1.0-20.0"}}, {"uniqueid": "w58882365:a42678517", "current_trial": 30, "dateTime": 1691072798086, "trialdata": {"revealed_states": [], "clicked_states": ["1", "2", "3", "4", "6"], "num_clicks_accrued": [0, 0, 0, 0, 0, 0, 0, 0, 0, 0, 0, 0, 0], "stateRewards": ["", -2, 2, 3, -7, 76, 63, 21, 15, 35, -8, -44, 1, 1, -2, -12, 23, 24, 76, -9, 46, 66, -49, -2, -1, 7, 12, 40, -71, -45, -6, 38, -49, 46], "withholdReward": false, "trial_id": "mdp_trial_22", "block": "test", "trialIndex": 23, "score": 52, "costs": -7, "simulationMode": [null, null, null, null, null], "rewards": [-2, 2, 3, -7, 63], "path": ["0", "0", "1", "2", "3", "4", "6"], "rt": [14899, 182, 128, 437, 194], "actions": ["up", "up", "up", "right", "right"], "actionTimes": [17137, 17830, 18475, 19418, 20124], "queries": {"click": {"state": {"target": ["1", "2", "3", "4", "6"], "time": [4288, 5943, 7649, 11742, 13805]}, "edge": {"target": [], "time": []}}, "mouseover": {"state": {"target": ["1", "2", "3", "4", "6", "18", "13", "22"], "time": [3045, 4845, 6812, 8361, 12396, 15829, 15895, 15928]}, "edge": {"target": [], "time": []}}, "mouseout": {"state": {"target": ["0", "1", "2", "3", "4", "6", "18", "13", "22"], "time": [2928, 4761, 6545, 8246, 12246, 14413, 15878, 15912, 15945]}, "edge": {"target": [], "time": []}}}, "displayed_time": "20.64", "trialTime": 22420, "trial_type": "mouselab-mdp", "trial_index": 30, "time_elapsed": 1797841, "internal_node_id": "0.0-4.0-1.0-21.0"}}, {"uniqueid": "w58882365:a42678517", "current_trial": 31, "dateTime": 1691072832696, "trialdata": {"revealed_states": [], "clicked_states": ["23", "24", "25", "30", "33", "32", "26", "27", "29"], "num_clicks_accrued": [0, 0, 0, 0, 0, 0, 0, 0, 0, 0, 0, 0, 0], "stateRewards": ["", 2, 4, 7, -6, -76, -81, 2, 5, -66, -3, 36, -2, -4, 6, -2, -69, 4, -49, -6, 67, 38, -67, 2, 1, 1, 6, -68, -21, 52, -16, -16, 6, -70], "withholdReward": false, "trial_id": "mdp_trial_23", "block": "test", "trialIndex": 24, "score": 49.4, "costs": -12.600000000000001, "simulationMode": [null, null, null, null, null], "rewards": [2, 1, 1, 6, 52], "path": ["0", "0", "23", "24", "25", "26", "29"], "rt": [24142, 184, 205, 783, 197], "actions": ["left", "left", "left", "up", "left"], "actionTimes": [25826, 26530, 27251, 28547, 29260], "queries": {"click": {"state": {"target": ["23", "24", "25", "30", "33", "32", "26", "27", "29"], "time": [3067, 5185, 7155, 8808, 10732, 13824, 17107, 19230, 21929]}, "edge": {"target": [], "time": []}}, "mouseover": {"state": {"target": ["0", "23", "24", "25", "30", "33", "32", "31", "26", "27", "29", "29", "24"], "time": [2183, 2566, 3483, 5700, 7882, 9949, 13534, 16244, 16695, 18395, 21277, 21494, 22520]}, "edge": {"target": [], "time": []}}, "mouseout": {"state": {"target": ["21", "22", "0", "0", "23", "24", "25", "30", "33", "32", "32", "31", "26", "27", "26", "29", "29", "29", "24"], "time": [948, 1068, 1332, 2416, 3433, 5649, 7750, 9666, 11283, 14127, 14627, 16378, 18127, 19645, 21227, 21295, 21946, 22378, 22744]}, "edge": {"target": [], "time": []}}}, "displayed_time": "29.78", "trialTime": 34350, "trial_type": "mouselab-mdp", "trial_index": 31, "time_elapsed": 1832450, "internal_node_id": "0.0-4.0-1.0-22.0"}}, {"uniqueid": "w58882365:a42678517", "current_trial": 32, "dateTime": 1691072855829, "trialdata": {"revealed_states": [], "clicked_states": ["12", "13", "14"], "num_clicks_accrued": [0, 0, 0, 0, 0, 0, 0, 0, 0, 0, 0, 0, 0], "stateRewards": ["", 1, 4, -8, -5, -15, -7, 21, 13, -30, 40, -65, 1, 1, 5, -14, 35, 27, -38, -11, 36, -58, -47, -2, 4, -3, 13, -16, -49, 22, 15, -56, -44, -10], "withholdReward": false, "trial_id": "mdp_trial_24", "block": "test", "trialIndex": 25, "score": 15.8, "costs": -4.199999999999999, "simulationMode": [null, null, null, null, null], "rewards": [1, 1, 5, -14, 27], "path": ["0", "0", "12", "13", "14", "15", "17"], "rt": [12677, 160, 222, 626, 175], "actions": ["right", "right", "right", "up", "right"], "actionTimes": [15875, 16554, 17283, 18404, 19086], "queries": {"click": {"state": {"target": ["12", "13", "14"], "time": [5323, 6972, 8691]}, "edge": {"target": [], "time": []}}, "mouseover": {"state": {"target": ["12", "13", "14", "15", "16", "15", "15"], "time": [4625, 5943, 7709, 9560, 11292, 13127, 14109]}, "edge": {"target": [], "time": []}}, "mouseout": {"state": {"target": ["30", "0", "12", "13", "14", "15", "16", "15", "15"], "time": [2109, 3926, 5745, 7495, 9396, 10792, 13011, 13992, 14143]}, "edge": {"target": [], "time": []}}}, "displayed_time": "19.58", "trialTime": 22864, "trial_type": "mouselab-mdp", "trial_index": 32, "time_elapsed": 1855583, "internal_node_id": "0.0-4.0-1.0-23.0"}}, {"uniqueid": "w58882365:a42678517", "current_trial": 33, "dateTime": 1691072875375, "trialdata": {"revealed_states": [], "clicked_states": [], "num_clicks_accrued": [0, 0, 0, 0, 0, 0, 0, 0, 0, 0, 0, 0, 0], "stateRewards": ["", -1, -4, -1, -11, 43, 69, 39, 4, 17, -20, -82, -2, -1, 4, 8, -79, 24, -79, 11, 36, 64, 41, 2, 4, -1, 11, -79, -47, 75, -3, 63, -36, -19], "withholdReward": false, "trial_id": "mdp_trial_25", "block": "test", "trialIndex": 26, "score": 76, "costs": 0, "simulationMode": [null, null, null, null, null], "rewards": [-2, -1, 4, 11, 64], "path": ["0", "0", "12", "13", "14", "19", "21"], "rt": [5824, 237, 174, 527, 298], "actions": ["right", "right", "right", "down", "down"], "actionTimes": [8026, 8764, 9450, 10489, 11308], "queries": {"click": {"state": {"target": [], "time": []}, "edge": {"target": [], "time": []}}, "mouseover": {"state": {"target": ["0", "12", "1", "23", "1", "0"], "time": [2709, 2808, 4124, 4490, 5342, 6424]}, "edge": {"target": [], "time": []}}, "mouseout": {"state": {"target": ["20", "21", "21", "22", "0", "12", "1", "23", "1", "0"], "time": [1041, 1107, 1241, 1324, 2725, 3942, 4441, 5091, 6374, 6441]}, "edge": {"target": [], "time": []}}}, "displayed_time": "16.21", "trialTime": 19325, "trial_type": "mouselab-mdp", "trial_index": 33, "time_elapsed": 1875129, "internal_node_id": "0.0-4.0-1.0-24.0"}}, {"uniqueid": "w58882365:a42678517", "current_trial": 34, "dateTime": 1691072898433, "trialdata": {"revealed_states": [], "clicked_states": ["1", "2", "3", "4", "6"], "num_clicks_accrued": [0, 0, 0, 0, 0, 0, 0, 0, 0, 0, 0, 0, 0], "stateRewards": ["", 1, -4, 6, -3, 40, 76, -51, 5, -24, -63, 44, -2, -2, 8, 1, 76, -85, -58, 10, 59, 20, 11, -2, 3, -3, 3, -82, -10, 54, -7, -57, -6, -32], "withholdReward": false, "trial_id": "mdp_trial_26", "block": "test", "trialIndex": 27, "score": 69, "costs": -7, "simulationMode": [null, null, null, null, null], "rewards": [1, -4, 6, -3, 76], "path": ["0", "0", "1", "2", "3", "4", "6"], "rt": [13252, 185, 218, 421, 266], "actions": ["up", "up", "up", "right", "right"], "actionTimes": [15011, 15713, 16430, 17365, 18127], "queries": {"click": {"state": {"target": ["1", "2", "3", "4", "6"], "time": [2976, 4906, 7332, 9437, 11740]}, "edge": {"target": [], "time": []}}, "mouseover": {"state": {"target": ["1", "2", "3", "4", "6"], "time": [2627, 4177, 6794, 9061, 10510]}, "edge": {"target": [], "time": []}}, "mouseout": {"state": {"target": ["22", "2", "1", "2", "3", "4", "6"], "time": [692, 841, 3710, 6627, 8744, 10343, 12511]}, "edge": {"target": [], "time": []}}}, "displayed_time": "18.63", "trialTime": 22797, "trial_type": "mouselab-mdp", "trial_index": 34, "time_elapsed": 1898188, "internal_node_id": "0.0-4.0-1.0-25.0"}}, {"uniqueid": "w58882365:a42678517", "current_trial": 35, "dateTime": 1691072930402, "trialdata": {"revealed_states": [], "clicked_states": ["23", "24", "25", "30", "32", "33", "26", "27", "29"], "num_clicks_accrued": [0, 0, 0, 0, 0, 0, 0, 0, 0, 0, 0, 0, 0], "stateRewards": ["", -1, 4, -5, 9, 29, -75, -42, -16, 24, -28, -41, 2, -3, 1, 10, 60, 47, 55, -1, -53, 22, -40, 2, -3, -6, 4, -26, 44, 54, 15, -76, 42, 14], "withholdReward": false, "trial_id": "mdp_trial_27", "block": "test", "trialIndex": 28, "score": 38.4, "costs": -12.600000000000001, "simulationMode": [null, null, null, null, null], "rewards": [2, -3, -6, 4, 54], "path": ["0", "0", "23", "24", "25", "26", "29"], "rt": [23978, 149, 146, 557, 163], "actions": ["left", "left", "left", "up", "left"], "actionTimes": [26103, 26772, 27420, 28480, 29154], "queries": {"click": {"state": {"target": ["23", "24", "25", "30", "32", "33", "26", "27", "29"], "time": [3143, 5207, 7895, 10101, 12205, 14768, 17829, 19812, 22670]}, "edge": {"target": [], "time": []}}, "mouseover": {"state": {"target": ["23", "24", "25", "30", "32", "33", "31", "26", "27", "24", "29", "25", "31"], "time": [2822, 3655, 7002, 9410, 11189, 14473, 17088, 17522, 19157, 20590, 22238, 23723, 24155]}, "edge": {"target": [], "time": []}}, "mouseout": {"state": {"target": ["0", "23", "24", "25", "30", "32", "30", "33", "31", "26", "27", "24", "29", "25", "31"], "time": [2638, 3572, 5972, 9222, 10755, 12889, 14288, 15172, 17356, 18440, 20307, 22006, 23505, 23806, 24756]}, "edge": {"target": [], "time": []}}}, "displayed_time": "29.67", "trialTime": 31692, "trial_type": "mouselab-mdp", "trial_index": 35, "time_elapsed": 1930156, "internal_node_id": "0.0-4.0-1.0-26.0"}}, {"uniqueid": "w58882365:a42678517", "current_trial": 36, "dateTime": 1691072982254, "trialdata": {"revealed_states": [], "clicked_states": ["12", "13", "14", "15", "16", "17", "19", "20", "21", "1", "2", "3", "8", "9", "11", "4", "5", "6"], "num_clicks_accrued": [0, 0, 0, 0, 0, 0, 0, 0, 0, 0, 0, 0, 0], "stateRewards": ["", 1, 2, 3, 16, 63, -25, 16, -4, -14, 82, -66, -1, -3, -3, -11, -14, 19, 46, 3, -34, -82, 66, -2, -3, 4, -5, -63, 77, -37, -1, -45, -41, 84], "withholdReward": false, "trial_id": "mdp_trial_28", "block": "test", "trialIndex": 29, "score": 59.80000000000001, "costs": -25.199999999999992, "simulationMode": [null, null, null, null, null], "rewards": [1, 2, 3, 16, 63], "path": ["0", "0", "1", "2", "3", "4", "5"], "rt": [43249, 538, 148, 782, 421], "actions": ["up", "up", "up", "right", "up"], "actionTimes": [45435, 46490, 47134, 48418, 49339], "queries": {"click": {"state": {"target": ["12", "13", "14", "15", "16", "17", "19", "20", "21", "1", "2", "3", "8", "9", "11", "4", "5", "6"], "time": [3917, 6459, 8361, 9887, 11755, 14138, 16617, 18933, 21403, 24967, 26862, 28488, 30097, 32689, 35093, 38134, 40051, 42422]}, "edge": {"target": [], "time": []}}, "mouseover": {"state": {"target": ["12", "13", "14", "15", "16", "17", "19", "20", "21", "19", "12", "0", "23", "1", "2", "3", "8", "9", "11", "8", "2", "7", "7", "4", "5", "6", "18", "17"], "time": [3183, 4400, 7436, 9217, 10683, 13283, 16307, 17716, 20999, 23733, 24134, 24167, 24200, 24700, 25750, 27700, 29750, 30840, 34932, 35551, 35917, 36084, 37233, 37383, 38917, 42021, 42867, 43350]}, "edge": {"target": [], "time": []}}, "mouseout": {"state": {"target": ["12", "13", "14", "15", "16", "17", "19", "20", "21", "19", "12", "0", "23", "1", "2", "3", "8", "9", "11", "8", "2", "7", "7", "4", "5", "5", "4", "6", "18", "17"], "time": [4316, 7099, 8437, 10499, 12533, 14716, 17217, 19617, 21967, 23817, 24150, 24184, 24333, 25466, 27417, 29316, 30634, 33234, 35469, 35584, 35968, 36101, 37267, 38733, 40166, 40651, 40834, 42800, 42970, 43417]}, "edge": {"target": [], "time": []}}}, "displayed_time": "49.85", "trialTime": 51605, "trial_type": "mouselab-mdp", "trial_index": 36, "time_elapsed": 1982009, "internal_node_id": "0.0-4.0-1.0-27.0"}}, {"uniqueid": "w58882365:a42678517", "current_trial": 37, "dateTime": 1691073018947, "trialdata": {"revealed_states": [], "clicked_states": ["23", "24", "25", "26", "29", "27", "30", "32", "33"], "num_clicks_accrued": [0, 0, 0, 0, 0, 0, 0, 0, 0, 0, 0, 0, 0], "stateRewards": ["", -2, 3, -1, -9, 44, 48, -37, -3, 71, -39, 87, -1, 3, -4, 4, -21, 59, -15, -8, -1, 28, -38, 2, 4, 4, 8, -85, -72, -63, 14, 58, 63, -46], "withholdReward": false, "trial_id": "mdp_trial_29", "block": "test", "trialIndex": 30, "score": 74.4, "costs": -12.600000000000001, "simulationMode": [null, null, null, null, null], "rewards": [2, 4, 4, 14, 63], "path": ["0", "0", "23", "24", "25", "30", "32"], "rt": [26159, 51, 173, 477, 316], "actions": ["left", "left", "left", "down", "down"], "actionTimes": [28781, 29340, 30028, 31015, 31822], "queries": {"click": {"state": {"target": ["23", "24", "25", "26", "29", "27", "30", "32", "33"], "time": [4107, 6168, 8679, 11258, 13994, 16756, 19679, 22134, 25618]}, "edge": {"target": [], "time": []}}, "mouseover": {"state": {"target": ["23", "24", "25", "26", "29", "26", "27", "26", "25", "30", "32", "30", "33", "30", "21"], "time": [3727, 5193, 8225, 11021, 13653, 16154, 16419, 17754, 18888, 19121, 21771, 25254, 25354, 26038, 27470]}, "edge": {"target": [], "time": []}}, "mouseout": {"state": {"target": ["15", "14", "18", "23", "24", "25", "25", "26", "26", "29", "26", "27", "26", "25", "30", "32", "30", "33", "30", "21"], "time": [1508, 1625, 1658, 4944, 6810, 9661, 10805, 11854, 13337, 14571, 16271, 17370, 18687, 19020, 21475, 22605, 25304, 25988, 26071, 27554]}, "edge": {"target": [], "time": []}}}, "displayed_time": "32.32", "trialTime": 36456, "trial_type": "mouselab-mdp", "trial_index": 37, "time_elapsed": 2018701, "internal_node_id": "0.0-4.0-1.0-28.0"}}, {"uniqueid": "w58882365:a42678517", "current_trial": 38, "dateTime": 1691073041703, "trialdata": {"revealed_states": [], "clicked_states": ["1", "2", "3", "4", "6"], "num_clicks_accrued": [0, 0, 0, 0, 0, 0, 0, 0, 0, 0, 0, 0, 0], "stateRewards": ["", -1, 1, -1, 2, 19, 85, -18, 2, -3, -26, 36, 2, 4, 7, -9, -18, 70, 72, -5, 35, -20, -28, 1, -2, -4, -3, -59, -11, -63, -2, -72, 59, -69], "withholdReward": false, "trial_id": "mdp_trial_30", "block": "test", "trialIndex": 31, "score": 79, "costs": -7, "simulationMode": [null, null, null, null, null], "rewards": [-1, 1, -1, 2, 85], "path": ["0", "0", "1", "2", "3", "4", "6"], "rt": [13779, 207, 244, 368, 280], "actions": ["up", "up", "up", "right", "right"], "actionTimes": [15922, 16623, 17391, 18267, 19044], "queries": {"click": {"state": {"target": ["1", "2", "3", "4", "6"], "time": [3475, 5941, 7539, 10073, 11966]}, "edge": {"target": [], "time": []}}, "mouseover": {"state": {"target": ["12", "1", "2", "3", "4", "6", "5"], "time": [2930, 3163, 4048, 6481, 9830, 11415, 14113]}, "edge": {"target": [], "time": []}}, "mouseout": {"state": {"target": ["21", "12", "1", "2", "3", "3", "4", "6", "4", "5"], "time": [1263, 3014, 3929, 6331, 7566, 8980, 10414, 13218, 13880, 14701]}, "edge": {"target": [], "time": []}}}, "displayed_time": "19.57", "trialTime": 22521, "trial_type": "mouselab-mdp", "trial_index": 38, "time_elapsed": 2041457, "internal_node_id": "0.0-4.0-1.0-29.0"}}, {"uniqueid": "w58882365:a42678517", "current_trial": 39, "dateTime": 1691073066964, "trialdata": {"revealed_states": [], "clicked_states": ["12", "13", "14", "15", "17"], "num_clicks_accrued": [0, 0, 0, 0, 0, 0, 0, 0, 0, 0, 0, 0, 0], "stateRewards": ["", -1, 3, -5, -2, -13, -9, -34, -7, -81, 32, 35, -2, -2, 1, -14, -32, 81, 7, 4, 82, 56, -8, -1, 3, -8, 6, -24, -24, -53, 2, 38, 61, 54], "withholdReward": false, "trial_id": "mdp_trial_31", "block": "test", "trialIndex": 32, "score": 57, "costs": -7, "simulationMode": [null, null, null, null, null], "rewards": [-2, -2, 1, -14, 81], "path": ["0", "0", "12", "13", "14", "15", "17"], "rt": [14626, 71, 179, 523, 329], "actions": ["right", "right", "right", "up", "right"], "actionTimes": [17241, 17813, 18506, 19533, 20372], "queries": {"click": {"state": {"target": ["12", "13", "14", "15", "17"], "time": [3791, 5981, 8414, 10698, 13001]}, "edge": {"target": [], "time": []}}, "mouseover": {"state": {"target": ["12", "13", "14", "15", "17", "16"], "time": [3525, 4509, 6759, 10458, 12675, 15191]}, "edge": {"target": [], "time": []}}, "mouseout": {"state": {"target": ["17", "16", "18", "1", "12", "13", "14", "15", "17", "17", "16"], "time": [1491, 1574, 1674, 1792, 3798, 6459, 9225, 11232, 14724, 14925, 15690]}, "edge": {"target": [], "time": []}}}, "displayed_time": "20.88", "trialTime": 25027, "trial_type": "mouselab-mdp", "trial_index": 39, "time_elapsed": 2066718, "internal_node_id": "0.0-4.0-1.0-30.0"}}, {"uniqueid": "w58882365:a42678517", "current_trial": 40, "dateTime": 1691073099316, "trialdata": {"revealed_states": [], "clicked_states": ["1", "2", "3", "8", "9", "11", "4", "5", "6"], "num_clicks_accrued": [0, 0, 0, 0, 0, 0, 0, 0, 0, 0, 0, 0, 0], "stateRewards": ["", 2, -1, -1, 7, 11, -40, -22, -2, 69, 37, 8, -2, 4, -8, -12, -2, -72, -3, -12, 17, 63, 12, 1, 3, -7, 6, 25, 61, 61, -9, 28, -17, 27], "withholdReward": false, "trial_id": "mdp_trial_32", "block": "test", "trialIndex": 33, "score": 54.4, "costs": -12.600000000000001, "simulationMode": [null, null, null, null, null], "rewards": [2, -1, -1, -2, 69], "path": ["0", "0", "1", "2", "3", "8", "9"], "rt": [23701, 171, 238, 535, 604], "actions": ["up", "up", "up", "left", "up"], "actionTimes": [26126, 26818, 27553, 28583, 29684], "queries": {"click": {"state": {"target": ["1", "2", "3", "8", "9", "11", "4", "5", "6"], "time": [3435, 5659, 7726, 10181, 12415, 15000, 17469, 19863, 22434]}, "edge": {"target": [], "time": []}}, "mouseover": {"state": {"target": ["1", "2", "3", "8", "9", "11", "8", "2", "7", "4", "7", "5", "7", "6", "15", "20"], "time": [3094, 4096, 7112, 9979, 12046, 14745, 15545, 15629, 16945, 17212, 18829, 19602, 20647, 21994, 23346, 24245]}, "edge": {"target": [], "time": []}}, "mouseout": {"state": {"target": ["18", "8", "11", "29", "25", "24", "1", "2", "3", "3", "3", "8", "9", "8", "11", "8", "2", "7", "4", "7", "4", "5", "4", "7", "6", "15", "20"], "time": [678, 728, 745, 1294, 1394, 1443, 3812, 6429, 7844, 8497, 9779, 11662, 13363, 14528, 15512, 15562, 15663, 17011, 18013, 19162, 19278, 20296, 20518, 20679, 22832, 23896, 24363]}, "edge": {"target": [], "time": []}}}, "displayed_time": "30.20", "trialTime": 32100, "trial_type": "mouselab-mdp", "trial_index": 40, "time_elapsed": 2099071, "internal_node_id": "0.0-4.0-1.0-31.0"}}, {"uniqueid": "w58882365:a42678517", "current_trial": 41, "dateTime": 1691073123732, "trialdata": {"revealed_states": [], "clicked_states": ["12", "13", "14", "19", "21", "20"], "num_clicks_accrued": [0, 0, 0, 0, 0, 0, 0, 0, 0, 0, 0, 0, 0], "stateRewards": ["", 1, 4, -8, -13, -13, -87, -77, -10, -44, 54, 42, 2, -3, -4, 12, -9, -80, 52, 9, 84, -2, -65, 1, -4, -5, -6, 8, 80, 32, 13, -59, -5, -13], "withholdReward": false, "trial_id": "mdp_trial_33", "block": "test", "trialIndex": 34, "score": 79.6, "costs": -8.4, "simulationMode": [null, null, null, null, null], "rewards": [2, -3, -4, 9, 84], "path": ["0", "0", "12", "13", "14", "19", "20"], "rt": [15589, 283, 290, 742, 588], "actions": ["right", "right", "right", "down", "right"], "actionTimes": [17751, 18551, 19341, 20576, 21656], "queries": {"click": {"state": {"target": ["12", "13", "14", "19", "21", "20"], "time": [3439, 6034, 7933, 9989, 11903, 14305]}, "edge": {"target": [], "time": []}}, "mouseover": {"state": {"target": ["0", "12", "13", "13", "14", "19", "21", "20"], "time": [2685, 2895, 3962, 5502, 6862, 8847, 11013, 14016]}, "edge": {"target": [], "time": []}}, "mouseout": {"state": {"target": ["21", "3", "27", "28", "24", "31", "0", "0", "12", "12", "13", "13", "14", "19", "21", "20"], "time": [861, 910, 1361, 1412, 1461, 1560, 2512, 2829, 3554, 3864, 5364, 6729, 8645, 10813, 12329, 15167]}, "edge": {"target": [], "time": []}}}, "displayed_time": "22.15", "trialTime": 24181, "trial_type": "mouselab-mdp", "trial_index": 41, "time_elapsed": 2123486, "internal_node_id": "0.0-4.0-1.0-32.0"}}, {"uniqueid": "w58882365:a42678517", "current_trial": 42, "dateTime": 1691073163693, "trialdata": {"revealed_states": [], "clicked_states": ["23", "24", "25", "30", "33", "32", "26", "29", "27", "12", "13", "14", "19", "20"], "num_clicks_accrued": [0, 0, 0, 0, 0, 0, 0, 0, 0, 0, 0, 0, 0], "stateRewards": ["", -2, 4, -7, -3, -76, 39, -28, 10, 14, 12, 60, 2, -3, 6, -10, 88, -34, -41, -3, 72, -13, -56, 1, 3, 2, 8, -51, 23, -57, 1, 14, -46, -16], "withholdReward": false, "trial_id": "mdp_trial_34", "block": "test", "trialIndex": 35, "score": 54.400000000000006, "costs": -19.599999999999998, "simulationMode": [null, null, null, null, null], "rewards": [2, -3, 6, -3, 72], "path": ["0", "0", "12", "13", "14", "19", "20"], "rt": [31616, 44, 179, 562, 389], "actions": ["right", "right", "right", "down", "right"], "actionTimes": [34405, 34950, 35651, 36733, 37627], "queries": {"click": {"state": {"target": ["23", "24", "25", "30", "33", "32", "26", "29", "27", "12", "13", "14", "19", "20"], "time": [4136, 5943, 7879, 9772, 11974, 13989, 16212, 18346, 20687, 23060, 25282, 27213, 29092, 31077]}, "edge": {"target": [], "time": []}}, "mouseover": {"state": {"target": ["23", "24", "25", "30", "33", "32", "30", "25", "26", "29", "27", "28", "0", "12", "13", "13", "14", "19", "20", "21"], "time": [3853, 4769, 6887, 8554, 10703, 13136, 14571, 14871, 15253, 17287, 20303, 21720, 22619, 22836, 23770, 24103, 26239, 28488, 29803, 32305]}, "edge": {"target": [], "time": []}}, "mouseout": {"state": {"target": ["22", "2", "8", "8", "10", "23", "24", "25", "30", "33", "32", "30", "25", "26", "29", "27", "28", "0", "12", "13", "13", "14", "19", "20", "21"], "time": [853, 885, 1803, 1902, 1972, 4586, 6636, 8371, 10270, 12969, 14421, 14621, 14954, 16937, 19871, 21436, 21937, 22670, 23504, 23921, 25888, 28054, 29555, 31762, 33470]}, "edge": {"target": [], "time": []}}}, "displayed_time": "38.12", "trialTime": 39729, "trial_type": "mouselab-mdp", "trial_index": 42, "time_elapsed": 2163448, "internal_node_id": "0.0-4.0-1.0-33.0"}}, {"uniqueid": "w58882365:a42678517", "current_trial": 43, "dateTime": 1691073189418, "trialdata": {"revealed_states": [], "clicked_states": ["1", "2", "3", "4", "5", "6"], "num_clicks_accrued": [0, 0, 0, 0, 0, 0, 0, 0, 0, 0, 0, 0, 0], "stateRewards": ["", -2, -3, 7, -13, 60, 9, 37, -6, 37, 20, 1, 2, -2, -8, 6, -80, -31, -10, -7, 70, -65, -44, -1, 1, 7, 6, -11, 73, -85, 16, -21, 47, 34], "withholdReward": false, "trial_id": "mdp_trial_35", "block": "test", "trialIndex": 36, "score": 40.6, "costs": -8.4, "simulationMode": [null, null, null, null, null], "rewards": [-2, -3, 7, -13, 60], "path": ["0", "0", "1", "2", "3", "4", "5"], "rt": [14118, 46, 156, 526, 409], "actions": ["up", "up", "up", "right", "up"], "actionTimes": [16429, 16975, 17651, 18688, 19587], "queries": {"click": {"state": {"target": ["1", "2", "3", "4", "5", "6"], "time": [3334, 4864, 6597, 8462, 10168, 12612]}, "edge": {"target": [], "time": []}}, "mouseover": {"state": {"target": ["1", "2", "3", "4", "5", "6", "16", "18", "13", "22"], "time": [2876, 4442, 5659, 7310, 9395, 11444, 13759, 15143, 15280, 15313]}, "edge": {"target": [], "time": []}}, "mouseout": {"state": {"target": ["23", "27", "26", "25", "24", "23", "0", "1", "2", "3", "4", "5", "4", "6", "16", "18", "13", "22"], "time": [908, 1342, 1374, 1425, 1542, 1642, 2633, 4193, 5510, 7226, 9026, 10712, 11094, 13060, 14926, 15226, 15311, 15326]}, "edge": {"target": [], "time": []}}}, "displayed_time": "20.08", "trialTime": 25476, "trial_type": "mouselab-mdp", "trial_index": 43, "time_elapsed": 2189173, "internal_node_id": "0.0-4.0-1.0-34.0"}}, {"uniqueid": "w58882365:a42678517", "current_trial": 44, "dateTime": 1691073219041, "trialdata": {"revealed_states": [], "clicked_states": ["23", "24", "25", "26", "27", "29", "30", "33", "32"], "num_clicks_accrued": [0, 0, 0, 0, 0, 0, 0, 0, 0, 0, 0, 0, 0], "stateRewards": ["", 2, 4, -5, 7, 81, 35, 6, 11, 14, -72, 42, -1, 2, 3, -7, -77, -44, -40, -15, -85, 51, -32, -2, -1, -5, 7, -74, 47, 52, 16, -49, 48, -46], "withholdReward": false, "trial_id": "mdp_trial_36", "block": "test", "trialIndex": 37, "score": 38.4, "costs": -12.600000000000001, "simulationMode": [null, null, null, null, null], "rewards": [-2, -1, -5, 7, 52], "path": ["0", "0", "23", "24", "25", "26", "29"], "rt": [21286, 381, 220, 545, 360], "actions": ["left", "left", "left", "up", "left"], "actionTimes": [23616, 24487, 25226, 26284, 27149], "queries": {"click": {"state": {"target": ["23", "24", "25", "26", "27", "29", "30", "33", "32"], "time": [3738, 5841, 7781, 9807, 11591, 13932, 16165, 18217, 20247]}, "edge": {"target": [], "time": []}}, "mouseover": {"state": {"target": ["23", "24", "25", "26", "27", "29", "30", "33", "32"], "time": [3470, 4371, 6403, 8788, 10838, 13470, 15138, 17421, 19573]}, "edge": {"target": [], "time": []}}, "mouseout": {"state": {"target": ["0", "0", "23", "24", "25", "26", "27", "29", "29", "30", "33", "32"], "time": [1489, 2820, 4120, 6337, 8405, 10387, 12522, 14027, 14589, 16689, 18839, 20839]}, "edge": {"target": [], "time": []}}}, "displayed_time": "27.66", "trialTime": 29376, "trial_type": "mouselab-mdp", "trial_index": 44, "time_elapsed": 2218796, "internal_node_id": "0.0-4.0-1.0-35.0"}}, {"uniqueid": "w58882365:a42678517", "current_trial": 45, "dateTime": 1691073286107, "trialdata": {"revealed_states": [], "clicked_states": ["1", "2", "3", "4", "6", "5", "8", "11", "9", "12", "13", "14", "15", "17", "16", "19", "20", "21", "23", "24", "25", "30", "32", "33", "26", "29", "27"], "num_clicks_accrued": [0, 0, 0, 0, 0, 0, 0, 0, 0, 0, 0, 0, 0], "stateRewards": ["", 2, -3, -4, -1, 25, -16, 16, 10, -71, -20, -55, 1, 3, -4, -9, 1, 32, 11, -6, 32, -50, -41, -1, 4, 4, -8, 7, -81, 70, 2, -52, 45, -10], "withholdReward": false, "trial_id": "mdp_trial_37", "block": "test", "trialIndex": 38, "score": 31.200000000000017, "costs": -37.79999999999998, "simulationMode": [null, null, null, null, null], "rewards": [-1, 4, 4, -8, 70], "path": ["0", "0", "23", "24", "25", "26", "29"], "rt": [59321, 261, 179, 599, 70], "actions": ["left", "left", "left", "up", "left"], "actionTimes": [61507, 62276, 62962, 64064, 64636], "queries": {"click": {"state": {"target": ["1", "2", "3", "4", "6", "5", "8", "11", "9", "12", "13", "14", "15", "17", "16", "19", "20", "21", "23", "24", "25", "30", "32", "33", "26", "29", "27"], "time": [3212, 4944, 6724, 8638, 10504, 12967, 15130, 17157, 19597, 22056, 23915, 25723, 27700, 29557, 31995, 34922, 36661, 38894, 41610, 43887, 45633, 47459, 49283, 51792, 54518, 56419, 58775]}, "edge": {"target": [], "time": []}}, "mouseover": {"state": {"target": ["1", "2", "3", "4", "6", "6", "5", "3", "8", "11", "9", "8", "2", "12", "13", "14", "15", "17", "16", "15", "20", "19", "20", "21", "23", "24", "25", "30", "32", "33", "30", "25", "26", "29", "27", "28", "12", "19", "20"], "time": [2829, 4279, 6014, 8146, 9230, 9614, 12697, 13962, 14563, 16247, 19197, 21014, 21331, 21714, 22648, 24430, 26882, 28447, 31730, 32454, 34363, 34580, 35748, 38530, 41331, 42065, 44365, 46331, 48066, 51281, 52632, 53748, 54215, 55398, 57499, 59149, 59232, 59365, 59632]}, "edge": {"target": [], "time": []}}, "mouseout": {"state": {"target": ["21", "20", "12", "27", "26", "25", "30", "31", "0", "1", "2", "3", "4", "6", "6", "6", "5", "3", "8", "11", "9", "8", "2", "12", "12", "13", "14", "15", "17", "17", "16", "15", "20", "19", "20", "21", "23", "24", "25", "30", "32", "33", "30", "25", "26", "29", "27", "28", "12", "19"], "time": [695, 811, 846, 1279, 1345, 1395, 1481, 1529, 1612, 3996, 5597, 7996, 9080, 9314, 11164, 12462, 13713, 13979, 16097, 18802, 20530, 21212, 21412, 22146, 22465, 24296, 26598, 28231, 30066, 31546, 32381, 32497, 34550, 35381, 37365, 40580, 41998, 44248, 46146, 47914, 49714, 52366, 53697, 53781, 55082, 57031, 59082, 59166, 59266, 59466]}, "edge": {"target": [], "time": []}}}, "displayed_time": "65.14", "trialTime": 66800, "trial_type": "mouselab-mdp", "trial_index": 45, "time_elapsed": 2285861, "internal_node_id": "0.0-4.0-1.0-36.0"}}, {"uniqueid": "w58882365:a42678517", "current_trial": 46, "dateTime": 1691073313321, "trialdata": {"revealed_states": [], "clicked_states": ["1", "2", "3", "8", "9", "4", "5"], "num_clicks_accrued": [0, 0, 0, 0, 0, 0, 0, 0, 0, 0, 0, 0, 0], "stateRewards": ["", 1, -2, 7, -14, 88, -56, -44, -14, 64, -51, -57, -2, 3, -4, -9, -11, 19, -77, -1, 68, 75, -67, -1, 1, -2, 5, -37, 70, -34, -10, -72, 63, -41], "withholdReward": false, "trial_id": "mdp_trial_38", "block": "test", "trialIndex": 39, "score": 70.2, "costs": -9.8, "simulationMode": [null, null, null, null, null], "rewards": [1, -2, 7, -14, 88], "path": ["0", "0", "1", "2", "3", "4", "5"], "rt": [17095, 183, 186, 462, 216], "actions": ["up", "up", "up", "right", "up"], "actionTimes": [18998, 19694, 20379, 21355, 22060], "queries": {"click": {"state": {"target": ["1", "2", "3", "8", "9", "4", "5"], "time": [3064, 4977, 6988, 8880, 11115, 13494, 15399]}, "edge": {"target": [], "time": []}}, "mouseover": {"state": {"target": ["1", "2", "3", "8", "9", "3", "4", "5", "6"], "time": [2745, 3645, 5813, 8226, 10559, 12742, 13026, 14442, 17092]}, "edge": {"target": [], "time": []}}, "mouseout": {"state": {"target": ["20", "19", "5", "4", "7", "1", "1", "2", "3", "8", "9", "3", "4", "5", "4", "6"], "time": [711, 777, 1044, 1093, 1126, 1293, 3511, 5596, 8110, 10276, 12277, 12925, 14142, 15926, 16727, 17659]}, "edge": {"target": [], "time": []}}}, "displayed_time": "22.56", "trialTime": 26943, "trial_type": "mouselab-mdp", "trial_index": 46, "time_elapsed": 2313075, "internal_node_id": "0.0-4.0-1.0-37.0"}}, {"uniqueid": "w58882365:a42678517", "current_trial": 47, "dateTime": 1691073337763, "trialdata": {"revealed_states": [], "clicked_states": ["23", "24", "25", "26", "29"], "num_clicks_accrued": [0, 0, 0, 0, 0, 0, 0, 0, 0, 0, 0, 0, 0], "stateRewards": ["", 2, -2, -8, 9, -20, 55, -58, 14, 42, 2, 36, 1, -3, -5, 5, -58, 57, 60, 16, 57, 30, -70, -2, 1, 3, 10, 59, 23, 77, -13, -26, 88, -72], "withholdReward": false, "trial_id": "mdp_trial_39", "block": "test", "trialIndex": 40, "score": 82, "costs": -7, "simulationMode": [null, null, null, null, null], "rewards": [-2, 1, 3, 10, 77], "path": ["0", "0", "23", "24", "25", "26", "29"], "rt": [12928, 236, 258, 604, 254], "actions": ["left", "left", "left", "up", "left"], "actionTimes": [15380, 16106, 16860, 17957, 18723], "queries": {"click": {"state": {"target": ["23", "24", "25", "26", "29"], "time": [3694, 5339, 8086, 10043, 12030]}, "edge": {"target": [], "time": []}}, "mouseover": {"state": {"target": ["23", "24", "25", "26", "29", "27", "28"], "time": [3116, 4417, 6101, 9301, 10901, 14050, 14185]}, "edge": {"target": [], "time": []}}, "mouseout": {"state": {"target": ["20", "19", "22", "0", "23", "24", "25", "26", "29", "27", "28"], "time": [1649, 1716, 1766, 3050, 4151, 6051, 9117, 10635, 13535, 14168, 14201]}, "edge": {"target": [], "time": []}}}, "displayed_time": "19.22", "trialTime": 24177, "trial_type": "mouselab-mdp", "trial_index": 47, "time_elapsed": 2337518, "internal_node_id": "0.0-4.0-1.0-38.0"}}, {"uniqueid": "w58882365:a42678517", "current_trial": 48, "dateTime": 1691073398844, "trialdata": {"revealed_states": [], "clicked_states": ["1", "2", "3", "4", "6", "5", "8", "11", "9", "12", "13", "14", "19", "20", "21", "15", "16", "17", "23", "24", "25", "30", "33"], "num_clicks_accrued": [0, 0, 0, 0, 0, 0, 0, 0, 0, 0, 0, 0, 0], "stateRewards": ["", -2, 1, -7, 9, 8, 25, 61, -7, -17, 69, -81, 1, 4, -4, -11, 16, 67, 44, 3, 6, -45, -54, -2, 3, 6, -11, -15, 32, -47, 3, -39, -6, -88], "withholdReward": false, "trial_id": "mdp_trial_40", "block": "test", "trialIndex": 41, "score": 24.80000000000001, "costs": -32.19999999999999, "simulationMode": [null, null, null, null, null], "rewards": [1, 4, -4, -11, 67], "path": ["0", "0", "12", "13", "14", "15", "17"], "rt": [52270, 204, 177, 764, 333], "actions": ["right", "right", "right", "up", "right"], "actionTimes": [54168, 54875, 55565, 56819, 57671], "queries": {"click": {"state": {"target": ["1", "2", "3", "4", "6", "5", "8", "11", "9", "12", "13", "14", "19", "20", "21", "15", "16", "17", "23", "24", "25", "30", "33"], "time": [2983, 5030, 6761, 8559, 10395, 12860, 15224, 17187, 19536, 22631, 24446, 26470, 28356, 30190, 32192, 35057, 36912, 38929, 41767, 43625, 45278, 46814, 50805]}, "edge": {"target": [], "time": []}}, "mouseover": {"state": {"target": ["1", "2", "3", "4", "6", "5", "3", "8", "11", "9", "8", "2", "12", "12", "13", "14", "19", "20", "21", "15", "16", "17", "14", "13", "12", "0", "23", "24", "25", "30", "33", "33", "31"], "time": [2703, 3537, 5571, 7370, 8921, 12586, 13486, 15020, 16035, 19269, 20619, 21551, 22201, 22386, 23071, 25020, 27653, 28936, 31302, 33287, 36403, 37771, 39687, 40820, 40953, 41137, 41519, 42771, 44787, 46103, 47370, 50603, 51253]}, "edge": {"target": [], "time": []}}, "mouseout": {"state": {"target": ["22", "18", "4", "7", "1", "2", "3", "4", "6", "5", "3", "8", "11", "8", "9", "8", "2", "12", "12", "13", "14", "19", "20", "21", "19", "15", "16", "17", "17", "14", "13", "12", "0", "23", "24", "25", "30", "33", "30", "30", "33", "30", "31"], "time": [953, 970, 1136, 1173, 3370, 5471, 6881, 8886, 10954, 13303, 14740, 15786, 17686, 19026, 20336, 20886, 21585, 22235, 22970, 24937, 27503, 28803, 30852, 32670, 32824, 36103, 37470, 39012, 39454, 40769, 40836, 41036, 41438, 42521, 44453, 45703, 47186, 48420, 48804, 50437, 51137, 51203, 51371]}, "edge": {"target": [], "time": []}}}, "displayed_time": "58.17", "trialTime": 60809, "trial_type": "mouselab-mdp", "trial_index": 48, "time_elapsed": 2398598, "internal_node_id": "0.0-4.0-1.0-39.0"}}, {"uniqueid": "w58882365:a42678517", "current_trial": 49, "dateTime": 1691073490435, "trialdata": {"rt": 91581, "response": {"Q0": "$-2 to $2", "Q1": "$-4 to $4", "Q2": "$-88 to $88", "Q3": "The cost for clicking on nodes varied between nodes.", "Q4": "Very motivated"}, "question_order": [0, 1, 2, 3, 4], "trial_id": "final_quiz_control", "trial_type": "survey-multi-choice", "trial_index": 49, "time_elapsed": 2490189, "internal_node_id": "0.0-4.0-2.0"}}, {"uniqueid": "w58882365:a42678517", "current_trial": 50, "dateTime": 1691073689921, "trialdata": {"rt": 199477, "response": {"Q0": "I was looking at the cost of the node inspector compared it to what i was going to earn as a positive amount.", "Q1": "Yes I did I made sure that if i get to the end of the web and getting an amount of more than 50 pounds i stopped using the inspector and i went for that amount that the inspector revealed at the end", "Q2": "It was not difficult once i found a perfect strategy i was earning in each and every round"}, "trial_id": "self_report_control", "trial_type": "survey-text", "trial_index": 50, "time_elapsed": 2689676, "internal_node_id": "0.0-4.0-3.0"}}, {"uniqueid": "w58882365:a42678517", "current_trial": 51, "dateTime": 1691073744084, "trialdata": {"rt": 54163, "response": {"gender": "male", "age": "33", "colorblind": "0", "effort": "0"}, "trial_type": "survey-html-form", "trial_index": 51, "time_elapsed": 2743839, "internal_node_id": "0.0-4.0-4.0"}}, {"uniqueid": "w58882365:a42678517", "current_trial": 52, "dateTime": 1691073825587, "trialdata": {"rt": 81498, "response": {"Q0": "No the instructions were clear", "Q1": "NO, it is the first time ", "Q2": "It was a very nice HIT to participate in, i really enjoyed it."}, "trial_type": "survey-text", "trial_index": 52, "time_elapsed": 2825342, "internal_node_id": "0.0-4.0-5.0"}}, {"uniqueid": "w58882365:a42678517", "current_trial": 53, "dateTime": 1691073828044, "trialdata": {"rt": 2452, "stimulus": "Press 'Finish HIT' in order to reach the completion code. Once the data has been saved, you will receive the code either in this window or in the original browser window where you started the experiment.\n", "response": 0, "trial_type": "html-button-response", "trial_index": 53, "time_elapsed": 2827799, "internal_node_id": "0.0-5.0"}}, {"uniqueid": "w58882365:a42678517", "current_trial": 54, "dateTime": 1691073829053, "trialdata": {"success": true, "trial_type": "fullscreen", "trial_index": 54, "time_elapsed": 2828808, "internal_node_id": "0.0-6.0"}}], "questiondata": {"params": {"CODE": "C6DMOQA6", "MIN_TIME": 14, "inspectCost": 1, "startTime": "Thu Aug 03 2023 15:56:38 GMT+0200 (South Africa Standard Time)", "bonusRate": 0.002, "variance": "1_2_4_8_44", "branching": "31123"}, "final_score": 1360}, "eventdata": [{"eventtype": "initialized", "value": null, "timestamp": 1691070997577, "interval": 0}, {"eventtype": "window_resize", "value": [1536, 766], "timestamp": 1691070997577, "interval": 0}, {"eventtype": "window_resize", "value": [1536, 766], "timestamp": 1691070998106, "interval": 529}, {"eventtype": "window_resize", "value": [1536, 864], "timestamp": 1691071010568, "interval": 12462}, {"eventtype": "window_resize", "value": [1536, 766], "timestamp": 1691073828278, "interval": 2817710}], "useragent": "Mozilla/5.0 (Windows NT 10.0; Win64; x64) AppleWebKit/537.36 (KHTML, like Gecko) Chrome/115.0.0.0 Safari/537.36", "mode": "live", "id": "w58882365:a42678517", "status": "user data saved", "Beginhit": "2023-08-03 13:56:32.074083", "Beginexp": "2023-08-03 13:56:49.688068", "Endhit": "2023-08-03 14:43:48.515054", "psiturkStatus": 3, "browser": "<redacted>", "platform": "windows", "language": "en-US"}