{"condition": 0, "counterbalance": 0, "assignmentId": "a73447404", "workerId": "w39878106", "hitId": "h27695776", "currenttrial": 55, "bonus": 0, "data": [{"uniqueid": "w39878106:a73447404", "current_trial": 0, "dateTime": 1693564760499, "trialdata": {"success": true, "trial_type": "fullscreen", "trial_index": 0, "time_elapsed": 2531, "internal_node_id": "0.0-0.0"}}, {"uniqueid": "w39878106:a73447404", "current_trial": 1, "dateTime": 1693564783272, "trialdata": {"view_history": [{"page_index": 0, "viewing_time": 22768}], "rt": 22770, "trial_id": "exp_instructions_control", "trial_type": "instructions", "trial_index": 1, "time_elapsed": 25304, "internal_node_id": "0.0-1.0"}}, {"uniqueid": "w39878106:a73447404", "current_trial": 2, "dateTime": 1693565224317, "trialdata": {"view_history": [{"page_index": 0, "viewing_time": 235386}, {"page_index": 1, "viewing_time": 68902}, {"page_index": 2, "viewing_time": 60585}, {"page_index": 3, "viewing_time": 76169}], "rt": 441044, "trial_id": "mouselab_instructions_1_control", "trial_type": "instructions", "trial_index": 2, "time_elapsed": 466350, "internal_node_id": "0.0-2.0-1.0"}}, {"uniqueid": "w39878106:a73447404", "current_trial": 3, "dateTime": 1693565368359, "trialdata": {"revealed_states": [], "clicked_states": ["12", "13", "14", "19", "20", "21", "22", "15", "18", "16", "17", "23", "24", "25", "26", "28", "1", "2", "3", "4", "6", "5", "8", "10", "9", "11", "30", "32", "31", "33", "29", "27", "7"], "num_clicks_accrued": [0, 0, 0, 0, 0, 0, 0, 0, 0, 0, 0, 0, 0], "stateRewards": ["", -10, 10, 10, -10, -10, 10, 10, 10, -10, -10, -10, 10, 10, -10, -10, -10, 10, -10, 10, -10, 10, 10, 10, 10, -10, 10, -10, -10, 10, -10, 10, -10, -10], "withholdReward": false, "trial_id": "practice_1", "block": "test", "trialIndex": 0, "score": -23, "costs": -16.5, "simulationMode": [null, null, null, null, null], "rewards": [10, 10, -10, -10, -10], "path": ["0", "0", "12", "13", "14", "15", "16"], "rt": [129345, 1277, 1236, 936, 387], "actions": ["right", "right", "right", "up", "up"], "actionTimes": [133326, 135117, 136861, 138295, 139195], "queries": {"click": {"state": {"target": ["12", "13", "14", "19", "20", "21", "22", "15", "18", "16", "17", "23", "24", "25", "26", "28", "1", "2", "3", "4", "6", "5", "8", "10", "9", "11", "30", "32", "31", "33", "29", "27", "7"], "time": [5625, 8357, 12709, 16227, 22445, 27096, 32447, 42497, 44431, 47665, 49597, 52081, 54631, 57482, 60565, 62099, 66498, 68499, 69833, 72383, 73766, 77099, 80481, 81916, 83615, 85332, 87381, 88866, 93149, 95682, 99532, 101815, 104666]}, "edge": {"target": [], "time": []}}, "mouseover": {"state": {"target": ["12", "13", "14", "19", "21", "20", "21", "19", "14", "15", "22", "19", "22", "14", "14", "13", "14", "22", "22", "19", "14", "15", "18", "16", "17", "23", "24", "25", "24", "25", "26", "28", "1", "2", "3", "4", "6", "7", "4", "5", "8", "10", "9", "11", "26", "25", "30", "32", "31", "30", "33", "26", "28", "26", "29", "27", "7", "1", "18", "15", "17", "18", "13", "22", "14", "13", "12", "0", "12", "1", "12", "1", "1", "0", "23"], "time": [4849, 8035, 11082, 15604, 21570, 22105, 24372, 29723, 30092, 30556, 30703, 31506, 31974, 35024, 35759, 36973, 37423, 39391, 40242, 41608, 41856, 42241, 44205, 45438, 49326, 50775, 53320, 53791, 54289, 56026, 59107, 61809, 66109, 67436, 69289, 72142, 73355, 75875, 76753, 76839, 79175, 81641, 83376, 84589, 86659, 86992, 87057, 88223, 90205, 94891, 95393, 96908, 97526, 98821, 99192, 101277, 104356, 106260, 106660, 106705, 107242, 110425, 110543, 113208, 113859, 115703, 115754, 116043, 119724, 120874, 125580, 127930, 128944, 129376, 129509]}, "edge": {"target": [], "time": []}}, "mouseout": {"state": {"target": ["0", "12", "13", "14", "19", "21", "20", "21", "19", "14", "15", "22", "19", "22", "14", "14", "13", "14", "22", "22", "19", "14", "15", "18", "16", "17", "23", "24", "25", "24", "25", "26", "28", "1", "2", "3", "4", "6", "7", "4", "5", "8", "8", "10", "8", "9", "11", "26", "25", "30", "32", "31", "30", "33", "26", "28", "26", "29", "27", "7", "1", "18", "15", "17", "18", "13", "22", "14", "13", "12", "0", "12", "1", "12", "1", "1", "0", "23"], "time": [738, 6765, 10599, 15487, 21287, 22035, 23855, 29654, 29772, 30100, 30606, 31005, 31873, 34925, 35053, 36925, 37358, 38839, 39476, 41475, 41825, 41869, 43286, 45222, 48992, 50307, 53306, 53338, 54239, 55772, 59009, 61707, 65959, 67254, 69156, 71774, 73287, 75608, 76726, 76772, 78357, 80486, 81575, 82756, 83257, 84506, 86544, 86944, 87025, 88087, 88870, 94857, 94977, 96422, 97260, 98808, 98876, 100957, 103157, 106141, 106590, 106692, 106740, 107292, 110488, 110593, 113258, 115692, 115739, 115825, 117356, 120790, 123075, 126267, 128111, 128989, 129457, 131227]}, "edge": {"target": [], "time": []}}}, "displayed_time": "139.71", "trialTime": 143332, "trial_type": "mouselab-mdp", "trial_index": 3, "time_elapsed": 610392, "internal_node_id": "0.0-2.0-2.0-0.0"}}, {"uniqueid": "w39878106:a73447404", "current_trial": 4, "dateTime": 1693565393718, "trialdata": {"revealed_states": [], "clicked_states": ["23", "1", "12"], "num_clicks_accrued": [0, 0, 0, 0, 0, 0, 0, 0, 0, 0, 0, 0, 0], "stateRewards": ["", -10, -10, 10, -10, 10, -10, -10, -10, 10, -10, 10, 10, 10, 10, 10, 10, -10, -10, -10, -10, -10, 10, -10, -10, 10, 10, 10, -10, -10, 10, -10, -10, 10], "withholdReward": false, "trial_id": "practice_2", "block": "test", "trialIndex": 1, "score": 52, "costs": -1.5, "simulationMode": [null, null, null, null, null], "rewards": [10, 10, 10, 10, 10], "path": ["0", "0", "12", "13", "14", "15", "16"], "rt": [9779, 468, 4681, 1409, 185], "actions": ["right", "right", "right", "up", "up"], "actionTimes": [12073, 13063, 18260, 20188, 20881], "queries": {"click": {"state": {"target": ["23", "1", "12"], "time": [6373, 8254, 9856]}, "edge": {"target": [], "time": []}}, "mouseover": {"state": {"target": ["23", "12", "0", "23", "1", "12", "12"], "time": [4115, 4831, 5765, 5827, 7981, 9146, 9379]}, "edge": {"target": [], "time": []}}, "mouseout": {"state": {"target": ["23", "12", "0", "23", "1", "12", "12", "13", "14"], "time": [4599, 5582, 5776, 7566, 9026, 9275, 15666, 15714, 17631]}, "edge": {"target": [], "time": []}}}, "displayed_time": "21.39", "trialTime": 25262, "trial_type": "mouselab-mdp", "trial_index": 4, "time_elapsed": 635750, "internal_node_id": "0.0-2.0-2.0-1.0"}}, {"uniqueid": "w39878106:a73447404", "current_trial": 5, "dateTime": 1693565441319, "trialdata": {"view_history": [{"page_index": 0, "viewing_time": 33613}, {"page_index": 1, "viewing_time": 13984}], "rt": 47598, "trial_id": "mouselab_instructions_2_control", "trial_type": "instructions", "trial_index": 5, "time_elapsed": 683352, "internal_node_id": "0.0-2.0-3.0"}}, {"uniqueid": "w39878106:a73447404", "current_trial": 6, "dateTime": 1693565501554, "trialdata": {"rt": 60231, "response": {"Q0": "The cost for clicking on nodes may vary between nodes.", "Q1": "The better I perform the higher my bonus will be.", "Q2": "No, the amount of cash at each node of the web may be different each time.", "Q3": "To get the highest total score.", "Q4": "Only before moving the spider.", "Q5": "3 seconds"}, "question_order": [0, 1, 2, 3, 4, 5], "correct": {"Q0": "The cost for clicking on nodes may vary between nodes.", "Q1": "The better I perform the higher my bonus will be.", "Q2": "No, the amount of cash at each node of the web may be different each time.", "Q3": "To get the highest total score.", "Q4": "Only before moving the spider.", "Q5": "3 seconds"}, "trial_id": "mouselab_quiz_control", "trial_type": "survey-multi-choice", "trial_index": 6, "time_elapsed": 743587, "internal_node_id": "0.0-2.0-4.0"}}, {"uniqueid": "w39878106:a73447404", "current_trial": 7, "dateTime": 1693565509485, "trialdata": {"rt": 7922, "response": {"Q0": "No"}, "question_order": [0], "trial_id": "repeat_check", "trial_type": "survey-multi-choice", "trial_index": 7, "time_elapsed": 751518, "internal_node_id": "0.0-4.0-0.0"}}, {"uniqueid": "w39878106:a73447404", "current_trial": 8, "dateTime": 1693565529718, "trialdata": {"rt": 20227, "stimulus": "\n<h1> Get ready to start the game! </h1>\n\nThank you for reading the instructions. Get ready start with the 40 rounds of this game.\n<br><br>\nIf you need to take a break, feel free to take one after the end of a round, before continuing to the next one.\n<br><br>\nRemember, the more money the spider gets, the bigger your bonus will be!\n<br><br>\n<div style='text-align: center;'>Press <code>space</code> to begin.</div>\n\n<br><br>\n(If, at any point, the <code>space</code> key does not take you to the next page, click once on the text and try again.)", "response": " ", "trial_id": "mdp_ready", "trial_type": "html-keyboard-response", "trial_index": 8, "time_elapsed": 771751, "internal_node_id": "0.0-6.0-0.0"}}, {"uniqueid": "w39878106:a73447404", "current_trial": 9, "dateTime": 1693565549391, "trialdata": {"revealed_states": [], "clicked_states": ["23", "12", "1"], "num_clicks_accrued": [0, 0, 0, 0, 0, 0, 0, 0, 0, 0, 0, 0, 0], "stateRewards": ["", 1, 1, -7, -9, -44, 24, -83, -15, 44, -24, 72, -2, -3, 4, -5, 57, 55, 29, -11, 22, 12, -25, -1, 2, 7, 12, 33, -8, 47, -4, 8, 50, -4], "withholdReward": false, "trial_id": "mdp_trial_1", "block": "test", "trialIndex": 2, "score": 47.8, "costs": -4.199999999999999, "simulationMode": [null, null, null, null, null], "rewards": [1, 1, -7, -15, 72], "path": ["0", "0", "1", "2", "3", "8", "11"], "rt": [8864, 326, 421, 302, 229], "actions": ["up", "up", "up", "left", "left"], "actionTimes": [11525, 12371, 13303, 14117, 14858], "queries": {"click": {"state": {"target": ["23", "12", "1"], "time": [5158, 7406, 9623]}, "edge": {"target": [], "time": []}}, "mouseover": {"state": {"target": ["23", "12", "1"], "time": [3633, 6293, 8594]}, "edge": {"target": [], "time": []}}, "mouseout": {"state": {"target": ["1", "23", "12", "1"], "time": [1130, 5629, 8378, 10427]}, "edge": {"target": [], "time": []}}}, "displayed_time": "16.67", "trialTime": 19571, "trial_type": "mouselab-mdp", "trial_index": 9, "time_elapsed": 791424, "internal_node_id": "0.0-6.0-1.0-0.0"}}, {"uniqueid": "w39878106:a73447404", "current_trial": 10, "dateTime": 1693565567440, "trialdata": {"revealed_states": [], "clicked_states": ["23", "12", "1"], "num_clicks_accrued": [0, 0, 0, 0, 0, 0, 0, 0, 0, 0, 0, 0, 0], "stateRewards": ["", -1, 1, -6, -1, 80, 23, 2, -11, 73, -81, 59, 1, 3, 5, -1, -26, 28, -3, 16, -59, -13, -50, -2, -2, 2, 15, -50, 86, 17, -4, 37, 35, 44], "withholdReward": false, "trial_id": "mdp_trial_2", "block": "test", "trialIndex": 3, "score": 24.8, "costs": -4.199999999999999, "simulationMode": [null, null, null, null, null], "rewards": [-2, -2, 2, -4, 35], "path": ["0", "0", "23", "24", "25", "30", "32"], "rt": [8844, 158, 393, 742, 221], "actions": ["left", "left", "left", "down", "down"], "actionTimes": [10633, 11284, 12186, 13448, 14180], "queries": {"click": {"state": {"target": ["23", "12", "1"], "time": [3532, 5850, 7716]}, "edge": {"target": [], "time": []}}, "mouseover": {"state": {"target": ["23", "12", "1"], "time": [2994, 4541, 7323]}, "edge": {"target": [], "time": []}}, "mouseout": {"state": {"target": ["1", "23", "12", "1"], "time": [1125, 4405, 7240, 8355]}, "edge": {"target": [], "time": []}}}, "displayed_time": "15.80", "trialTime": 17946, "trial_type": "mouselab-mdp", "trial_index": 10, "time_elapsed": 809472, "internal_node_id": "0.0-6.0-1.0-1.0"}}, {"uniqueid": "w39878106:a73447404", "current_trial": 11, "dateTime": 1693565584782, "trialdata": {"revealed_states": [], "clicked_states": [], "num_clicks_accrued": [0, 0, 0, 0, 0, 0, 0, 0, 0, 0, 0, 0, 0], "stateRewards": ["", 2, -1, -1, -9, -81, -30, 55, -6, 78, 25, 62, 2, 4, -1, 9, -85, 1, -19, 1, -60, 12, -34, 1, 4, -1, -13, -24, -16, -83, -8, 16, 43, 9], "withholdReward": false, "trial_id": "mdp_trial_3", "block": "test", "trialIndex": 4, "score": 56, "costs": 0, "simulationMode": [null, null, null, null, null], "rewards": [2, -1, -1, -6, 62], "path": ["0", "0", "1", "2", "3", "8", "11"], "rt": [5630, 129, 39, 579, 109], "actions": ["up", "up", "up", "left", "left"], "actionTimes": [7405, 8042, 8600, 9707, 10337], "queries": {"click": {"state": {"target": [], "time": []}, "edge": {"target": [], "time": []}}, "mouseover": {"state": {"target": ["1"], "time": [3315]}, "edge": {"target": [], "time": []}}, "mouseout": {"state": {"target": ["12", "1"], "time": [1360, 6712]}, "edge": {"target": [], "time": []}}}, "displayed_time": "15.78", "trialTime": 17242, "trial_type": "mouselab-mdp", "trial_index": 11, "time_elapsed": 826814, "internal_node_id": "0.0-6.0-1.0-2.0"}}, {"uniqueid": "w39878106:a73447404", "current_trial": 12, "dateTime": 1693565603059, "trialdata": {"revealed_states": [], "clicked_states": ["12"], "num_clicks_accrued": [0, 0, 0, 0, 0, 0, 0, 0, 0, 0, 0, 0, 0], "stateRewards": ["", 2, 3, 3, 10, 19, -21, 6, 9, 54, 68, 16, 2, 2, -6, -8, 40, -2, -75, -2, -42, 55, 59, -1, 2, 4, -14, 11, -34, -30, -6, 61, -53, 13], "withholdReward": false, "trial_id": "mdp_trial_4", "block": "test", "trialIndex": 5, "score": -13.4, "costs": -1.4, "simulationMode": [null, null, null, null, null, null], "rewards": [2, 2, -6, -8, -2], "path": ["0", "0", "12", "13", "14", "15", "17"], "rt": [2158, 955, 512, 538, 887, 921], "actions": ["right", "right", "right", "right", "up", "right"], "actionTimes": [3917, 4874, 5906, 6949, 8348, 9784], "queries": {"click": {"state": {"target": ["12"], "time": [3005]}, "edge": {"target": [], "time": []}}, "mouseover": {"state": {"target": ["12"], "time": [2829]}, "edge": {"target": [], "time": []}}, "mouseout": {"state": {"target": [], "time": []}, "edge": {"target": [], "time": []}}}, "displayed_time": "15.77", "trialTime": 18171, "trial_type": "mouselab-mdp", "trial_index": 12, "time_elapsed": 845092, "internal_node_id": "0.0-6.0-1.0-3.0"}}, {"uniqueid": "w39878106:a73447404", "current_trial": 13, "dateTime": 1693565620213, "trialdata": {"revealed_states": [], "clicked_states": ["1"], "num_clicks_accrued": [0, 0, 0, 0, 0, 0, 0, 0, 0, 0, 0, 0, 0], "stateRewards": ["", 1, -1, 4, 5, -32, 18, 20, 6, -88, -74, 9, -2, 1, -2, -14, 34, -77, -38, -1, 80, -36, 73, 2, 3, -8, 10, -48, -73, -71, -11, -22, 20, 54], "withholdReward": false, "trial_id": "mdp_trial_5", "block": "test", "trialIndex": 6, "score": -24.4, "costs": -1.4, "simulationMode": [null, null, null, null, null, null], "rewards": [1, -1, 4, 5, -32], "path": ["0", "0", "1", "2", "3", "4", "5"], "rt": [3777, 953, 276, 673, 1372, 985], "actions": ["up", "up", "up", "up", "right", "up"], "actionTimes": [4573, 5528, 6322, 7506, 9388, 10884], "queries": {"click": {"state": {"target": ["1"], "time": [3373]}, "edge": {"target": [], "time": []}}, "mouseover": {"state": {"target": ["1"], "time": [3169]}, "edge": {"target": [], "time": []}}, "mouseout": {"state": {"target": ["12", "0", "1"], "time": [401, 484, 16385]}, "edge": {"target": [], "time": []}}}, "displayed_time": "14.81", "trialTime": 17043, "trial_type": "mouselab-mdp", "trial_index": 13, "time_elapsed": 862245, "internal_node_id": "0.0-6.0-1.0-4.0"}}, {"uniqueid": "w39878106:a73447404", "current_trial": 14, "dateTime": 1693565638374, "trialdata": {"revealed_states": [], "clicked_states": [], "num_clicks_accrued": [0, 0, 0, 0, 0, 0, 0, 0, 0, 0, 0, 0, 0], "stateRewards": ["", 2, -1, -3, 16, -3, -16, -62, -1, 13, -26, 43, -1, 4, 3, -9, -54, -37, -3, -12, -71, -68, -57, 1, -3, 2, -9, 2, -2, -9, -11, 84, -52, 55], "withholdReward": false, "trial_id": "mdp_trial_6", "block": "test", "trialIndex": 7, "score": -63, "costs": 0, "simulationMode": [null, null, null, null, null], "rewards": [1, -3, 2, -11, -52], "path": ["0", "0", "23", "24", "25", "30", "32"], "rt": [2443, 286, 141, 337, 128], "actions": ["left", "left", "left", "down", "down"], "actionTimes": [4253, 5050, 5705, 6547, 7190], "queries": {"click": {"state": {"target": [], "time": []}, "edge": {"target": [], "time": []}}, "mouseover": {"state": {"target": ["0"], "time": [3782]}, "edge": {"target": [], "time": []}}, "mouseout": {"state": {"target": ["0", "0"], "time": [1734, 17680]}, "edge": {"target": [], "time": []}}}, "displayed_time": "15.82", "trialTime": 18050, "trial_type": "mouselab-mdp", "trial_index": 14, "time_elapsed": 880406, "internal_node_id": "0.0-6.0-1.0-5.0"}}, {"uniqueid": "w39878106:a73447404", "current_trial": 15, "dateTime": 1693565658094, "trialdata": {"revealed_states": [], "clicked_states": ["23", "12", "1"], "num_clicks_accrued": [0, 0, 0, 0, 0, 0, 0, 0, 0, 0, 0, 0, 0], "stateRewards": ["", 1, -1, 8, -3, 38, 85, -20, -4, 8, 23, 73, 2, -4, 6, -13, 44, 7, -28, -11, -77, 45, -69, 1, -1, -7, -11, 75, -51, -87, 7, 36, -53, -26], "withholdReward": false, "trial_id": "mdp_trial_7", "block": "test", "trialIndex": 8, "score": -80.2, "costs": -4.199999999999999, "simulationMode": [null, null, null, null, null], "rewards": [2, -4, 6, -11, -69], "path": ["0", "0", "12", "13", "14", "19", "22"], "rt": [9271, 175, 53, 500, 486], "actions": ["right", "right", "right", "down", "left"], "actionTimes": [10459, 11157, 11719, 12745, 13767], "queries": {"click": {"state": {"target": ["23", "12", "1"], "time": [3857, 6655, 8218]}, "edge": {"target": [], "time": []}}, "mouseover": {"state": {"target": ["23", "12", "12", "1", "0", "0"], "time": [3617, 4496, 6451, 7764, 9462, 9579]}, "edge": {"target": [], "time": []}}, "mouseout": {"state": {"target": ["0", "23", "12", "12", "1", "0", "0"], "time": [931, 4396, 5984, 7681, 9413, 9513, 19083]}, "edge": {"target": [], "time": []}}}, "displayed_time": "15.20", "trialTime": 19605, "trial_type": "mouselab-mdp", "trial_index": 15, "time_elapsed": 900126, "internal_node_id": "0.0-6.0-1.0-6.0"}}, {"uniqueid": "w39878106:a73447404", "current_trial": 16, "dateTime": 1693565674648, "trialdata": {"revealed_states": [], "clicked_states": [], "num_clicks_accrued": [0, 0, 0, 0, 0, 0, 0, 0, 0, 0, 0, 0, 0], "stateRewards": ["", -2, -1, 3, -3, 71, -58, -21, 7, -10, -75, -37, 2, 4, -1, -12, -79, -29, -48, 3, -41, -10, -30, -1, -2, 1, -15, 13, 66, 22, -1, -42, -86, -55], "withholdReward": false, "trial_id": "mdp_trial_8", "block": "test", "trialIndex": 9, "score": -30, "costs": 0, "simulationMode": [null, null, null, null, null], "rewards": [-2, -1, 3, 7, -37], "path": ["0", "0", "1", "2", "3", "8", "11"], "rt": [2364, 43, 1, 1191, 87], "actions": ["up", "up", "up", "left", "left"], "actionTimes": [2970, 3532, 4056, 5778, 6378], "queries": {"click": {"state": {"target": [], "time": []}, "edge": {"target": [], "time": []}}, "mouseover": {"state": {"target": [], "time": []}, "edge": {"target": [], "time": []}}, "mouseout": {"state": {"target": [], "time": []}, "edge": {"target": [], "time": []}}}, "displayed_time": "14.62", "trialTime": 16435, "trial_type": "mouselab-mdp", "trial_index": 16, "time_elapsed": 916681, "internal_node_id": "0.0-6.0-1.0-7.0"}}, {"uniqueid": "w39878106:a73447404", "current_trial": 17, "dateTime": 1693565693126, "trialdata": {"revealed_states": [], "clicked_states": [], "num_clicks_accrued": [0, 0, 0, 0, 0, 0, 0, 0, 0, 0, 0, 0, 0], "stateRewards": ["", 1, 1, 5, 6, -29, -7, 3, -16, 9, -46, 65, -1, 4, -1, -16, -63, -77, -87, 8, 80, -50, 43, -1, -1, -5, 5, -38, -71, -62, 9, 81, -50, -52], "withholdReward": false, "trial_id": "mdp_trial_9", "block": "test", "trialIndex": 10, "score": -40, "costs": 0, "simulationMode": [null, null, null, null, null], "rewards": [-1, -1, -5, 5, -38], "path": ["0", "0", "23", "24", "25", "26", "27"], "rt": [1769, 667, 158, 3771, 76], "actions": ["left", "left", "left", "up", "up"], "actionTimes": [2991, 4170, 4845, 9127, 9717], "queries": {"click": {"state": {"target": [], "time": []}, "edge": {"target": [], "time": []}}, "mouseover": {"state": {"target": [], "time": []}, "edge": {"target": [], "time": []}}, "mouseout": {"state": {"target": ["0", "0", "0", "26", "26", "28"], "time": [439, 623, 7206, 7759, 8573, 8692]}, "edge": {"target": [], "time": []}}}, "displayed_time": "15.23", "trialTime": 18363, "trial_type": "mouselab-mdp", "trial_index": 17, "time_elapsed": 935158, "internal_node_id": "0.0-6.0-1.0-8.0"}}, {"uniqueid": "w39878106:a73447404", "current_trial": 18, "dateTime": 1693565713107, "trialdata": {"revealed_states": [], "clicked_states": ["21", "6", "33", "11"], "num_clicks_accrued": [0, 0, 0, 0, 0, 0, 0, 0, 0, 0, 0, 0, 0], "stateRewards": ["", 2, 4, 7, -6, -76, -81, 2, 5, -66, -3, 36, -2, -4, 6, -2, -69, 4, -49, -6, 67, 38, -67, 2, 1, 1, 6, -68, -21, 52, -16, -16, 6, -70], "withholdReward": false, "trial_id": "mdp_trial_10", "block": "test", "trialIndex": 11, "score": 48.4, "costs": -5.6, "simulationMode": [null, null, null, null, null], "rewards": [2, 4, 7, 5, 36], "path": ["0", "0", "1", "2", "3", "8", "11"], "rt": [12026, 29, 509, 550, 35], "actions": ["up", "up", "up", "left", "left"], "actionTimes": [13266, 13818, 14848, 15907, 16455], "queries": {"click": {"state": {"target": ["21", "6", "33", "11"], "time": [2232, 4397, 7248, 9730]}, "edge": {"target": [], "time": []}}, "mouseover": {"state": {"target": ["12", "19", "21", "1", "2", "5", "6", "9", "11", "27", "29", "33", "25", "28", "10", "11", "8", "10", "0", "0"], "time": [1653, 1704, 2009, 3402, 3424, 3823, 4207, 5523, 5839, 6256, 6356, 6989, 7955, 7987, 8072, 8402, 10721, 10837, 12207, 12423]}, "edge": {"target": [], "time": []}}, "mouseout": {"state": {"target": ["12", "0", "12", "19", "21", "1", "2", "5", "6", "9", "11", "27", "29", "33", "25", "28", "10", "11", "8", "10", "0", "0"], "time": [757, 1639, 1670, 1739, 3038, 3423, 3438, 3924, 4403, 5556, 6022, 6307, 6756, 7921, 7972, 8005, 8305, 10668, 10804, 12107, 12241, 12593]}, "edge": {"target": [], "time": []}}}, "displayed_time": "16.99", "trialTime": 19860, "trial_type": "mouselab-mdp", "trial_index": 18, "time_elapsed": 955140, "internal_node_id": "0.0-6.0-1.0-9.0"}}, {"uniqueid": "w39878106:a73447404", "current_trial": 19, "dateTime": 1693565732534, "trialdata": {"revealed_states": [], "clicked_states": ["17", "29"], "num_clicks_accrued": [0, 0, 0, 0, 0, 0, 0, 0, 0, 0, 0, 0, 0], "stateRewards": ["", -1, 1, 8, -3, -24, 11, -65, -6, -77, 48, 44, -2, 1, -2, -7, -55, -35, 33, 8, -28, 19, -53, -1, -1, -5, -5, -70, 10, 44, 8, -58, -70, 51], "withholdReward": false, "trial_id": "mdp_trial_11", "block": "test", "trialIndex": 12, "score": 29.2, "costs": -2.8, "simulationMode": [null, null, null, null, null], "rewards": [-1, -1, -5, -5, 44], "path": ["0", "0", "23", "24", "25", "26", "29"], "rt": [6629, 68, 59, 683, 2874], "actions": ["left", "left", "left", "up", "left"], "actionTimes": [9053, 9631, 10204, 11394, 14785], "queries": {"click": {"state": {"target": ["17", "29"], "time": [3588, 5655]}, "edge": {"target": [], "time": []}}, "mouseover": {"state": {"target": ["17", "15", "29", "29", "33", "30", "31", "0"], "time": [3282, 4080, 4159, 4546, 6496, 7880, 7927, 8529]}, "edge": {"target": [], "time": []}}, "mouseout": {"state": {"target": ["0", "17", "15", "29", "29", "33", "30", "31", "0"], "time": [1240, 4079, 4096, 4180, 6029, 7848, 7910, 8231, 14130]}, "edge": {"target": [], "time": []}}}, "displayed_time": "16.43", "trialTime": 19310, "trial_type": "mouselab-mdp", "trial_index": 19, "time_elapsed": 974566, "internal_node_id": "0.0-6.0-1.0-10.0"}}, {"uniqueid": "w39878106:a73447404", "current_trial": 20, "dateTime": 1693565750467, "trialdata": {"revealed_states": [], "clicked_states": ["32", "20"], "num_clicks_accrued": [0, 0, 0, 0, 0, 0, 0, 0, 0, 0, 0, 0, 0], "stateRewards": ["", -1, 2, 6, 11, 21, -21, -21, -6, 48, -71, 88, -1, -3, 3, 7, 64, 2, 9, -4, 37, -67, 72, 2, 2, -8, -8, -10, 71, -40, -3, 73, 80, 47], "withholdReward": false, "trial_id": "mdp_trial_12", "block": "test", "trialIndex": 13, "score": 70.2, "costs": -2.8, "simulationMode": [null, null, null, null, null], "rewards": [2, 2, -8, -3, 80], "path": ["0", "0", "23", "24", "25", "30", "32"], "rt": [6123, 514, 165, 392, 192], "actions": ["left", "left", "left", "down", "down"], "actionTimes": [7782, 8807, 9491, 10399, 11102], "queries": {"click": {"state": {"target": ["32", "20"], "time": [2835, 4497]}, "edge": {"target": [], "time": []}}, "mouseover": {"state": {"target": ["32", "32", "31", "22", "19", "21", "20", "19", "22", "12", "0"], "time": [2313, 2580, 3475, 3608, 3639, 3975, 4239, 4957, 4993, 6912, 7195]}, "edge": {"target": [], "time": []}}, "mouseout": {"state": {"target": ["0", "0", "32", "32", "31", "22", "19", "21", "20", "19", "22", "12"], "time": [1162, 2191, 2324, 3208, 3542, 3625, 3659, 4191, 4942, 4992, 6628, 6924]}, "edge": {"target": [], "time": []}}}, "displayed_time": "15.66", "trialTime": 17822, "trial_type": "mouselab-mdp", "trial_index": 20, "time_elapsed": 992499, "internal_node_id": "0.0-6.0-1.0-11.0"}}, {"uniqueid": "w39878106:a73447404", "current_trial": 21, "dateTime": 1693565767039, "trialdata": {"revealed_states": [], "clicked_states": ["17", "18"], "num_clicks_accrued": [0, 0, 0, 0, 0, 0, 0, 0, 0, 0, 0, 0, 0], "stateRewards": ["", 1, -1, -7, -7, -22, 15, -13, 13, 26, -32, 38, -1, 1, -7, -4, 16, -62, 86, 12, -54, 56, 64, -2, -1, 6, 14, -57, 37, 62, -6, -25, 50, -70], "withholdReward": false, "trial_id": "mdp_trial_13", "block": "test", "trialIndex": 14, "score": 72.2, "costs": -2.8, "simulationMode": [null, null, null, null, null], "rewards": [-1, 1, -7, -4, 86], "path": ["0", "0", "12", "13", "14", "15", "18"], "rt": [7261, 1, 96, 349, 202], "actions": ["right", "right", "right", "up", "left"], "actionTimes": [8167, 8689, 9316, 10184, 10907], "queries": {"click": {"state": {"target": ["17", "18"], "time": [2530, 4879]}, "edge": {"target": [], "time": []}}, "mouseover": {"state": {"target": ["12", "15", "17", "15", "18", "16", "18", "1", "28", "1", "12"], "time": [1689, 1987, 2222, 3103, 3153, 3670, 4525, 5754, 6187, 7105, 7187]}, "edge": {"target": [], "time": []}}, "mouseout": {"state": {"target": ["0", "12", "15", "17", "15", "18", "16", "18", "1", "28", "1"], "time": [1538, 1957, 2002, 3087, 3137, 3603, 4188, 5653, 6053, 7068, 7138]}, "edge": {"target": [], "time": []}}}, "displayed_time": "14.92", "trialTime": 16456, "trial_type": "mouselab-mdp", "trial_index": 21, "time_elapsed": 1009071, "internal_node_id": "0.0-6.0-1.0-12.0"}}, {"uniqueid": "w39878106:a73447404", "current_trial": 22, "dateTime": 1693565787526, "trialdata": {"revealed_states": [], "clicked_states": ["27", "28", "33"], "num_clicks_accrued": [0, 0, 0, 0, 0, 0, 0, 0, 0, 0, 0, 0, 0], "stateRewards": ["", 1, -3, -1, 9, -34, -40, 22, -7, 45, 53, -11, 2, 4, 5, 15, 21, 37, -49, -3, 80, -28, -34, 1, -3, 1, 1, -40, -6, -5, -16, -85, -86, 59], "withholdReward": false, "trial_id": "mdp_trial_14", "block": "test", "trialIndex": 15, "score": -107.2, "costs": -4.199999999999999, "simulationMode": [null, null, null, null, null], "rewards": [1, -3, 1, -16, -86], "path": ["0", "0", "23", "24", "25", "30", "32"], "rt": [9314, 454, 95, 133, 83], "actions": ["left", "left", "left", "down", "down"], "actionTimes": [12042, 13016, 13625, 14279, 14879], "queries": {"click": {"state": {"target": ["27", "28", "33"], "time": [4923, 6904, 9055]}, "edge": {"target": [], "time": []}}, "mouseover": {"state": {"target": ["1", "2", "3", "3", "10", "29", "27", "28", "25", "33", "30", "31", "0"], "time": [3215, 3245, 3278, 3599, 3763, 4198, 4717, 5559, 7495, 7861, 9546, 9594, 11549]}, "edge": {"target": [], "time": []}}, "mouseout": {"state": {"target": ["12", "0", "0", "1", "2", "3", "3", "10", "29", "27", "28", "25", "33", "30", "31"], "time": [1911, 2048, 2398, 3226, 3261, 3294, 3730, 3777, 4564, 5477, 7412, 7545, 9526, 9579, 11098]}, "edge": {"target": [], "time": []}}}, "displayed_time": "16.73", "trialTime": 20368, "trial_type": "mouselab-mdp", "trial_index": 22, "time_elapsed": 1029558, "internal_node_id": "0.0-6.0-1.0-13.0"}}, {"uniqueid": "w39878106:a73447404", "current_trial": 23, "dateTime": 1693565808402, "trialdata": {"revealed_states": [], "clicked_states": ["32", "27", "5", "9", "10"], "num_clicks_accrued": [0, 0, 0, 0, 0, 0, 0, 0, 0, 0, 0, 0, 0], "stateRewards": ["", -1, -3, -7, -7, -76, 30, -49, 11, -70, 56, 2, 1, 4, -3, -14, -59, -83, -25, -9, -21, -67, -73, -2, 4, 4, -9, -11, -32, 60, 9, -87, 22, -64], "withholdReward": false, "trial_id": "mdp_trial_15", "block": "test", "trialIndex": 16, "score": 49, "costs": -7, "simulationMode": [null, null, null, null, null], "rewards": [-1, -3, -7, 11, 56], "path": ["0", "0", "1", "2", "3", "8", "10"], "rt": [12934, 520, 164, 388, 280], "actions": ["up", "up", "up", "left", "down"], "actionTimes": [14533, 15569, 16246, 17155, 17948], "queries": {"click": {"state": {"target": ["32", "27", "5", "9", "10"], "time": [3243, 5444, 7509, 9694, 11677]}, "edge": {"target": [], "time": []}}, "mouseover": {"state": {"target": ["0", "23", "31", "32", "30", "11", "27", "11", "8", "5", "9", "10", "1"], "time": [2123, 2167, 2620, 3071, 3684, 3784, 4135, 6085, 6152, 6681, 8851, 10601, 13789]}, "edge": {"target": [], "time": []}}, "mouseout": {"state": {"target": ["0", "0", "23", "31", "32", "30", "11", "27", "11", "8", "5", "9", "10"], "time": [1335, 2132, 2217, 2755, 3668, 3701, 4068, 6035, 6100, 6434, 8048, 10185, 12450]}, "edge": {"target": [], "time": []}}}, "displayed_time": "18.46", "trialTime": 20749, "trial_type": "mouselab-mdp", "trial_index": 23, "time_elapsed": 1050434, "internal_node_id": "0.0-6.0-1.0-14.0"}}, {"uniqueid": "w39878106:a73447404", "current_trial": 24, "dateTime": 1693565847679, "trialdata": {"revealed_states": [], "clicked_states": ["20", "22", "16", "21", "32", "9", "5", "7", "6", "28", "29", "33"], "num_clicks_accrued": [0, 0, 0, 0, 0, 0, 0, 0, 0, 0, 0, 0, 0], "stateRewards": ["", -1, -1, 7, -15, -43, -21, -84, -9, -45, -66, 2, 1, -2, 2, 8, -27, 44, -52, -5, -84, 11, 53, 1, 4, -4, 16, 83, -82, -15, -16, 68, -43, 81], "withholdReward": false, "trial_id": "mdp_trial_16", "block": "test", "trialIndex": 17, "score": 49.2, "costs": -16.8, "simulationMode": [null, null, null, null, null], "rewards": [1, 4, -4, -16, 81], "path": ["0", "0", "23", "24", "25", "30", "33"], "rt": [30331, 498, 155, 459, 1734], "actions": ["left", "left", "left", "down", "left"], "actionTimes": [31884, 32899, 33571, 34544, 36787], "queries": {"click": {"state": {"target": ["20", "22", "16", "21", "32", "9", "5", "7", "6", "28", "29", "33"], "time": [3278, 4906, 7309, 10078, 12611, 14778, 17157, 19594, 22095, 24628, 26642, 28911]}, "edge": {"target": [], "time": []}}, "mouseover": {"state": {"target": ["12", "14", "20", "22", "13", "18", "16", "13", "22", "21", "32", "24", "28", "8", "9", "3", "5", "4", "7", "6", "4", "6", "4", "2", "28", "26", "29", "29", "33", "30", "31"], "time": [2549, 2854, 3035, 4268, 5532, 5583, 7055, 9418, 9465, 9868, 12189, 13498, 13817, 13933, 14554, 16739, 16852, 19203, 19353, 21620, 21699, 21884, 23983, 24068, 24422, 25233, 25251, 26184, 28655, 29401, 29467]}, "edge": {"target": [], "time": []}}, "mouseout": {"state": {"target": ["1", "0", "12", "14", "20", "22", "13", "18", "16", "13", "22", "21", "32", "24", "28", "8", "9", "3", "5", "4", "7", "6", "4", "6", "4", "2", "28", "26", "29", "29", "33", "30", "31"], "time": [902, 2537, 2566, 2884, 4083, 5516, 5567, 6687, 9370, 9432, 9482, 10735, 13434, 13532, 13850, 14338, 16488, 16801, 19169, 19251, 21538, 21684, 21819, 23970, 24001, 24271, 25217, 25250, 25267, 28201, 29382, 29432, 31123]}, "edge": {"target": [], "time": []}}}, "displayed_time": "37.30", "trialTime": 39160, "trial_type": "mouselab-mdp", "trial_index": 24, "time_elapsed": 1089711, "internal_node_id": "0.0-6.0-1.0-15.0"}}, {"uniqueid": "w39878106:a73447404", "current_trial": 25, "dateTime": 1693565865883, "trialdata": {"revealed_states": [], "clicked_states": ["17", "6", "5"], "num_clicks_accrued": [0, 0, 0, 0, 0, 0, 0, 0, 0, 0, 0, 0, 0], "stateRewards": ["", 2, -4, -8, -15, 71, -43, -41, 7, -17, 20, 67, -1, -1, -4, 6, 37, -24, -47, 9, 34, 57, 45, 1, 2, -4, -5, -23, 88, -5, 13, -40, 43, 44], "withholdReward": false, "trial_id": "mdp_trial_17", "block": "test", "trialIndex": 18, "score": 41.8, "costs": -4.199999999999999, "simulationMode": [null, null, null, null, null], "rewards": [2, -4, -8, -15, 71], "path": ["0", "0", "1", "2", "3", "4", "5"], "rt": [10062, 250, 57, 405, 534], "actions": ["up", "up", "up", "right", "up"], "actionTimes": [12806, 13569, 14140, 15072, 16115], "queries": {"click": {"state": {"target": ["17", "6", "5"], "time": [3843, 6974, 9625]}, "edge": {"target": [], "time": []}}, "mouseover": {"state": {"target": ["17", "15", "16", "6", "5", "4"], "time": [3650, 5983, 6099, 6486, 9168, 11334]}, "edge": {"target": [], "time": []}}, "mouseout": {"state": {"target": ["0", "17", "15", "16", "6", "5", "4", "7"], "time": [2302, 5835, 5997, 6199, 9102, 11301, 11400, 17853]}, "edge": {"target": [], "time": []}}}, "displayed_time": "16.75", "trialTime": 18078, "trial_type": "mouselab-mdp", "trial_index": 25, "time_elapsed": 1107915, "internal_node_id": "0.0-6.0-1.0-16.0"}}, {"uniqueid": "w39878106:a73447404", "current_trial": 26, "dateTime": 1693565883869, "trialdata": {"revealed_states": [], "clicked_states": ["10", "7", "22"], "num_clicks_accrued": [0, 0, 0, 0, 0, 0, 0, 0, 0, 0, 0, 0, 0], "stateRewards": ["", 1, -3, -2, 14, 49, -40, -39, 2, 26, -61, 73, 1, -4, -8, 12, 79, 29, -65, -13, 55, -26, 27, -1, 3, 3, 9, -17, -60, -18, -8, 35, -88, 69], "withholdReward": false, "trial_id": "mdp_trial_18", "block": "test", "trialIndex": 19, "score": -1.1999999999999993, "costs": -4.199999999999999, "simulationMode": [null, null, null, null, null], "rewards": [1, -4, -8, -13, 27], "path": ["0", "0", "12", "13", "14", "19", "22"], "rt": [10071, 352, 147, 431, 162], "actions": ["right", "right", "right", "down", "left"], "actionTimes": [12263, 13121, 13781, 14732, 15399], "queries": {"click": {"state": {"target": ["10", "7", "22"], "time": [3796, 6330, 9763]}, "edge": {"target": [], "time": []}}, "mouseover": {"state": {"target": ["1", "2", "10", "2", "7", "12", "12", "13", "22"], "time": [3073, 3503, 3554, 4536, 6056, 8554, 8871, 9120, 9522]}, "edge": {"target": [], "time": []}}, "mouseout": {"state": {"target": ["1", "1", "2", "10", "2", "7", "12", "12", "13"], "time": [1822, 3153, 3518, 4502, 5991, 8491, 8603, 9071, 9219]}, "edge": {"target": [], "time": []}}}, "displayed_time": "16.20", "trialTime": 17868, "trial_type": "mouselab-mdp", "trial_index": 26, "time_elapsed": 1125901, "internal_node_id": "0.0-6.0-1.0-17.0"}}, {"uniqueid": "w39878106:a73447404", "current_trial": 27, "dateTime": 1693565901197, "trialdata": {"revealed_states": [], "clicked_states": ["21", "32", "27"], "num_clicks_accrued": [0, 0, 0, 0, 0, 0, 0, 0, 0, 0, 0, 0, 0], "stateRewards": ["", 1, -1, 1, 13, 31, -56, 72, 2, 41, 5, 63, -2, -3, -2, 3, -71, -26, 52, 13, -31, 24, -67, 2, -2, 5, 4, 66, 43, 72, 9, 86, -26, 44], "withholdReward": false, "trial_id": "mdp_trial_19", "block": "test", "trialIndex": 20, "score": 70.8, "costs": -4.199999999999999, "simulationMode": [null, null, null, null, null], "rewards": [2, -2, 5, 4, 66], "path": ["0", "0", "23", "24", "25", "26", "27"], "rt": [9344, 469, 125, 448, 62], "actions": ["left", "left", "left", "up", "up"], "actionTimes": [11403, 12402, 13038, 13996, 14576], "queries": {"click": {"state": {"target": ["21", "32", "27"], "time": [3693, 6175, 8876]}, "edge": {"target": [], "time": []}}, "mouseover": {"state": {"target": ["12", "22", "21", "32", "30", "27", "1"], "time": [3069, 3114, 3501, 5767, 8184, 8620, 10920]}, "edge": {"target": [], "time": []}}, "mouseout": {"state": {"target": ["22", "12", "12", "22", "21", "32", "30", "27"], "time": [1582, 1653, 3100, 3149, 5100, 8153, 8198, 10803]}, "edge": {"target": [], "time": []}}}, "displayed_time": "16.07", "trialTime": 17209, "trial_type": "mouselab-mdp", "trial_index": 27, "time_elapsed": 1143229, "internal_node_id": "0.0-6.0-1.0-18.0"}}, {"uniqueid": "w39878106:a73447404", "current_trial": 28, "dateTime": 1693565918614, "trialdata": {"revealed_states": [], "clicked_states": ["11", "5"], "num_clicks_accrued": [0, 0, 0, 0, 0, 0, 0, 0, 0, 0, 0, 0, 0], "stateRewards": ["", 1, -1, 8, 4, 76, -33, -17, -3, -1, -54, -74, -2, 2, -5, 13, -51, 63, 83, 1, 84, 29, -36, 2, -1, 7, -12, -10, -44, -43, -14, 8, -69, 19], "withholdReward": false, "trial_id": "mdp_trial_20", "block": "test", "trialIndex": 21, "score": 85.2, "costs": -2.8, "simulationMode": [null, null, null, null, null], "rewards": [1, -1, 8, 4, 76], "path": ["0", "0", "1", "2", "3", "4", "5"], "rt": [8016, 64, 12, 207, 208], "actions": ["up", "up", "up", "right", "up"], "actionTimes": [10175, 10746, 11277, 12006, 12725], "queries": {"click": {"state": {"target": ["11", "5"], "time": [4892, 7123]}, "edge": {"target": [], "time": []}}, "mouseover": {"state": {"target": ["1", "4", "5", "27", "11", "5", "5", "6"], "time": [2918, 3318, 3366, 4284, 4669, 5678, 5996, 8982]}, "edge": {"target": [], "time": []}}, "mouseout": {"state": {"target": ["1", "1", "4", "5", "27", "11", "5", "5", "6"], "time": [1748, 2930, 3329, 4197, 4483, 5528, 5711, 8948, 9029]}, "edge": {"target": [], "time": []}}}, "displayed_time": "16.17", "trialTime": 17291, "trial_type": "mouselab-mdp", "trial_index": 28, "time_elapsed": 1160646, "internal_node_id": "0.0-6.0-1.0-19.0"}}, {"uniqueid": "w39878106:a73447404", "current_trial": 29, "dateTime": 1693565946649, "trialdata": {"revealed_states": [], "clicked_states": ["18", "20", "28", "29", "33", "11", "10"], "num_clicks_accrued": [0, 0, 0, 0, 0, 0, 0, 0, 0, 0, 0, 0, 0], "stateRewards": ["", -1, -4, 8, 8, -68, 47, 24, -7, -61, 49, -69, -1, -1, 8, -7, 42, 1, -45, -11, 10, -63, -6, 1, 4, 6, -16, 79, -37, -58, -12, 81, 18, -53], "withholdReward": false, "trial_id": "mdp_trial_21", "block": "test", "trialIndex": 22, "score": 35.2, "costs": -9.8, "simulationMode": [null, null, null, null, null], "rewards": [-1, -4, 8, -7, 49], "path": ["0", "0", "1", "2", "3", "8", "10"], "rt": [20581, 195, 319, 378, 235], "actions": ["up", "up", "up", "left", "down"], "actionTimes": [23050, 23744, 24585, 25476, 26218], "queries": {"click": {"state": {"target": ["18", "20", "28", "29", "33", "11", "10"], "time": [3875, 7041, 9558, 12153, 14920, 17375, 20308]}, "edge": {"target": [], "time": []}}, "mouseover": {"state": {"target": ["18", "15", "17", "17", "15", "18", "13", "22", "19", "20", "20", "13", "26", "26", "28", "26", "29", "29", "33", "33", "26", "11", "11", "8", "4", "6", "4", "2", "10", "2"], "time": [3086, 3114, 3164, 3458, 3531, 3564, 5997, 6067, 6498, 6564, 6849, 8666, 8732, 9069, 9350, 10082, 10164, 11816, 14319, 14603, 16264, 16715, 17083, 19299, 19348, 19397, 19647, 19899, 20099, 22317]}, "edge": {"target": [], "time": []}}, "mouseout": {"state": {"target": ["7", "1", "0", "18", "15", "17", "17", "15", "18", "13", "22", "19", "20", "20", "13", "26", "26", "28", "26", "29", "29", "33", "33", "26", "11", "11", "8", "4", "6", "4", "2", "10", "2"], "time": [1633, 1765, 2236, 3097, 3149, 3250, 3516, 3548, 5966, 6031, 6433, 6549, 6614, 8631, 8680, 8763, 9201, 10062, 10112, 11785, 14253, 14385, 16231, 16279, 16731, 19285, 19314, 19380, 19602, 19664, 19933, 22282, 22385]}, "edge": {"target": [], "time": []}}}, "displayed_time": "26.73", "trialTime": 27910, "trial_type": "mouselab-mdp", "trial_index": 29, "time_elapsed": 1188681, "internal_node_id": "0.0-6.0-1.0-20.0"}}, {"uniqueid": "w39878106:a73447404", "current_trial": 30, "dateTime": 1693565963089, "trialdata": {"revealed_states": [], "clicked_states": ["9"], "num_clicks_accrued": [0, 0, 0, 0, 0, 0, 0, 0, 0, 0, 0, 0, 0], "stateRewards": ["", -2, 3, -1, -9, 44, 48, -37, -3, 71, -39, 87, -1, 3, -4, 4, -21, 59, -15, -8, -1, 28, -38, 2, 4, 4, 8, -85, -72, -63, 14, 58, 63, -46], "withholdReward": false, "trial_id": "mdp_trial_22", "block": "test", "trialIndex": 23, "score": 66.6, "costs": -1.4, "simulationMode": [null, null, null, null, null], "rewards": [-2, 3, -1, -3, 71], "path": ["0", "0", "1", "2", "3", "8", "9"], "rt": [5628, 344, 50, 303, 767], "actions": ["up", "up", "up", "left", "up"], "actionTimes": [6774, 7636, 8196, 9030, 10309], "queries": {"click": {"state": {"target": ["9"], "time": [3771]}, "edge": {"target": [], "time": []}}, "mouseover": {"state": {"target": ["7", "9", "3", "2", "1", "18", "15", "17", "7"], "time": [2945, 3294, 4310, 4341, 4376, 5615, 5647, 5709, 5929]}, "edge": {"target": [], "time": []}}, "mouseout": {"state": {"target": ["2", "1", "7", "9", "3", "2", "1", "18", "15", "17", "7"], "time": [627, 743, 2959, 3778, 4327, 4361, 4393, 5645, 5679, 5830, 5962]}, "edge": {"target": [], "time": []}}}, "displayed_time": "15.15", "trialTime": 16312, "trial_type": "mouselab-mdp", "trial_index": 30, "time_elapsed": 1205121, "internal_node_id": "0.0-6.0-1.0-21.0"}}, {"uniqueid": "w39878106:a73447404", "current_trial": 31, "dateTime": 1693565981570, "trialdata": {"revealed_states": [], "clicked_states": ["18", "16", "17"], "num_clicks_accrued": [0, 0, 0, 0, 0, 0, 0, 0, 0, 0, 0, 0, 0], "stateRewards": ["", 1, 1, 4, 11, 83, -66, 18, -16, -23, 5, 25, 1, -3, 1, -12, 18, 24, -86, -11, -64, 36, 40, 2, 1, -6, 13, 55, 29, 72, -2, 81, -72, -41], "withholdReward": false, "trial_id": "mdp_trial_23", "block": "test", "trialIndex": 24, "score": 6.800000000000001, "costs": -4.199999999999999, "simulationMode": [null, null, null, null, null], "rewards": [1, -3, 1, -12, 24], "path": ["0", "0", "12", "13", "14", "15", "17"], "rt": [9120, 471, 134, 500, 542], "actions": ["right", "right", "right", "up", "right"], "actionTimes": [12321, 13302, 13947, 14961, 16022], "queries": {"click": {"state": {"target": ["18", "16", "17"], "time": [4190, 6391, 9439]}, "edge": {"target": [], "time": []}}, "mouseover": {"state": {"target": ["18", "16", "17", "17"], "time": [3799, 5230, 8730, 9300]}, "edge": {"target": [], "time": []}}, "mouseout": {"state": {"target": ["18", "18", "0", "18", "16", "17"], "time": [1284, 2613, 3700, 5064, 8650, 8816]}, "edge": {"target": [], "time": []}}}, "displayed_time": "17.21", "trialTime": 18347, "trial_type": "mouselab-mdp", "trial_index": 31, "time_elapsed": 1223602, "internal_node_id": "0.0-6.0-1.0-22.0"}}, {"uniqueid": "w39878106:a73447404", "current_trial": 32, "dateTime": 1693565999590, "trialdata": {"revealed_states": [], "clicked_states": ["28"], "num_clicks_accrued": [0, 0, 0, 0, 0, 0, 0, 0, 0, 0, 0, 0, 0], "stateRewards": ["", -2, 1, -8, 12, -65, -79, 16, 7, -80, -17, -45, -2, 2, -5, -2, -85, 23, -4, -7, 48, 27, -76, 2, 3, 5, 2, 43, 71, -13, 7, -49, 59, -31], "withholdReward": false, "trial_id": "mdp_trial_24", "block": "test", "trialIndex": 25, "score": 81.6, "costs": -1.4, "simulationMode": [null, null, null, null, null], "rewards": [2, 3, 5, 2, 71], "path": ["0", "0", "23", "24", "25", "26", "28"], "rt": [4430, 259, 145, 343, 630], "actions": ["left", "left", "left", "up", "right"], "actionTimes": [6383, 7160, 7814, 8674, 9812], "queries": {"click": {"state": {"target": ["28"], "time": [4094]}, "edge": {"target": [], "time": []}}, "mouseover": {"state": {"target": ["12", "22", "28"], "time": [2685, 2937, 3486]}, "edge": {"target": [], "time": []}}, "mouseout": {"state": {"target": ["17", "12", "0", "0", "12", "22"], "time": [1202, 1319, 1437, 2651, 2750, 2969]}, "edge": {"target": [], "time": []}}}, "displayed_time": "15.96", "trialTime": 17886, "trial_type": "mouselab-mdp", "trial_index": 32, "time_elapsed": 1241622, "internal_node_id": "0.0-6.0-1.0-23.0"}}, {"uniqueid": "w39878106:a73447404", "current_trial": 33, "dateTime": 1693566018042, "trialdata": {"revealed_states": [], "clicked_states": ["5"], "num_clicks_accrued": [0, 0, 0, 0, 0, 0, 0, 0, 0, 0, 0, 0, 0], "stateRewards": ["", 1, 2, 7, 13, 88, -71, 27, 3, 60, 5, -53, -2, 2, -6, -1, -30, 79, 47, -4, -14, 46, 68, 1, 1, 8, 10, -14, 86, 48, -11, -67, -44, 5], "withholdReward": false, "trial_id": "mdp_trial_25", "block": "test", "trialIndex": 26, "score": 109.6, "costs": -1.4, "simulationMode": [null, null, null, null, null], "rewards": [1, 2, 7, 13, 88], "path": ["0", "0", "1", "2", "3", "4", "5"], "rt": [5749, 354, 179, 203, 343], "actions": ["up", "up", "up", "right", "up"], "actionTimes": [8675, 9545, 10237, 10944, 11817], "queries": {"click": {"state": {"target": ["5"], "time": [5435]}, "edge": {"target": [], "time": []}}, "mouseover": {"state": {"target": ["1", "3", "5", "3"], "time": [4398, 4795, 5095, 7995]}, "edge": {"target": [], "time": []}}, "mouseout": {"state": {"target": ["28", "1", "3", "5", "3"], "time": [2262, 4427, 4861, 7931, 8063]}, "edge": {"target": [], "time": []}}}, "displayed_time": "16.94", "trialTime": 18314, "trial_type": "mouselab-mdp", "trial_index": 33, "time_elapsed": 1260075, "internal_node_id": "0.0-6.0-1.0-24.0"}}, {"uniqueid": "w39878106:a73447404", "current_trial": 34, "dateTime": 1693566035293, "trialdata": {"revealed_states": [], "clicked_states": ["33"], "num_clicks_accrued": [0, 0, 0, 0, 0, 0, 0, 0, 0, 0, 0, 0, 0], "stateRewards": ["", -1, 2, -6, 6, -82, -19, -39, -16, -83, 11, -33, -2, -2, 4, -6, -82, -1, -19, -6, -10, -67, -41, -2, 1, -7, 16, -23, -78, -52, 14, 31, -71, 74], "withholdReward": false, "trial_id": "mdp_trial_26", "block": "test", "trialIndex": 27, "score": 78.6, "costs": -1.4, "simulationMode": [null, null, null, null, null], "rewards": [-2, 1, -7, 14, 74], "path": ["0", "0", "23", "24", "25", "30", "33"], "rt": [3594, 194, 198, 176, 202], "actions": ["left", "left", "left", "down", "left"], "actionTimes": [5255, 5968, 6671, 7365, 8079], "queries": {"click": {"state": {"target": ["33"], "time": [2785]}, "edge": {"target": [], "time": []}}, "mouseover": {"state": {"target": ["23", "30", "33", "32"], "time": [2243, 2343, 2478, 3372]}, "edge": {"target": [], "time": []}}, "mouseout": {"state": {"target": ["10", "23", "0", "23", "30", "33"], "time": [828, 1261, 2211, 2255, 2393, 3208]}, "edge": {"target": [], "time": []}}}, "displayed_time": "15.68", "trialTime": 17114, "trial_type": "mouselab-mdp", "trial_index": 34, "time_elapsed": 1277325, "internal_node_id": "0.0-6.0-1.0-25.0"}}, {"uniqueid": "w39878106:a73447404", "current_trial": 35, "dateTime": 1693566056876, "trialdata": {"revealed_states": [], "clicked_states": ["7", "10", "6"], "num_clicks_accrued": [0, 0, 0, 0, 0, 0, 0, 0, 0, 0, 0, 0, 0], "stateRewards": ["", -2, 1, -5, 2, -68, 80, 33, 10, 67, -59, 20, -1, -3, 3, 14, 74, -2, 24, -16, 63, 80, 46, -1, 4, 6, 12, 83, -38, -43, -4, 43, 14, -79], "withholdReward": false, "trial_id": "mdp_trial_27", "block": "test", "trialIndex": 28, "score": 71.8, "costs": -4.199999999999999, "simulationMode": [null, null, null, null, null], "rewards": [-2, 1, -5, 2, 80], "path": ["0", "0", "1", "2", "3", "4", "6"], "rt": [10585, 16, 17, 439, 677], "actions": ["up", "up", "up", "right", "right"], "actionTimes": [15115, 15641, 16191, 17146, 18336], "queries": {"click": {"state": {"target": ["7", "10", "6"], "time": [6052, 8270, 12119]}, "edge": {"target": [], "time": []}}, "mouseover": {"state": {"target": ["18", "7", "2", "10", "3", "4", "5", "6", "6"], "time": [5078, 5743, 6757, 6807, 10793, 10860, 11080, 11712, 11896]}, "edge": {"target": [], "time": []}}, "mouseout": {"state": {"target": ["32", "0", "18", "7", "2", "10", "3", "4", "5", "6"], "time": [809, 4324, 5160, 6738, 6772, 10376, 10826, 10961, 11212, 11774]}, "edge": {"target": [], "time": []}}}, "displayed_time": "18.84", "trialTime": 21447, "trial_type": "mouselab-mdp", "trial_index": 35, "time_elapsed": 1298909, "internal_node_id": "0.0-6.0-1.0-26.0"}}, {"uniqueid": "w39878106:a73447404", "current_trial": 36, "dateTime": 1693566074889, "trialdata": {"revealed_states": [], "clicked_states": ["20"], "num_clicks_accrued": [0, 0, 0, 0, 0, 0, 0, 0, 0, 0, 0, 0, 0], "stateRewards": ["", -2, -3, 7, -13, 60, 9, 37, -6, 37, 20, 1, 2, -2, -8, 6, -80, -31, -10, -7, 70, -65, -44, -1, 1, 7, 6, -11, 73, -85, 16, -21, 47, 34], "withholdReward": false, "trial_id": "mdp_trial_28", "block": "test", "trialIndex": 29, "score": 53.6, "costs": -1.4, "simulationMode": [null, null, null, null, null], "rewards": [2, -2, -8, -7, 70], "path": ["0", "0", "12", "13", "14", "19", "20"], "rt": [4105, 311, 139, 370, 279], "actions": ["right", "right", "right", "down", "right"], "actionTimes": [7077, 7906, 8552, 9435, 10226], "queries": {"click": {"state": {"target": ["20"], "time": [4658]}, "edge": {"target": [], "time": []}}, "mouseover": {"state": {"target": ["12", "13", "14", "20"], "time": [3983, 3998, 4033, 4398]}, "edge": {"target": [], "time": []}}, "mouseout": {"state": {"target": ["6", "7", "1", "12", "13", "14", "20"], "time": [2367, 2432, 2547, 3997, 4032, 4065, 6295]}, "edge": {"target": [], "time": []}}}, "displayed_time": "16.98", "trialTime": 17882, "trial_type": "mouselab-mdp", "trial_index": 36, "time_elapsed": 1316921, "internal_node_id": "0.0-6.0-1.0-27.0"}}, {"uniqueid": "w39878106:a73447404", "current_trial": 37, "dateTime": 1693566092925, "trialdata": {"revealed_states": [], "clicked_states": ["33", "28", "29"], "num_clicks_accrued": [0, 0, 0, 0, 0, 0, 0, 0, 0, 0, 0, 0, 0], "stateRewards": ["", 2, 3, -3, 12, -43, 81, -82, -15, 58, -7, -75, -1, -1, 3, -5, 50, -25, -8, 4, 66, 65, -66, 2, -4, 2, -1, -10, 10, 37, 11, 88, -37, 8], "withholdReward": false, "trial_id": "mdp_trial_29", "block": "test", "trialIndex": 30, "score": 31.8, "costs": -4.199999999999999, "simulationMode": [null, null, null, null, null], "rewards": [2, -4, 2, -1, 37], "path": ["0", "0", "23", "24", "25", "26", "29"], "rt": [10213, 152, 360, 515, 1511], "actions": ["left", "left", "left", "up", "left"], "actionTimes": [11760, 12411, 13283, 14307, 16333], "queries": {"click": {"state": {"target": ["33", "28", "29"], "time": [2850, 6033, 9149]}, "edge": {"target": [], "time": []}}, "mouseover": {"state": {"target": ["23", "30", "33", "26", "28", "26", "29", "25"], "time": [2077, 2357, 2506, 5557, 5740, 8191, 8254, 10840]}, "edge": {"target": [], "time": []}}, "mouseout": {"state": {"target": ["12", "0", "23", "30", "33", "26", "28", "26", "29"], "time": [675, 707, 2088, 2426, 5191, 5692, 8157, 8221, 10723]}, "edge": {"target": [], "time": []}}}, "displayed_time": "16.84", "trialTime": 17893, "trial_type": "mouselab-mdp", "trial_index": 37, "time_elapsed": 1334957, "internal_node_id": "0.0-6.0-1.0-28.0"}}, {"uniqueid": "w39878106:a73447404", "current_trial": 38, "dateTime": 1693566110378, "trialdata": {"revealed_states": [], "clicked_states": ["10", "7"], "num_clicks_accrued": [0, 0, 0, 0, 0, 0, 0, 0, 0, 0, 0, 0, 0], "stateRewards": ["", -2, 2, 3, -7, -31, -33, 29, -8, -57, 50, -83, -1, -1, 5, 13, -23, -62, 25, 5, -66, -85, 14, 1, -2, -1, 16, 71, 33, -19, -14, 5, -43, 79], "withholdReward": false, "trial_id": "mdp_trial_30", "block": "test", "trialIndex": 31, "score": 42.2, "costs": -2.8, "simulationMode": [null, null, null, null, null], "rewards": [-2, 2, 3, -8, 50], "path": ["0", "0", "1", "2", "3", "8", "10"], "rt": [7160, 401, 69, 363, 78], "actions": ["up", "up", "up", "left", "down"], "actionTimes": [9109, 10015, 10599, 11478, 12076], "queries": {"click": {"state": {"target": ["10", "7"], "time": [3192, 7259]}, "edge": {"target": [], "time": []}}, "mouseover": {"state": {"target": ["1", "10", "3", "7"], "time": [2584, 2935, 6751, 6916]}, "edge": {"target": [], "time": []}}, "mouseout": {"state": {"target": ["25", "24", "23", "0", "0", "1", "10", "3"], "time": [1251, 1298, 1332, 1366, 2535, 2614, 6502, 6819]}, "edge": {"target": [], "time": []}}}, "displayed_time": "15.96", "trialTime": 17306, "trial_type": "mouselab-mdp", "trial_index": 38, "time_elapsed": 1352411, "internal_node_id": "0.0-6.0-1.0-29.0"}}, {"uniqueid": "w39878106:a73447404", "current_trial": 39, "dateTime": 1693566127232, "trialdata": {"revealed_states": [], "clicked_states": ["11", "17"], "num_clicks_accrued": [0, 0, 0, 0, 0, 0, 0, 0, 0, 0, 0, 0, 0], "stateRewards": ["", 2, -3, 5, -14, -63, -9, -24, -11, -54, -43, 68, 2, -2, -4, 7, -64, 30, 47, 12, -74, 11, 86, 1, -3, 3, 10, -71, -42, -52, -1, -29, -16, 69], "withholdReward": false, "trial_id": "mdp_trial_31", "block": "test", "trialIndex": 32, "score": 58.2, "costs": -2.8, "simulationMode": [null, null, null, null, null], "rewards": [2, -3, 5, -11, 68], "path": ["0", "0", "1", "2", "3", "8", "11"], "rt": [7068, 79, 359, 400, 457], "actions": ["up", "up", "up", "left", "left"], "actionTimes": [8762, 9356, 10236, 11146, 12120], "queries": {"click": {"state": {"target": ["11", "17"], "time": [3828, 6663]}, "edge": {"target": [], "time": []}}, "mouseover": {"state": {"target": ["7", "6", "4", "3", "8", "11", "5", "6", "17", "16", "17", "7", "2"], "time": [2572, 2883, 3066, 3135, 3450, 3488, 4385, 4849, 5303, 6238, 6473, 7438, 7507]}, "edge": {"target": [], "time": []}}, "mouseout": {"state": {"target": ["7", "1", "7", "6", "4", "3", "8", "11", "5", "6", "17", "16", "17", "7"], "time": [1105, 1289, 2869, 3054, 3100, 3437, 3486, 4299, 4402, 4868, 6172, 6321, 6672, 7470]}, "edge": {"target": [], "time": []}}}, "displayed_time": "15.71", "trialTime": 16713, "trial_type": "mouselab-mdp", "trial_index": 39, "time_elapsed": 1369264, "internal_node_id": "0.0-6.0-1.0-30.0"}}, {"uniqueid": "w39878106:a73447404", "current_trial": 40, "dateTime": 1693566147092, "trialdata": {"revealed_states": [], "clicked_states": ["16", "20", "31", "33"], "num_clicks_accrued": [0, 0, 0, 0, 0, 0, 0, 0, 0, 0, 0, 0, 0], "stateRewards": ["", -2, -3, 8, 14, -73, 73, 84, -12, -2, -50, -17, 2, 1, -2, -9, -44, -27, -33, 16, -63, -47, -66, -2, 1, 4, -5, -33, -11, 50, 9, 38, -79, 31], "withholdReward": false, "trial_id": "mdp_trial_32", "block": "test", "trialIndex": 33, "score": 44.4, "costs": -5.6, "simulationMode": [null, null, null, null, null], "rewards": [-2, 1, 4, 9, 38], "path": ["0", "0", "23", "24", "25", "30", "31"], "rt": [12694, 17, 305, 398, 290], "actions": ["left", "left", "left", "down", "right"], "actionTimes": [14156, 14691, 15511, 16439, 17247], "queries": {"click": {"state": {"target": ["16", "20", "31", "33"], "time": [2561, 4828, 8143, 11266]}, "edge": {"target": [], "time": []}}, "mouseover": {"state": {"target": ["18", "16", "17", "20", "22", "30", "31", "30", "33", "33", "30"], "time": [2071, 2137, 3919, 4404, 7208, 7688, 7938, 10436, 10470, 10809, 12674]}, "edge": {"target": [], "time": []}}, "mouseout": {"state": {"target": ["2", "1", "0", "0", "18", "16", "17", "20", "22", "30", "31", "30", "33", "33"], "time": [821, 869, 954, 1989, 2083, 3235, 3969, 6890, 7219, 7907, 10424, 10455, 10519, 12641]}, "edge": {"target": [], "time": []}}}, "displayed_time": "17.76", "trialTime": 19722, "trial_type": "mouselab-mdp", "trial_index": 40, "time_elapsed": 1389124, "internal_node_id": "0.0-6.0-1.0-31.0"}}, {"uniqueid": "w39878106:a73447404", "current_trial": 41, "dateTime": 1693566164008, "trialdata": {"revealed_states": [], "clicked_states": ["32", "5", "9"], "num_clicks_accrued": [0, 0, 0, 0, 0, 0, 0, 0, 0, 0, 0, 0, 0], "stateRewards": ["", 1, 4, 5, -5, 58, -80, 75, 6, 25, -39, 46, 2, -2, 4, 2, 59, 31, -22, -12, -61, 15, 72, 1, -2, -7, 8, 77, 76, -23, -7, 71, -15, -3], "withholdReward": false, "trial_id": "mdp_trial_33", "block": "test", "trialIndex": 34, "score": 58.8, "costs": -4.199999999999999, "simulationMode": [null, null, null, null, null], "rewards": [1, 4, 5, -5, 58], "path": ["0", "0", "1", "2", "3", "4", "5"], "rt": [8718, 173, 341, 503, 164], "actions": ["up", "up", "up", "right", "up"], "actionTimes": [10703, 11374, 12224, 13237, 13913], "queries": {"click": {"state": {"target": ["32", "5", "9"], "time": [3626, 5573, 8190]}, "edge": {"target": [], "time": []}}, "mouseover": {"state": {"target": ["23", "31", "32", "24", "3", "5", "9", "4"], "time": [3049, 3129, 3366, 4064, 4111, 4531, 7969, 8961]}, "edge": {"target": [], "time": []}}, "mouseout": {"state": {"target": ["30", "31", "0", "23", "31", "32", "24", "3", "5", "9"], "time": [898, 998, 1698, 3081, 3145, 4030, 4081, 4147, 7602, 8880]}, "edge": {"target": [], "time": []}}}, "displayed_time": "16.00", "trialTime": 16777, "trial_type": "mouselab-mdp", "trial_index": 41, "time_elapsed": 1406040, "internal_node_id": "0.0-6.0-1.0-32.0"}}, {"uniqueid": "w39878106:a73447404", "current_trial": 42, "dateTime": 1693566181465, "trialdata": {"revealed_states": [], "clicked_states": ["17", "29", "28", "18"], "num_clicks_accrued": [0, 0, 0, 0, 0, 0, 0, 0, 0, 0, 0, 0, 0], "stateRewards": ["", -2, -3, 1, -14, 48, -49, 67, -1, -35, -48, 3, -2, 1, -4, -5, 86, -84, 39, 1, 48, 41, -42, -1, -4, 2, -7, 18, -86, 17, 7, -9, 57, -69], "withholdReward": false, "trial_id": "mdp_trial_34", "block": "test", "trialIndex": 35, "score": 23.4, "costs": -5.6, "simulationMode": [null, null, null, null, null], "rewards": [-2, 1, -4, -5, 39], "path": ["0", "0", "12", "13", "14", "15", "18"], "rt": [10597, 374, 168, 253, 89], "actions": ["right", "right", "right", "up", "left"], "actionTimes": [12589, 13479, 14159, 14896, 15497], "queries": {"click": {"state": {"target": ["17", "29", "28", "18"], "time": [3733, 5632, 7716, 9633]}, "edge": {"target": [], "time": []}}, "mouseover": {"state": {"target": ["13", "22", "14", "17", "17", "1", "28", "26", "29", "26", "28", "1", "18", "12"], "time": [2661, 2724, 2989, 3038, 3476, 4087, 4105, 4121, 4154, 6074, 6437, 8156, 8239, 11775]}, "edge": {"target": [], "time": []}}, "mouseout": {"state": {"target": ["4", "2", "1", "0", "13", "22", "14", "17", "17", "1", "28", "26", "29", "26", "28", "1", "18"], "time": [1192, 1326, 1442, 1707, 2690, 2978, 3024, 3054, 4056, 4105, 4120, 4137, 6057, 6124, 8139, 8170, 10540]}, "edge": {"target": [], "time": []}}}, "displayed_time": "16.01", "trialTime": 17324, "trial_type": "mouselab-mdp", "trial_index": 42, "time_elapsed": 1423497, "internal_node_id": "0.0-6.0-1.0-33.0"}}, {"uniqueid": "w39878106:a73447404", "current_trial": 43, "dateTime": 1693566197754, "trialdata": {"revealed_states": [], "clicked_states": ["17", "20"], "num_clicks_accrued": [0, 0, 0, 0, 0, 0, 0, 0, 0, 0, 0, 0, 0], "stateRewards": ["", -2, 1, -3, -16, -39, -52, 30, -7, -41, -59, 11, 2, 1, 8, 2, -11, -26, -42, -13, 87, -59, -48, -1, -1, -1, 16, -79, 31, 50, -1, -84, 34, -82], "withholdReward": false, "trial_id": "mdp_trial_35", "block": "test", "trialIndex": 36, "score": 82.2, "costs": -2.8, "simulationMode": [null, null, null, null, null], "rewards": [2, 1, 8, -13, 87], "path": ["0", "0", "12", "13", "14", "19", "20"], "rt": [6711, 11, 507, 112, 66], "actions": ["right", "right", "right", "down", "right"], "actionTimes": [8003, 8523, 9554, 10174, 10760], "queries": {"click": {"state": {"target": ["17", "20"], "time": [3317, 5271]}, "edge": {"target": [], "time": []}}, "mouseover": {"state": {"target": ["12", "19", "21", "17", "14", "19", "22", "19", "20", "21"], "time": [1781, 1827, 2315, 3080, 3809, 3875, 4443, 4660, 4794, 5794]}, "edge": {"target": [], "time": []}}, "mouseout": {"state": {"target": ["12", "0", "0", "12", "19", "21", "17", "14", "19", "22", "19", "20", "21"], "time": [668, 746, 1779, 1793, 1894, 2448, 3693, 3841, 4293, 4627, 4710, 5711, 7365]}, "edge": {"target": [], "time": []}}}, "displayed_time": "15.30", "trialTime": 16151, "trial_type": "mouselab-mdp", "trial_index": 43, "time_elapsed": 1439786, "internal_node_id": "0.0-6.0-1.0-34.0"}}, {"uniqueid": "w39878106:a73447404", "current_trial": 44, "dateTime": 1693566215142, "trialdata": {"revealed_states": [], "clicked_states": ["21", "5", "6", "11"], "num_clicks_accrued": [0, 0, 0, 0, 0, 0, 0, 0, 0, 0, 0, 0, 0], "stateRewards": ["", -1, -3, 4, -10, -5, 79, -87, -2, 53, 29, -20, -2, -1, -5, 10, 27, 86, 46, -16, -29, 40, 3, 2, 4, -1, -6, 37, 79, -29, 7, 86, -62, 29], "withholdReward": false, "trial_id": "mdp_trial_36", "block": "test", "trialIndex": 37, "score": 63.4, "costs": -5.6, "simulationMode": [null, null, null, null, null], "rewards": [-1, -3, 4, -10, 79], "path": ["0", "0", "1", "2", "3", "4", "6"], "rt": [9733, 320, 471, 59, 34], "actions": ["up", "up", "up", "right", "right"], "actionTimes": [11354, 12173, 13154, 13727, 14284], "queries": {"click": {"state": {"target": ["21", "5", "6", "11"], "time": [3044, 5093, 7242, 9495]}, "edge": {"target": [], "time": []}}, "mouseover": {"state": {"target": ["12", "13", "14", "19", "21", "19", "14", "16", "5", "6", "9", "11", "8", "3", "2"], "time": [2219, 2249, 2301, 2652, 2802, 3615, 3633, 3984, 4399, 5567, 7683, 8050, 9901, 9931, 10464]}, "edge": {"target": [], "time": []}}, "mouseout": {"state": {"target": ["0", "12", "13", "14", "19", "21", "19", "14", "16", "5", "6", "9", "11", "8", "3"], "time": [1253, 2233, 2267, 2618, 2733, 3601, 3632, 3649, 3999, 5484, 7617, 7701, 9883, 9918, 9951]}, "edge": {"target": [], "time": []}}}, "displayed_time": "15.63", "trialTime": 17244, "trial_type": "mouselab-mdp", "trial_index": 44, "time_elapsed": 1457174, "internal_node_id": "0.0-6.0-1.0-35.0"}}, {"uniqueid": "w39878106:a73447404", "current_trial": 45, "dateTime": 1693566235552, "trialdata": {"revealed_states": [], "clicked_states": ["29", "31", "5", "9", "10"], "num_clicks_accrued": [0, 0, 0, 0, 0, 0, 0, 0, 0, 0, 0, 0, 0], "stateRewards": ["", 2, 4, -6, -13, -75, -81, 30, 7, 5, 59, -65, -1, -1, 7, 14, -38, 36, -41, 1, -54, -5, 64, 2, -1, 5, 6, -19, 79, 11, 16, -33, -50, 58], "withholdReward": false, "trial_id": "mdp_trial_37", "block": "test", "trialIndex": 38, "score": 59, "costs": -7, "simulationMode": [null, null, null, null, null], "rewards": [2, 4, -6, 7, 59], "path": ["0", "0", "1", "2", "3", "8", "10"], "rt": [14014, 124, 318, 300, 75], "actions": ["up", "up", "up", "left", "down"], "actionTimes": [15595, 16248, 17076, 17893, 18483], "queries": {"click": {"state": {"target": ["29", "31", "5", "9", "10"], "time": [3233, 5267, 7999, 10533, 12834]}, "edge": {"target": [], "time": []}}, "mouseover": {"state": {"target": ["1", "10", "26", "29", "25", "31", "23", "1", "4", "5", "9", "8", "10", "2", "7", "7"], "time": [2443, 2491, 2841, 2924, 3690, 4190, 7107, 7140, 7476, 7774, 10343, 12258, 12555, 13557, 13608, 14875]}, "edge": {"target": [], "time": []}}, "mouseout": {"state": {"target": ["2", "1", "1", "10", "26", "29", "25", "31", "23", "1", "4", "5", "9", "8", "10", "2", "7", "7"], "time": [976, 1109, 2455, 2775, 2855, 3621, 4091, 7059, 7122, 7156, 7507, 9974, 12207, 12324, 13556, 13587, 13621, 14976]}, "edge": {"target": [], "time": []}}}, "displayed_time": "18.99", "trialTime": 20260, "trial_type": "mouselab-mdp", "trial_index": 45, "time_elapsed": 1477584, "internal_node_id": "0.0-6.0-1.0-36.0"}}, {"uniqueid": "w39878106:a73447404", "current_trial": 46, "dateTime": 1693566255525, "trialdata": {"revealed_states": [], "clicked_states": ["20", "31", "33", "11", "10"], "num_clicks_accrued": [0, 0, 0, 0, 0, 0, 0, 0, 0, 0, 0, 0, 0], "stateRewards": ["", 2, 3, -1, 16, -78, -11, 46, 2, -20, 79, -67, 2, 3, 2, 11, -83, -42, -58, -11, -67, -22, 55, 2, -1, -1, -16, -83, -82, 23, -11, -29, 13, 13], "withholdReward": false, "trial_id": "mdp_trial_38", "block": "test", "trialIndex": 39, "score": 78, "costs": -7, "simulationMode": [null, null, null, null, null], "rewards": [2, 3, -1, 2, 79], "path": ["0", "0", "1", "2", "3", "8", "10"], "rt": [13106, 86, 557, 374, 177], "actions": ["up", "up", "up", "left", "down"], "actionTimes": [14718, 15312, 16378, 17279, 17968], "queries": {"click": {"state": {"target": ["20", "31", "33", "11", "10"], "time": [2735, 5316, 7749, 9767, 11850]}, "edge": {"target": [], "time": []}}, "mouseover": {"state": {"target": ["12", "19", "20", "19", "22", "31", "30", "33", "25", "26", "11", "4", "2", "10", "2"], "time": [2126, 2175, 2493, 3774, 4711, 5124, 7322, 7405, 8174, 8192, 8692, 10440, 11207, 11558, 13940]}, "edge": {"target": [], "time": []}}, "mouseout": {"state": {"target": ["1", "12", "19", "20", "19", "22", "31", "30", "33", "25", "26", "11", "4", "2", "10"], "time": [1141, 2139, 2259, 3758, 3840, 4722, 7291, 7357, 8124, 8191, 8208, 10374, 10456, 11257, 13911]}, "edge": {"target": [], "time": []}}}, "displayed_time": "18.47", "trialTime": 19834, "trial_type": "mouselab-mdp", "trial_index": 46, "time_elapsed": 1497557, "internal_node_id": "0.0-6.0-1.0-37.0"}}, {"uniqueid": "w39878106:a73447404", "current_trial": 47, "dateTime": 1693566289586, "trialdata": {"revealed_states": [], "clicked_states": ["6", "9", "11", "18", "20", "21", "32", "31", "29"], "num_clicks_accrued": [0, 0, 0, 0, 0, 0, 0, 0, 0, 0, 0, 0, 0], "stateRewards": ["", -1, -4, -1, -11, 43, 69, 39, 4, 17, -20, -82, -2, -1, 4, 8, -79, 24, -79, 11, 36, 64, 41, 2, 4, -1, 11, -79, -47, 75, -3, 63, -36, -19], "withholdReward": false, "trial_id": "mdp_trial_39", "block": "test", "trialIndex": 40, "score": 78.4, "costs": -12.600000000000001, "simulationMode": [null, null, null, null, null], "rewards": [2, 4, -1, 11, 75], "path": ["0", "0", "23", "24", "25", "26", "29"], "rt": [25688, 123, 281, 509, 1757], "actions": ["left", "left", "left", "up", "left"], "actionTimes": [26924, 27555, 28345, 29371, 31638], "queries": {"click": {"state": {"target": ["6", "9", "11", "18", "20", "21", "32", "31", "29"], "time": [2673, 5173, 7505, 10173, 13022, 15740, 18140, 20640, 23957]}, "edge": {"target": [], "time": []}}, "mouseover": {"state": {"target": ["1", "4", "6", "5", "9", "9", "11", "3", "7", "18", "15", "17", "20", "21", "32", "31", "0", "25", "29", "26", "28", "28"], "time": [1831, 1913, 2449, 3146, 3613, 4063, 7300, 8196, 9663, 10000, 12245, 12296, 12583, 15431, 16615, 19965, 22449, 23233, 23713, 24531, 24631, 26149]}, "edge": {"target": [], "time": []}}, "mouseout": {"state": {"target": ["2", "1", "4", "6", "5", "9", "9", "11", "3", "7", "18", "15", "17", "20", "21", "32", "31", "0", "25", "29", "26", "28"], "time": [647, 1844, 2234, 3080, 3180, 3912, 7199, 7515, 9616, 9698, 12231, 12261, 12430, 15283, 16148, 19916, 21831, 22461, 23245, 24051, 24562, 25733]}, "edge": {"target": [], "time": []}}}, "displayed_time": "32.15", "trialTime": 33917, "trial_type": "mouselab-mdp", "trial_index": 47, "time_elapsed": 1531618, "internal_node_id": "0.0-6.0-1.0-38.0"}}, {"uniqueid": "w39878106:a73447404", "current_trial": 48, "dateTime": 1693566314837, "trialdata": {"revealed_states": [], "clicked_states": ["6", "29", "25", "23", "32", "33", "22"], "num_clicks_accrued": [0, 0, 0, 0, 0, 0, 0, 0, 0, 0, 0, 0, 0], "stateRewards": ["", -1, 4, -5, 9, 29, -75, -42, -16, 24, -28, -41, 2, -3, 1, 10, 60, 47, 55, -1, -53, 22, -40, 2, -3, -6, 4, -26, 44, 54, 15, -76, 42, 14], "withholdReward": false, "trial_id": "mdp_trial_40", "block": "test", "trialIndex": 41, "score": 41.2, "costs": -9.8, "simulationMode": [null, null, null, null, null], "rewards": [2, -3, -6, 4, 54], "path": ["0", "0", "23", "24", "25", "26", "29"], "rt": [18603, 213, 135, 404, 900], "actions": ["left", "left", "left", "up", "left"], "actionTimes": [19872, 20580, 21234, 22153, 23567], "queries": {"click": {"state": {"target": ["6", "29", "25", "23", "32", "33", "22"], "time": [2625, 4657, 7291, 9689, 11774, 14059, 17242]}, "edge": {"target": [], "time": []}}, "mouseover": {"state": {"target": ["1", "4", "6", "4", "10", "26", "29", "25", "24", "23", "31", "32", "30", "33", "30", "31", "12", "22", "19", "19"], "time": [1717, 2251, 2380, 3098, 3148, 3498, 3964, 6802, 7997, 9435, 10731, 11148, 12516, 13872, 16214, 16264, 16682, 16965, 18917, 19167]}, "edge": {"target": [], "time": []}}, "mouseout": {"state": {"target": ["28", "1", "4", "6", "4", "10", "26", "29", "25", "24", "23", "31", "32", "30", "33", "30", "31", "12", "22", "19", "19"], "time": [783, 1731, 2331, 3079, 3114, 3164, 3565, 5246, 7946, 8046, 10647, 10748, 11784, 12532, 16202, 16249, 16316, 16799, 18882, 18966, 19234]}, "edge": {"target": [], "time": []}}}, "displayed_time": "24.08", "trialTime": 25104, "trial_type": "mouselab-mdp", "trial_index": 48, "time_elapsed": 1556869, "internal_node_id": "0.0-6.0-1.0-39.0"}}, {"uniqueid": "w39878106:a73447404", "current_trial": 49, "dateTime": 1693566385570, "trialdata": {"rt": 70728, "response": {"Q0": "$-16 to 16", "Q1": "$-16 to $16", "Q2": "$-88 to $88", "Q3": "The cost for clicking on nodes varied between nodes.", "Q4": "Very motivated"}, "question_order": [0, 1, 2, 3, 4], "trial_id": "final_quiz_control", "trial_type": "survey-multi-choice", "trial_index": 49, "time_elapsed": 1627602, "internal_node_id": "0.0-6.0-2.0"}}, {"uniqueid": "w39878106:a73447404", "current_trial": 50, "dateTime": 1693566581104, "trialdata": {"rt": 195528, "response": {"Q0": "At first, I studied how clicking works and then figured that the last step is the most important. Thereafter, my plan was to always check the last node, if the last node had a higher value, my chances of getting more money were higher, and vice versa. Eventually, I also clicked on middle and first nodes to get an idea of what direction I needed to take.", "Q1": "Yes, I initially clicked on the first nodes in the first few rounds, but as I got better understanding of the game, I realised that clicking on the last node in each direction was a better strategy.", "Q2": "It was fairly easy"}, "trial_id": "self_report_control", "trial_type": "survey-text", "trial_index": 50, "time_elapsed": 1823136, "internal_node_id": "0.0-6.0-3.0"}}, {"uniqueid": "w39878106:a73447404", "current_trial": 51, "dateTime": 1693566614804, "trialdata": {"rt": 33696, "response": {"gender": "female", "age": "28", "colorblind": "0", "effort": "0"}, "trial_type": "survey-html-form", "trial_index": 51, "time_elapsed": 1856837, "internal_node_id": "0.0-6.0-4.0"}}, {"uniqueid": "w39878106:a73447404", "current_trial": 52, "dateTime": 1693566634287, "trialdata": {"rt": 19476, "response": {"Q0": "No", "Q1": "No", "Q2": "NA"}, "trial_type": "survey-text", "trial_index": 52, "time_elapsed": 1876320, "internal_node_id": "0.0-6.0-5.0"}}, {"uniqueid": "w39878106:a73447404", "current_trial": 53, "dateTime": 1693566660938, "trialdata": {"rt": 26644, "stimulus": "<h1>Completion Code Instructions (1/2)</h1>\n<br><br><br><br>\nYou have reached the end of the experiment! The completion code consists of two parts: (1) a code with 2 characters (2) a code with 6 characters. On this page, you will receive the second part of the code. The first part of the completion code will be on the next page.\n<br><br>\nThe second part of your completion code is: <b>EWEK22</b>\n<br><br>\nPlease note this down. Then, press 'Finish HIT' in order to find the first part of your completion code. Once the data has been saved, you will receive this code either in this window or in the original browser window where you started the experiment.\n", "response": 0, "trial_type": "html-button-response", "trial_index": 53, "time_elapsed": 1902971, "internal_node_id": "0.0-6.0-6.0"}}, {"uniqueid": "w39878106:a73447404", "current_trial": 54, "dateTime": 1693566661949, "trialdata": {"success": true, "trial_type": "fullscreen", "trial_index": 54, "time_elapsed": 1903982, "internal_node_id": "0.0-7.0"}}], "questiondata": {"params": {"CODE": "C6DMOQA6", "MIN_TIME": 14, "inspectCost": 1, "startTime": "Fri Sep 01 2023 12:39:16 GMT+0200 (South Africa Standard Time)", "bonusRate": 0.002, "variance": "1_2_4_8_44", "branching": "31123"}, "final_score": 1450}, "eventdata": [{"eventtype": "initialized", "interval": 0, "timestamp": 1693564731366, "value": null}, {"eventtype": "window_resize", "interval": 0, "timestamp": 1693564731366, "value": [1024, 736]}, {"eventtype": "window_resize", "interval": 411, "timestamp": 1693564731777, "value": [1024, 736]}, {"eventtype": "window_resize", "value": [1024, 736], "timestamp": 1693564756804, "interval": 25027}, {"eventtype": "window_resize", "value": [1440, 900], "timestamp": 1693564759721, "interval": 2917}, {"eventtype": "window_resize", "value": [1024, 736], "timestamp": 1693566661188, "interval": 1901467}], "useragent": "Mozilla/5.0 (Macintosh; Intel Mac OS X 10_15_7) AppleWebKit/537.36 (KHTML, like Gecko) Chrome/116.0.0.0 Safari/537.36", "mode": "live", "id": "w39878106:a73447404", "status": "user data saved", "Beginhit": "2023-09-01 10:38:49.033874", "Beginexp": "2023-09-01 10:39:20.76611", "Endhit": "2023-09-01 11:11:02.860519", "psiturkStatus": 3, "browser": "<redacted>", "platform": "macos", "language": "en-ZA"}