{"condition": 1, "counterbalance": 0, "assignmentId": "a61749280", "workerId": "w96211185", "hitId": "h81949455", "currenttrial": 62, "bonus": 0, "data": [{"uniqueid": "w96211185:a61749280", "current_trial": 0, "dateTime": 1691070900891, "trialdata": {"success": true, "trial_type": "fullscreen", "trial_index": 0, "time_elapsed": 9425, "internal_node_id": "0.0-0.0"}}, {"uniqueid": "w96211185:a61749280", "current_trial": 1, "dateTime": 1691070952018, "trialdata": {"view_history": [{"page_index": 0, "viewing_time": 51118}], "rt": 51119, "trial_id": "exp_instructions_misaligned", "trial_type": "instructions", "trial_index": 1, "time_elapsed": 60553, "internal_node_id": "0.0-1.0"}}, {"uniqueid": "w96211185:a61749280", "current_trial": 2, "dateTime": 1691070963438, "trialdata": {"success": true, "trial_type": "fullscreen", "trial_index": 2, "time_elapsed": 71973, "internal_node_id": "0.0-2.0-0.0"}}, {"uniqueid": "w96211185:a61749280", "current_trial": 3, "dateTime": 1691071330878, "trialdata": {"view_history": [{"page_index": 0, "viewing_time": 107324}, {"page_index": 1, "viewing_time": 147234}, {"page_index": 2, "viewing_time": 40962}, {"page_index": 3, "viewing_time": 71914}], "rt": 367435, "trial_id": "mouselab_instructions_1_misaligned", "trial_type": "instructions", "trial_index": 3, "time_elapsed": 439413, "internal_node_id": "0.0-2.0-1.0"}}, {"uniqueid": "w96211185:a61749280", "current_trial": 4, "dateTime": 1691071389261, "trialdata": {"revealed_states": [], "clicked_states": ["2", "25", "15", "1", "10", "9"], "num_clicks_accrued": [0, 0, 0, 0, 0, 0, 0, 0, 0, 0, 0, 0, 0], "stateRewards": ["", 10, -10, 10, 10, 10, -10, 10, -10, -10, -10, 10, 10, -10, -10, 10, 10, 10, -10, -10, -10, 10, 10, -10, -10, -10, -10, -10, -10, 10, -10, 10, 10, 10], "withholdReward": false, "trial_id": "practice_1", "block": "test", "trialIndex": 0, "score": -9.5, "costs": -3, "simulationMode": [null, null, null, null, null], "rewards": [10, -10, 10, -10, -10], "path": ["0", "0", "1", "2", "3", "8", "9"], "rt": [27914, 438, 383, 1071, 362], "actions": ["up", "up", "up", "left", "up"], "actionTimes": [39489, 40435, 41326, 42896, 43774], "queries": {"click": {"state": {"target": ["2", "25", "15", "1", "10", "9"], "time": [15672, 20207, 22112, 25215, 31697, 33323]}, "edge": {"target": [], "time": []}}, "mouseover": {"state": {"target": ["1", "0", "1", "2", "1", "1", "1", "28", "25", "13", "15", "18", "1", "2", "2", "10", "2", "8", "9", "3", "18", "15", "14", "1", "0"], "time": [12619, 13001, 14334, 14818, 17418, 18317, 18667, 19050, 19601, 21191, 21651, 22934, 24050, 29100, 29367, 31389, 32323, 32492, 32949, 33750, 34188, 34249, 34433, 36482, 37800]}, "edge": {"target": [], "time": []}}, "mouseout": {"state": {"target": ["14", "15", "15", "13", "12", "1", "1", "1", "0", "1", "0", "1", "2", "1", "1", "1", "28", "25", "13", "15", "18", "1", "1", "2", "2", "10", "2", "8", "9", "3", "18", "15", "14", "1", "0", "12", "1", "9", "5", "15", "22", "19", "21"], "time": [1168, 1319, 1584, 1785, 2001, 5835, 7251, 10168, 12586, 12768, 14168, 14602, 17385, 17451, 18338, 18884, 19150, 21141, 21211, 22910, 22955, 26032, 28966, 29119, 30700, 32090, 32341, 32678, 33712, 33771, 34211, 34301, 34666, 37132, 37823, 47865, 47899, 48981, 50865, 51631, 51848, 52331, 52382]}, "edge": {"target": [], "time": []}}}, "displayed_time": "44.28", "trialTime": 57235, "trial_type": "mouselab-mdp", "trial_index": 4, "time_elapsed": 497795, "internal_node_id": "0.0-2.0-2.0-0.0"}}, {"uniqueid": "w96211185:a61749280", "current_trial": 5, "dateTime": 1691071410454, "trialdata": {"revealed_states": [], "clicked_states": [], "num_clicks_accrued": [0, 0, 0, 0, 0, 0, 0, 0, 0, 0, 0, 0, 0], "stateRewards": ["", -10, 10, 10, -10, -10, -10, 10, 10, 10, -10, 10, -10, 10, 10, 10, -10, -10, 10, -10, 10, 10, 10, -10, -10, 10, -10, 10, -10, 10, -10, -10, -10, -10], "withholdReward": false, "trial_id": "practice_2", "block": "test", "trialIndex": 1, "score": -26.5, "costs": 0, "simulationMode": [null, null, null, null, null], "rewards": [-10, -10, 10, -10, -10], "path": ["0", "0", "23", "24", "25", "30", "33"], "rt": [2557, 400, 394, 1139, 1236], "actions": ["left", "left", "left", "down", "left"], "actionTimes": [7801, 8712, 9621, 11285, 13048], "queries": {"click": {"state": {"target": [], "time": []}, "edge": {"target": [], "time": []}}, "mouseover": {"state": {"target": ["14"], "time": [5820]}, "edge": {"target": [], "time": []}}, "mouseout": {"state": {"target": ["21", "12", "14", "19", "19"], "time": [3170, 3986, 5887, 14169, 15969]}, "edge": {"target": [], "time": []}}}, "displayed_time": "13.58", "trialTime": 20585, "trial_type": "mouselab-mdp", "trial_index": 5, "time_elapsed": 518988, "internal_node_id": "0.0-2.0-2.0-1.0"}}, {"uniqueid": "w96211185:a61749280", "current_trial": 6, "dateTime": 1691071507376, "trialdata": {"view_history": [{"page_index": 0, "viewing_time": 75600}, {"page_index": 1, "viewing_time": 21315}], "rt": 96916, "trial_id": "mouselab_instructions_2_misaligned", "trial_type": "instructions", "trial_index": 6, "time_elapsed": 615911, "internal_node_id": "0.0-2.0-3.0"}}, {"uniqueid": "w96211185:a61749280", "current_trial": 7, "dateTime": 1691071585944, "trialdata": {"rt": 78559, "response": {"Q0": "The cost for clicking on nodes may vary between nodes.", "Q1": "The better I perform the higher my bonus will be.", "Q2": "No, the amount of cash at each node of the web may be different each time.", "Q3": "To get the highest total score.", "Q4": "Only after moving the spider.", "Q5": "3 seconds"}, "question_order": [0, 1, 2, 3, 4, 5], "correct": {"Q0": "The cost for clicking on nodes may vary between nodes.", "Q1": "The better I perform the higher my bonus will be.", "Q2": "No, the amount of cash at each node of the web may be different each time.", "Q3": "To get the highest total score.", "Q4": "Only before moving the spider.", "Q5": "3 seconds"}, "trial_id": "mouselab_quiz_misaligned", "trial_type": "survey-multi-choice", "trial_index": 7, "time_elapsed": 694479, "internal_node_id": "0.0-2.0-4.0"}}, {"uniqueid": "w96211185:a61749280", "current_trial": 8, "dateTime": 1691071622463, "trialdata": {"success": true, "trial_type": "fullscreen", "trial_index": 8, "time_elapsed": 730998, "internal_node_id": "0.0-2.1-0.1"}}, {"uniqueid": "w96211185:a61749280", "current_trial": 9, "dateTime": 1691071976423, "trialdata": {"view_history": [{"page_index": 0, "viewing_time": 98955}, {"page_index": 1, "viewing_time": 147830}, {"page_index": 2, "viewing_time": 29166}, {"page_index": 3, "viewing_time": 78004}], "rt": 353957, "trial_id": "mouselab_instructions_1_misaligned", "trial_type": "instructions", "trial_index": 9, "time_elapsed": 1084958, "internal_node_id": "0.0-2.1-1.1"}}, {"uniqueid": "w96211185:a61749280", "current_trial": 10, "dateTime": 1691072016206, "trialdata": {"revealed_states": [], "clicked_states": ["24", "3"], "num_clicks_accrued": [0, 0, 0, 0, 0, 0, 0, 0, 0, 0, 0, 0, 0], "stateRewards": ["", 10, -10, 10, 10, 10, -10, 10, -10, -10, -10, 10, 10, -10, -10, 10, 10, 10, -10, -10, -10, 10, 10, -10, -10, -10, -10, -10, -10, 10, -10, 10, 10, 10], "withholdReward": false, "trial_id": "practice_1", "block": "test", "trialIndex": 2, "score": -27.5, "costs": -1, "simulationMode": [null, null, null, null, null], "rewards": [-10, -10, -10, -10, 10], "path": ["0", "0", "23", "24", "25", "26", "29"], "rt": [11922, 664, 1120, 1216, 761], "actions": ["left", "left", "left", "up", "left"], "actionTimes": [15851, 17024, 18663, 20391, 21660], "queries": {"click": {"state": {"target": ["24", "3"], "time": [7431, 9868]}, "edge": {"target": [], "time": []}}, "mouseover": {"state": {"target": ["24", "24", "3", "2", "1", "23", "0", "12"], "time": [5733, 6617, 9534, 11633, 11717, 12900, 13637, 13686]}, "edge": {"target": [], "time": []}}, "mouseout": {"state": {"target": ["22", "0", "0", "24", "24", "3", "2", "1", "23", "0", "12", "12", "1", "1", "10", "3", "4", "6", "19"], "time": [1667, 2033, 5401, 5918, 9067, 11451, 11668, 12034, 13619, 13656, 13717, 23916, 24349, 24666, 24983, 25266, 25383, 25515, 35765]}, "edge": {"target": [], "time": []}}}, "displayed_time": "22.17", "trialTime": 39176, "trial_type": "mouselab-mdp", "trial_index": 10, "time_elapsed": 1124740, "internal_node_id": "0.0-2.1-2.1-0.1"}}, {"uniqueid": "w96211185:a61749280", "current_trial": 11, "dateTime": 1691072054945, "trialdata": {"revealed_states": [], "clicked_states": ["12", "14", "15", "19", "21", "24", "25", "4", "2", "8", "30", "33"], "num_clicks_accrued": [0, 0, 0, 0, 0, 0, 0, 0, 0, 0, 0, 0, 0], "stateRewards": ["", -10, 10, 10, -10, -10, -10, 10, 10, 10, -10, 10, -10, 10, 10, 10, -10, -10, 10, -10, 10, 10, 10, -10, -10, 10, -10, 10, -10, 10, -10, -10, -10, -10], "withholdReward": false, "trial_id": "practice_2", "block": "test", "trialIndex": 3, "score": 7.5, "costs": -6, "simulationMode": [null, null, null, null, null], "rewards": [-10, 10, 10, -10, 10], "path": ["0", "0", "12", "13", "14", "19", "21"], "rt": [26925, 118, 442, 957, 303], "actions": ["right", "right", "right", "down", "down"], "actionTimes": [30141, 30761, 31756, 33245, 34063], "queries": {"click": {"state": {"target": ["12", "14", "15", "19", "21", "24", "25", "4", "2", "8", "30", "33"], "time": [4831, 6969, 8585, 12335, 13598, 15136, 16914, 20309, 21802, 24135, 25349, 27104]}, "edge": {"target": [], "time": []}}, "mouseover": {"state": {"target": ["12", "12", "13", "14", "15", "16", "17", "19", "19", "21", "0", "23", "24", "23", "25", "26", "29", "3", "4", "3", "2", "1", "10", "8", "10", "28", "24", "30", "32", "33", "32"], "time": [3770, 4135, 5290, 6251, 7471, 9149, 10552, 11502, 11885, 12774, 14205, 14237, 14384, 15624, 16235, 17233, 18201, 19368, 19717, 20704, 21405, 22282, 23117, 23868, 24556, 24640, 24756, 24955, 25803, 26817, 27606]}, "edge": {"target": [], "time": []}}, "mouseout": {"state": {"target": ["14", "17", "16", "18", "12", "0", "12", "12", "13", "14", "15", "16", "17", "19", "19", "21", "0", "23", "24", "23", "24", "25", "26", "29", "3", "4", "3", "2", "1", "10", "8", "10", "28", "24", "30", "32", "33", "32", "18", "13", "22"], "time": [103, 319, 1786, 1868, 2401, 3736, 3805, 5029, 5901, 7226, 9051, 10186, 11385, 11524, 12608, 14008, 14232, 14340, 15398, 16091, 16165, 17137, 18084, 19018, 19601, 20587, 21338, 22046, 23001, 23185, 24521, 24585, 24661, 24838, 25599, 26440, 27363, 27648, 35350, 36417, 36467]}, "edge": {"target": [], "time": []}}}, "displayed_time": "34.58", "trialTime": 38054, "trial_type": "mouselab-mdp", "trial_index": 11, "time_elapsed": 1163480, "internal_node_id": "0.0-2.1-2.1-1.1"}}, {"uniqueid": "w96211185:a61749280", "current_trial": 12, "dateTime": 1691072103101, "trialdata": {"view_history": [{"page_index": 0, "viewing_time": 45173}, {"page_index": 1, "viewing_time": 2976}], "rt": 48149, "trial_id": "mouselab_instructions_2_misaligned", "trial_type": "instructions", "trial_index": 12, "time_elapsed": 1211636, "internal_node_id": "0.0-2.1-3.1"}}, {"uniqueid": "w96211185:a61749280", "current_trial": 13, "dateTime": 1691072231166, "trialdata": {"rt": 128059, "response": {"Q0": "The cost for clicking on nodes may vary between nodes.", "Q1": "The better I perform the higher my bonus will be.", "Q2": "No, the amount of cash at each node of the web may be different each time.", "Q3": "To get the highest total score.", "Q4": "Only before moving the spider.", "Q5": "3 seconds"}, "question_order": [0, 1, 2, 3, 4, 5], "correct": {"Q0": "The cost for clicking on nodes may vary between nodes.", "Q1": "The better I perform the higher my bonus will be.", "Q2": "No, the amount of cash at each node of the web may be different each time.", "Q3": "To get the highest total score.", "Q4": "Only before moving the spider.", "Q5": "3 seconds"}, "trial_id": "mouselab_quiz_misaligned", "trial_type": "survey-multi-choice", "trial_index": 13, "time_elapsed": 1339701, "internal_node_id": "0.0-2.1-4.1"}}, {"uniqueid": "w96211185:a61749280", "current_trial": 14, "dateTime": 1691072271700, "trialdata": {"rt": 40519, "stimulus": "\n<h1> Get ready to start the game! </h1>\n\nThank you for reading the instructions. Get ready start with the 40 rounds of this game.\n<br><br>\nIf you need to take a break, feel free to take one after the end of a round, before continuing to the next one.\n<br><br>\nRemember, the more money the spider gets, the bigger your bonus will be!\n<br><br>\n<div style='text-align: center;'>Press <code>space</code> to begin.</div>\n\n<br><br>\n(If, at any point, the <code>space</code> key does not take you to the next page, click once on the text and try again.)", "response": " ", "trial_id": "mdp_ready", "trial_type": "html-keyboard-response", "trial_index": 14, "time_elapsed": 1380235, "internal_node_id": "0.0-4.0-0.0"}}, {"uniqueid": "w96211185:a61749280", "current_trial": 15, "dateTime": 1691072317699, "trialdata": {"revealed_states": [], "clicked_states": ["1", "2", "3", "4", "6", "26", "25", "30", "32", "12", "13", "14", "19", "21", "16"], "num_clicks_accrued": [0, 0, 0, 0, 0, 0, 0, 0, 0, 0, 0, 0, 0], "stateRewards": ["", -2, -1, -1, 5, -54, -87, 35, 2, -8, 20, -22, 1, 3, 6, 13, -75, -32, -55, -3, 56, 62, -22, -1, -4, -1, -7, -51, 84, 70, 7, -15, 5, 55], "withholdReward": false, "trial_id": "mdp_trial_1", "block": "test", "trialIndex": 4, "score": 51.15, "costs": -17.85, "simulationMode": [null, null, null, null, null], "rewards": [1, 3, 6, -3, 62], "path": ["0", "0", "12", "13", "14", "19", "21"], "rt": [27302, 188, 355, 930, 270], "actions": ["right", "right", "right", "down", "down"], "actionTimes": [30686, 31402, 32270, 33710, 34484], "queries": {"click": {"state": {"target": ["1", "2", "3", "4", "6", "26", "25", "30", "32", "12", "13", "14", "19", "21", "16"], "time": [4707, 5572, 7465, 8531, 9877, 13387, 14661, 15719, 16560, 19803, 20615, 21505, 22439, 23313, 26891]}, "edge": {"target": [], "time": []}}, "mouseover": {"state": {"target": ["1", "2", "4", "3", "4", "6", "8", "10", "8", "10", "26", "25", "30", "32", "13", "13", "12", "13", "12", "0", "12", "13", "14", "19", "21", "15", "16", "15"], "time": [4140, 5016, 6610, 7072, 7975, 8947, 10563, 11626, 12049, 12714, 12939, 13719, 15213, 16162, 17096, 17478, 17746, 18335, 18877, 19261, 19472, 20213, 21047, 21790, 22729, 24160, 25226, 27412]}, "edge": {"target": [], "time": []}}, "mouseout": {"state": {"target": ["17", "6", "7", "1", "2", "4", "3", "4", "6", "8", "10", "8", "10", "26", "25", "30", "32", "13", "13", "12", "13", "12", "0", "12", "13", "14", "19", "21", "14", "15", "16", "15", "15", "19"], "time": [438, 522, 1022, 4951, 5896, 6889, 7796, 8912, 10345, 11601, 12007, 12675, 12790, 13594, 14988, 16006, 17019, 17236, 17700, 18294, 18796, 18942, 19422, 20053, 21025, 21746, 22708, 23623, 23824, 24926, 27256, 27593, 37287, 43153]}, "edge": {"target": [], "time": []}}}, "displayed_time": "35.01", "trialTime": 45363, "trial_type": "mouselab-mdp", "trial_index": 15, "time_elapsed": 1426234, "internal_node_id": "0.0-4.0-1.0-0.0"}}, {"uniqueid": "w96211185:a61749280", "current_trial": 16, "dateTime": 1691072350937, "trialdata": {"revealed_states": [], "clicked_states": ["1", "2", "3", "4"], "num_clicks_accrued": [0, 0, 0, 0, 0, 0, 0, 0, 0, 0, 0, 0, 0], "stateRewards": ["", 2, 4, -3, 16, -58, 30, -35, 11, -60, 47, 27, -2, -1, -7, -16, 23, -70, 68, -10, -65, -43, -34, -2, 1, 7, 9, -63, 34, -31, -8, -12, -86, 59], "withholdReward": false, "trial_id": "mdp_trial_2", "block": "test", "trialIndex": 5, "score": -41.6, "costs": -2.5999999999999996, "simulationMode": [null, null, null, null, null], "rewards": [2, 4, -3, 16, -58], "path": ["0", "0", "1", "2", "3", "4", "5"], "rt": [17214, 23, 312, 772, 1539], "actions": ["up", "up", "up", "right", "up"], "actionTimes": [20495, 21038, 21893, 23213, 25267], "queries": {"click": {"state": {"target": ["1", "2", "3", "4"], "time": [4480, 5305, 6113, 7164]}, "edge": {"target": [], "time": []}}, "mouseover": {"state": {"target": ["12", "0", "23", "1", "2", "3", "4", "6", "8", "11", "11", "11", "8", "10", "8", "8", "26", "24", "23", "24", "25", "25", "30", "31", "2"], "time": [3418, 3565, 3716, 4099, 4869, 5769, 6653, 8049, 8870, 8946, 9449, 9815, 10016, 10932, 12181, 13532, 13932, 14549, 14998, 15782, 16637, 17181, 17698, 18267, 18865]}, "edge": {"target": [], "time": []}}, "mouseout": {"state": {"target": ["14", "13", "12", "12", "0", "12", "0", "23", "1", "2", "3", "3", "4", "6", "4", "3", "8", "11", "11", "11", "8", "10", "8", "8", "26", "24", "23", "24", "25", "25", "30", "31", "2", "23"], "time": [1614, 1681, 1781, 2232, 3306, 3483, 3586, 3866, 4707, 5329, 6183, 6519, 7373, 8732, 8816, 8849, 8901, 9049, 9471, 9915, 10748, 12065, 13065, 13553, 14465, 14782, 15498, 16615, 16667, 17665, 18232, 18286, 19098, 30586]}, "edge": {"target": [], "time": []}}}, "displayed_time": "25.77", "trialTime": 32446, "trial_type": "mouselab-mdp", "trial_index": 16, "time_elapsed": 1459471, "internal_node_id": "0.0-4.0-1.0-1.0"}}, {"uniqueid": "w96211185:a61749280", "current_trial": 17, "dateTime": 1691072381382, "trialdata": {"revealed_states": [], "clicked_states": ["23", "24", "25", "26", "30"], "num_clicks_accrued": [0, 0, 0, 0, 0, 0, 0, 0, 0, 0, 0, 0, 0], "stateRewards": ["", 1, 1, -5, 8, -6, 45, 16, -6, -7, -22, -38, -1, -4, 8, -11, -16, 21, -45, -15, -59, -32, 42, -1, 3, 6, 11, -7, 34, -27, -8, 85, 43, -9], "withholdReward": false, "trial_id": "mdp_trial_3", "block": "test", "trialIndex": 6, "score": -48.15, "costs": -4.1499999999999995, "simulationMode": [null, null, null, null, null], "rewards": [-1, -4, 8, -15, -32], "path": ["0", "0", "12", "13", "14", "19", "21"], "rt": [17710, 572, 823, 821, 484], "actions": ["right", "right", "right", "down", "down"], "actionTimes": [20947, 22035, 23363, 24690, 25696], "queries": {"click": {"state": {"target": ["23", "24", "25", "26", "30"], "time": [5505, 6420, 7398, 8082, 9354]}, "edge": {"target": [], "time": []}}, "mouseover": {"state": {"target": ["0", "1", "24", "25", "24", "23", "24", "25", "26", "30", "32", "31", "1", "8", "3", "2", "1", "2", "3", "8", "10", "2", "7", "18", "13", "12", "13", "14"], "time": [3257, 3348, 4377, 4609, 4794, 5077, 6115, 7144, 7766, 8897, 9813, 10179, 10451, 10960, 11144, 11759, 12309, 13243, 14093, 14776, 15427, 15742, 15769, 15942, 16326, 17093, 17545, 17743]}, "edge": {"target": [], "time": []}}, "mouseout": {"state": {"target": ["1", "23", "0", "1", "24", "25", "24", "23", "24", "25", "26", "25", "30", "32", "31", "1", "8", "3", "2", "1", "2", "3", "8", "10", "2", "7", "18", "13", "12", "13", "14", "13", "0"], "time": [1013, 1876, 3268, 4227, 4413, 4712, 4944, 5849, 6804, 7634, 8452, 8699, 9786, 10036, 10203, 10483, 11096, 11476, 12043, 13027, 14009, 14693, 15393, 15510, 15763, 15796, 15963, 17009, 17515, 17693, 18276, 27759, 28159]}, "edge": {"target": [], "time": []}}}, "displayed_time": "26.21", "trialTime": 29490, "trial_type": "mouselab-mdp", "trial_index": 17, "time_elapsed": 1489917, "internal_node_id": "0.0-4.0-1.0-2.0"}}, {"uniqueid": "w96211185:a61749280", "current_trial": 18, "dateTime": 1691072408117, "trialdata": {"revealed_states": [], "clicked_states": ["13", "4", "8", "24", "25"], "num_clicks_accrued": [0, 0, 0, 0, 0, 0, 0, 0, 0, 0, 0, 0, 0], "stateRewards": ["", 2, 3, 3, 10, 19, -21, 6, 9, 54, 68, 16, 2, 2, -6, -8, 40, -2, -75, -2, -42, 55, 59, -1, 2, 4, -14, 11, -34, -30, -6, 61, -53, 13], "withholdReward": false, "trial_id": "mdp_trial_4", "block": "test", "trialIndex": 7, "score": 7.25, "costs": -4.75, "simulationMode": [null, null, null, null, null], "rewards": [-1, 2, 4, -6, 13], "path": ["0", "0", "23", "24", "25", "30", "33"], "rt": [14510, 98, 684, 1368, 1166], "actions": ["left", "left", "left", "down", "left"], "actionTimes": [17739, 18353, 19540, 21423, 23128], "queries": {"click": {"state": {"target": ["13", "4", "8", "24", "25"], "time": [5252, 6816, 8212, 9882, 11133]}, "edge": {"target": [], "time": []}}, "mouseover": {"state": {"target": ["1", "13", "18", "7", "4", "3", "8", "28", "24", "25", "28", "26", "26", "28"], "time": [3692, 4643, 5784, 6188, 6528, 7643, 7899, 8936, 9084, 10470, 12213, 14328, 14778, 15995]}, "edge": {"target": [], "time": []}}, "mouseout": {"state": {"target": ["12", "0", "1", "13", "18", "7", "4", "3", "8", "28", "24", "25", "28", "26", "26", "28", "23"], "time": [361, 3250, 3880, 5736, 5867, 6258, 6969, 7732, 8704, 8982, 10347, 11915, 13795, 14461, 15562, 16128, 24761]}, "edge": {"target": [], "time": []}}}, "displayed_time": "23.68", "trialTime": 25845, "trial_type": "mouselab-mdp", "trial_index": 18, "time_elapsed": 1516651, "internal_node_id": "0.0-4.0-1.0-3.0"}}, {"uniqueid": "w96211185:a61749280", "current_trial": 19, "dateTime": 1691072434521, "trialdata": {"revealed_states": [], "clicked_states": [], "num_clicks_accrued": [0, 0, 0, 0, 0, 0, 0, 0, 0, 0, 0, 0, 0], "stateRewards": ["", -1, -2, -8, 8, -27, -82, 19, -14, -62, 4, 1, -2, 2, 6, 10, 73, -51, -2, 2, 73, -48, 54, -1, 2, -4, 11, -25, 47, 86, 15, 33, 43, -42], "withholdReward": false, "trial_id": "mdp_trial_5", "block": "test", "trialIndex": 8, "score": -85, "costs": 0, "simulationMode": [null, null, null, null, null], "rewards": [-1, -2, -8, 8, -82], "path": ["0", "0", "1", "2", "3", "4", "6"], "rt": [13158, 375, 565, 1058, 381], "actions": ["up", "up", "up", "right", "right"], "actionTimes": [16805, 17683, 18756, 20325, 21222], "queries": {"click": {"state": {"target": [], "time": []}, "edge": {"target": [], "time": []}}, "mouseover": {"state": {"target": ["0", "23", "24", "24", "23", "23", "24", "1", "2", "7", "18", "13", "13", "22", "19"], "time": [4617, 5215, 6069, 6465, 8699, 9365, 9404, 10382, 10748, 11634, 11815, 11901, 12231, 12915, 13265]}, "edge": {"target": [], "time": []}}, "mouseout": {"state": {"target": ["12", "0", "23", "0", "0", "23", "24", "24", "23", "23", "24", "1", "2", "7", "18", "13", "13", "22", "19"], "time": [614, 2197, 2448, 2614, 4782, 6065, 6132, 8665, 8733, 9386, 10199, 10515, 11598, 11652, 11884, 11981, 12865, 12935, 23931]}, "edge": {"target": [], "time": []}}}, "displayed_time": "21.73", "trialTime": 25554, "trial_type": "mouselab-mdp", "trial_index": 19, "time_elapsed": 1543055, "internal_node_id": "0.0-4.0-1.0-4.0"}}, {"uniqueid": "w96211185:a61749280", "current_trial": 20, "dateTime": 1691072463108, "trialdata": {"revealed_states": [], "clicked_states": ["12", "15", "19", "25", "8", "4"], "num_clicks_accrued": [0, 0, 0, 0, 0, 0, 0, 0, 0, 0, 0, 0, 0], "stateRewards": ["", -1, 1, 8, -8, -49, 62, -78, 16, 28, -81, 78, -2, -3, -1, -4, 67, 49, -2, -13, -16, -39, 83, 1, -4, 4, -5, -20, 7, 84, 7, -32, -59, 19], "withholdReward": false, "trial_id": "mdp_trial_6", "block": "test", "trialIndex": 9, "score": 45.1, "costs": -6.8999999999999995, "simulationMode": [null, null, null, null, null], "rewards": [-1, 1, 8, 16, 28], "path": ["0", "0", "1", "2", "3", "8", "9"], "rt": [16554, 184, 168, 1072, 437], "actions": ["up", "up", "up", "left", "up"], "actionTimes": [20082, 20807, 21543, 23145, 24111], "queries": {"click": {"state": {"target": ["12", "15", "19", "25", "8", "4"], "time": [5215, 7454, 8576, 11141, 12478, 13754]}, "edge": {"target": [], "time": []}}, "mouseover": {"state": {"target": ["12", "12", "18", "16", "15", "14", "19", "13", "12", "0", "23", "24", "25", "28", "10", "8", "3", "4", "4", "2", "1", "23", "31", "30"], "time": [3588, 4810, 5973, 6865, 6999, 7980, 8053, 9521, 9577, 9698, 9849, 10032, 10748, 11652, 11860, 12184, 12879, 12929, 13269, 16464, 16582, 16665, 16898, 17214]}, "edge": {"target": [], "time": []}}, "mouseout": {"state": {"target": ["22", "13", "12", "0", "12", "12", "18", "16", "15", "14", "19", "13", "12", "0", "23", "24", "25", "28", "10", "8", "3", "4", "4", "2", "1", "23", "31"], "time": [964, 1314, 1565, 2816, 4532, 5806, 6239, 6900, 7973, 8024, 9434, 9567, 9621, 9815, 9998, 10398, 11621, 11699, 11968, 12869, 12902, 13144, 16298, 16547, 16602, 16799, 16998]}, "edge": {"target": [], "time": []}}}, "displayed_time": "24.63", "trialTime": 27676, "trial_type": "mouselab-mdp", "trial_index": 20, "time_elapsed": 1571643, "internal_node_id": "0.0-4.0-1.0-5.0"}}, {"uniqueid": "w96211185:a61749280", "current_trial": 21, "dateTime": 1691072489268, "trialdata": {"revealed_states": [], "clicked_states": ["14", "4", "8", "26", "30", "23"], "num_clicks_accrued": [0, 0, 0, 0, 0, 0, 0, 0, 0, 0, 0, 0, 0], "stateRewards": ["", -2, -3, 1, -7, 39, -67, 16, 5, -20, 73, 66, -1, 4, 5, -3, 23, -68, -87, -8, 3, -3, 17, 1, -4, -2, -13, -32, 34, 61, -5, -11, -18, 12], "withholdReward": false, "trial_id": "mdp_trial_7", "block": "test", "trialIndex": 10, "score": -25.9, "costs": -6.8999999999999995, "simulationMode": [null, null, null, null, null], "rewards": [-2, -3, 1, 5, -20], "path": ["0", "0", "1", "2", "3", "8", "9"], "rt": [15716, 161, 225, 755, 417], "actions": ["up", "up", "up", "left", "up"], "actionTimes": [18900, 19567, 20314, 21578, 22506], "queries": {"click": {"state": {"target": ["14", "4", "8", "26", "30", "23"], "time": [5892, 8319, 9714, 11651, 13384, 15416]}, "edge": {"target": [], "time": []}}, "mouseover": {"state": {"target": ["0", "12", "13", "13", "14", "18", "3", "4", "4", "3", "8", "8", "26", "25", "30", "32", "32", "23", "10"], "time": [4264, 4361, 4484, 4864, 5381, 6750, 7246, 7452, 7996, 8832, 8955, 9529, 10898, 12420, 12997, 14127, 14447, 14864, 16779]}, "edge": {"target": [], "time": []}}, "mouseout": {"state": {"target": ["14", "16", "18", "12", "0", "0", "12", "13", "13", "14", "18", "3", "4", "4", "3", "8", "8", "26", "25", "30", "32", "32", "23", "10"], "time": [97, 782, 967, 1912, 3211, 4284, 4416, 4614, 5330, 6065, 6819, 7380, 7564, 8784, 8901, 9209, 10368, 12179, 12697, 13969, 14184, 14586, 16614, 23979]}, "edge": {"target": [], "time": []}}}, "displayed_time": "23.01", "trialTime": 24770, "trial_type": "mouselab-mdp", "trial_index": 21, "time_elapsed": 1597802, "internal_node_id": "0.0-4.0-1.0-6.0"}}, {"uniqueid": "w96211185:a61749280", "current_trial": 22, "dateTime": 1691072518798, "trialdata": {"revealed_states": [], "clicked_states": ["1", "4", "14", "25", "32", "9"], "num_clicks_accrued": [0, 0, 0, 0, 0, 0, 0, 0, 0, 0, 0, 0, 0], "stateRewards": ["", 2, -1, 4, -9, -43, 7, 54, -13, 38, -40, -83, -1, 2, -8, -10, 34, -33, 11, -14, -79, 65, 26, 1, 2, 4, 10, 21, 1, 86, 4, -53, 28, -29], "withholdReward": false, "trial_id": "mdp_trial_8", "block": "test", "trialIndex": 11, "score": -25.5, "costs": -7.5, "simulationMode": [null, null, null, null, null], "rewards": [1, 2, 4, 4, -29], "path": ["0", "0", "23", "24", "25", "30", "33"], "rt": [18331, 181, 48, 647, 994], "actions": ["left", "left", "left", "down", "left"], "actionTimes": [22334, 23028, 23592, 24773, 26270], "queries": {"click": {"state": {"target": ["1", "4", "14", "25", "32", "9"], "time": [5434, 7065, 8588, 9929, 11061, 14416]}, "edge": {"target": [], "time": []}}, "mouseover": {"state": {"target": ["1", "4", "7", "13", "14", "13", "23", "24", "25", "25", "30", "32", "33", "27", "27", "11", "9", "5", "4", "7"], "time": [4952, 6651, 7516, 7873, 8234, 9018, 9105, 9155, 9206, 9646, 10225, 10660, 11725, 11933, 12601, 12652, 13106, 15777, 16905, 17031]}, "edge": {"target": [], "time": []}}, "mouseout": {"state": {"target": ["0", "1", "4", "7", "13", "14", "14", "13", "23", "24", "25", "25", "30", "32", "33", "27", "27", "11", "9", "5", "4", "7"], "time": [904, 5575, 7489, 7584, 8032, 8750, 8990, 9039, 9134, 9177, 9339, 10201, 10294, 11672, 11751, 12355, 12625, 12758, 14957, 16690, 16950, 17237]}, "edge": {"target": [], "time": []}}}, "displayed_time": "26.79", "trialTime": 28557, "trial_type": "mouselab-mdp", "trial_index": 22, "time_elapsed": 1627332, "internal_node_id": "0.0-4.0-1.0-7.0"}}, {"uniqueid": "w96211185:a61749280", "current_trial": 23, "dateTime": 1691072581318, "trialdata": {"revealed_states": [], "clicked_states": ["3", "26", "30", "14", "16", "4", "19", "24", "8", "25", "32", "9", "15", "18", "13", "12", "1", "2", "7", "11", "29"], "num_clicks_accrued": [0, 0, 0, 0, 0, 0, 0, 0, 0, 0, 0, 0, 0], "stateRewards": ["", -1, 1, -6, -1, 80, 23, 2, -11, 73, -81, 59, 1, 3, 5, -1, -26, 28, -3, 16, -59, -13, -50, -2, -2, 2, 15, -50, 86, 17, -4, 37, 35, 44], "withholdReward": false, "trial_id": "mdp_trial_9", "block": "test", "trialIndex": 12, "score": 14.25, "costs": -27.75, "simulationMode": [null, null, null, null, null], "rewards": [-1, 1, -6, -11, 59], "path": ["0", "0", "1", "2", "3", "8", "11"], "rt": [51016, 178, 155, 916, 317], "actions": ["up", "up", "up", "left", "left"], "actionTimes": [56199, 56882, 57543, 58970, 59788], "queries": {"click": {"state": {"target": ["3", "26", "30", "14", "16", "4", "19", "24", "8", "25", "32", "9", "15", "18", "13", "12", "1", "2", "7", "11", "29"], "time": [7202, 8675, 9657, 10957, 11980, 15199, 17803, 20455, 22239, 24910, 26803, 30707, 34663, 35839, 39249, 40348, 42983, 43894, 45184, 48454, 51941]}, "edge": {"target": [], "time": []}}, "mouseover": {"state": {"target": ["2", "3", "3", "3", "28", "26", "25", "30", "31", "0", "12", "14", "15", "16", "6", "4", "7", "22", "19", "22", "12", "0", "23", "23", "24", "28", "10", "8", "26", "25", "30", "32", "30", "11", "27", "27", "11", "9", "6", "17", "15", "18", "18", "20", "19", "22", "22", "13", "12", "1", "2", "2", "1", "2", "7", "4", "3", "8", "11", "8", "3", "4", "6", "5", "26", "29", "27", "26"], "time": [5319, 5416, 6483, 6934, 7815, 8270, 9021, 9353, 10085, 10141, 10201, 10587, 11374, 11686, 12632, 14817, 15712, 16683, 17166, 18674, 18750, 18966, 19166, 19731, 20115, 21289, 21504, 21815, 23732, 24283, 25752, 25960, 27253, 27428, 27885, 28404, 29616, 30366, 31570, 32779, 34380, 35044, 35430, 36803, 37695, 37771, 38145, 38864, 40046, 41497, 41552, 41681, 42613, 43571, 44750, 45552, 46968, 47654, 47711, 48771, 48836, 48984, 49144, 50386, 51284, 51563, 52388, 53587]}, "edge": {"target": [], "time": []}}, "mouseout": {"state": {"target": ["0", "0", "0", "2", "3", "3", "3", "28", "26", "26", "25", "30", "31", "0", "12", "14", "15", "16", "6", "4", "7", "22", "19", "22", "12", "0", "23", "23", "24", "28", "10", "8", "26", "25", "30", "32", "30", "11", "27", "27", "11", "9", "6", "17", "15", "18", "18", "20", "19", "22", "22", "13", "12", "1", "2", "2", "1", "2", "7", "4", "3", "8", "11", "8", "3", "4", "6", "5", "26", "29", "27"], "time": [1616, 1782, 4516, 5352, 6033, 6583, 7618, 8103, 8694, 8931, 9225, 10081, 10118, 10168, 10238, 11275, 11509, 12505, 14797, 15686, 15739, 17099, 18600, 18703, 18823, 18987, 19382, 19948, 21253, 21316, 21565, 23500, 24250, 25466, 25908, 27249, 27281, 27817, 27963, 29594, 29681, 31229, 32018, 33981, 35036, 35068, 36262, 37654, 37719, 37797, 38798, 39999, 41160, 41531, 41583, 42031, 43151, 44572, 45349, 46810, 47530, 47683, 48765, 48831, 48886, 49010, 49903, 51208, 51304, 52165, 53539]}, "edge": {"target": [], "time": []}}}, "displayed_time": "60.30", "trialTime": 61644, "trial_type": "mouselab-mdp", "trial_index": 23, "time_elapsed": 1689853, "internal_node_id": "0.0-4.0-1.0-8.0"}}, {"uniqueid": "w96211185:a61749280", "current_trial": 24, "dateTime": 1691072600614, "trialdata": {"revealed_states": [], "clicked_states": ["1", "2", "3", "4", "6"], "num_clicks_accrued": [0, 0, 0, 0, 0, 0, 0, 0, 0, 0, 0, 0, 0], "stateRewards": ["", -1, -4, 8, 8, -68, 47, 24, -7, -61, 49, -69, -1, -1, 8, -7, 42, 1, -45, -11, 10, -63, -6, 1, 4, 6, -16, 79, -37, -58, -12, 81, 18, -53], "withholdReward": false, "trial_id": "mdp_trial_10", "block": "test", "trialIndex": 13, "score": 53.25, "costs": -4.75, "simulationMode": [null, null, null, null, null], "rewards": [-1, -4, 8, 8, 47], "path": ["0", "0", "1", "2", "3", "4", "6"], "rt": [10249, 356, 338, 647, 35], "actions": ["up", "up", "up", "right", "right"], "actionTimes": [13165, 14044, 14896, 16052, 16595], "queries": {"click": {"state": {"target": ["1", "2", "3", "4", "6"], "time": [4367, 5080, 5825, 6630, 7218]}, "edge": {"target": [], "time": []}}, "mouseover": {"state": {"target": ["1", "2", "3", "4", "6", "5", "7", "3", "9", "8"], "time": [3847, 4750, 5511, 6286, 6900, 7681, 8768, 9776, 10211, 11663]}, "edge": {"target": [], "time": []}}, "mouseout": {"state": {"target": ["1", "7", "4", "4", "1", "1", "2", "3", "4", "6", "5", "4", "7", "3", "9", "8"], "time": [195, 294, 346, 845, 1494, 4513, 5239, 6122, 6866, 7342, 8233, 8504, 9721, 9863, 11629, 11712]}, "edge": {"target": [], "time": []}}}, "displayed_time": "17.16", "trialTime": 18423, "trial_type": "mouselab-mdp", "trial_index": 24, "time_elapsed": 1709148, "internal_node_id": "0.0-4.0-1.0-9.0"}}, {"uniqueid": "w96211185:a61749280", "current_trial": 25, "dateTime": 1691072651913, "trialdata": {"revealed_states": [], "clicked_states": ["23", "24", "25", "30", "32", "29", "27", "2", "3", "8", "11", "6", "16", "14", "19", "20", "21"], "num_clicks_accrued": [0, 0, 0, 0, 0, 0, 0, 0, 0, 0, 0, 0, 0], "stateRewards": ["", 2, -3, -5, 5, 11, -9, -33, 6, 67, 6, -30, -1, -2, -6, 13, 55, 13, 72, -14, 75, 21, -66, -2, -4, 6, 15, -1, -35, 60, 2, 51, -73, 12], "withholdReward": false, "trial_id": "mdp_trial_11", "block": "test", "trialIndex": 14, "score": 26.85000000000001, "costs": -25.149999999999995, "simulationMode": [null, null, null, null, null], "rewards": [-1, -2, -6, -14, 75], "path": ["0", "0", "12", "13", "14", "19", "20"], "rt": [39098, 240, 502, 578, 623], "actions": ["right", "right", "right", "down", "right"], "actionTimes": [44247, 44997, 46005, 47113, 48284], "queries": {"click": {"state": {"target": ["23", "24", "25", "30", "32", "29", "27", "2", "3", "8", "11", "6", "16", "14", "19", "20", "21"], "time": [6694, 8526, 9204, 10168, 11559, 14693, 17925, 21874, 22716, 23428, 23960, 27051, 30592, 33721, 35151, 36975, 39798]}, "edge": {"target": [], "time": []}}, "mouseover": {"state": {"target": ["23", "24", "24", "24", "25", "30", "32", "33", "26", "29", "26", "28", "27", "27", "27", "11", "10", "2", "1", "2", "2", "3", "8", "11", "9", "5", "6", "16", "17", "15", "16", "15", "18", "14", "19", "20", "22", "21", "21"], "time": [6412, 7065, 7646, 8262, 8919, 9646, 10551, 12100, 13241, 14412, 15012, 15133, 15884, 16802, 17237, 18818, 19031, 19237, 19864, 20913, 21447, 22304, 23174, 23646, 24758, 25603, 26465, 27384, 28172, 29221, 30424, 30968, 32176, 33219, 34678, 35617, 37586, 38907, 39158]}, "edge": {"target": [], "time": []}}, "mouseout": {"state": {"target": ["1", "12", "0", "12", "12", "23", "24", "24", "24", "25", "25", "30", "32", "33", "26", "29", "26", "28", "27", "27", "27", "11", "10", "2", "1", "2", "2", "3", "8", "11", "8", "3", "3", "9", "5", "6", "16", "17", "15", "16", "15", "18", "14", "14", "19", "20", "19", "22", "21", "21"], "time": [195, 628, 1827, 2195, 3644, 7014, 7322, 7979, 8895, 9380, 9471, 10437, 11754, 12969, 14011, 14918, 15084, 15675, 16764, 16914, 18437, 18868, 19166, 19267, 20798, 21279, 22214, 22914, 23610, 24419, 24500, 24571, 24664, 25368, 26316, 27291, 28116, 28937, 30162, 30938, 32167, 33150, 34049, 34537, 35586, 37280, 37562, 38745, 38933, 40902]}, "edge": {"target": [], "time": []}}}, "displayed_time": "48.78", "trialTime": 50524, "trial_type": "mouselab-mdp", "trial_index": 25, "time_elapsed": 1760447, "internal_node_id": "0.0-4.0-1.0-10.0"}}, {"uniqueid": "w96211185:a61749280", "current_trial": 26, "dateTime": 1691072706837, "trialdata": {"revealed_states": [], "clicked_states": ["21", "20", "17", "16", "7", "6", "9", "10", "27", "33"], "num_clicks_accrued": [0, 0, 0, 0, 0, 0, 0, 0, 0, 0, 0, 0, 0], "stateRewards": ["", 2, 3, 6, -5, -74, -53, 17, -12, 46, 44, 18, -2, 4, 1, -8, 22, -23, -49, 9, -45, 55, 81, 1, -1, -7, -16, -83, -71, -45, 2, 51, 82, 61], "withholdReward": false, "trial_id": "mdp_trial_12", "block": "test", "trialIndex": 15, "score": 45.5, "costs": -21.499999999999996, "simulationMode": [null, null, null, null, null], "rewards": [-2, 4, 1, 9, 55], "path": ["0", "0", "12", "13", "14", "19", "21"], "rt": [45916, 256, 275, 550, 263], "actions": ["right", "right", "right", "down", "down"], "actionTimes": [48968, 49734, 50518, 51576, 52370], "queries": {"click": {"state": {"target": ["21", "20", "17", "16", "7", "6", "9", "10", "27", "33"], "time": [5796, 8879, 12258, 16486, 21935, 25188, 30080, 34123, 38158, 41512]}, "edge": {"target": [], "time": []}}, "mouseover": {"state": {"target": ["12", "13", "19", "21", "20", "17", "16", "16", "18", "6", "7", "6", "5", "9", "9", "11", "10", "27", "27", "29", "33", "32", "21"], "time": [4037, 4420, 4737, 4986, 6551, 10173, 12984, 13367, 17261, 20901, 21352, 22421, 25736, 28753, 29052, 31402, 33535, 35022, 35330, 38990, 40574, 42055, 46651]}, "edge": {"target": [], "time": []}}, "mouseout": {"state": {"target": ["19", "22", "12", "13", "19", "21", "20", "20", "17", "16", "16", "18", "6", "7", "6", "5", "9", "9", "11", "10", "27", "27", "29", "33", "32", "21"], "time": [486, 669, 4058, 4470, 4820, 6191, 9523, 9696, 12762, 13129, 17205, 20453, 21303, 22210, 25658, 28706, 28774, 31165, 33486, 34705, 35073, 38771, 39885, 41910, 46136, 47550]}, "edge": {"target": [], "time": []}}}, "displayed_time": "52.88", "trialTime": 54025, "trial_type": "mouselab-mdp", "trial_index": 26, "time_elapsed": 1815371, "internal_node_id": "0.0-4.0-1.0-11.0"}}, {"uniqueid": "w96211185:a61749280", "current_trial": 27, "dateTime": 1691072762442, "trialdata": {"revealed_states": [], "clicked_states": ["21", "20", "17", "16", "18", "7", "6", "5", "11", "27", "33", "32"], "num_clicks_accrued": [0, 0, 0, 0, 0, 0, 0, 0, 0, 0, 0, 0, 0], "stateRewards": ["", -1, 2, -6, 6, 43, 78, 78, -2, 55, -29, -17, -2, -4, 1, -15, 13, 7, -79, 8, -28, -68, 36, -1, -3, 3, -16, 84, -18, 87, 10, 32, 13, -81], "withholdReward": false, "trial_id": "mdp_trial_13", "block": "test", "trialIndex": 16, "score": 41.2, "costs": -25.799999999999994, "simulationMode": [null, null, null, null, null], "rewards": [-1, -3, 3, -16, 84], "path": ["0", "0", "23", "24", "25", "26", "27"], "rt": [44675, 243, 136, 823, 219], "actions": ["left", "left", "left", "up", "up"], "actionTimes": [49766, 50536, 51188, 52527, 53278], "queries": {"click": {"state": {"target": ["21", "20", "17", "16", "18", "7", "6", "5", "11", "27", "33", "32"], "time": [6640, 9443, 12706, 16039, 18947, 21914, 24899, 29890, 33646, 37344, 41924, 46146]}, "edge": {"target": [], "time": []}}, "mouseover": {"state": {"target": ["12", "22", "19", "20", "21", "20", "17", "16", "18", "6", "7", "6", "5", "3", "5", "9", "11", "27", "28", "28", "27", "29", "33", "32"], "time": [5589, 5652, 5705, 5784, 6183, 7191, 10322, 13665, 16937, 19890, 20598, 22609, 26272, 29248, 29582, 30722, 32748, 34598, 35190, 35368, 36546, 38188, 40230, 42659]}, "edge": {"target": [], "time": []}}, "mouseout": {"state": {"target": ["13", "13", "18", "14", "12", "0", "12", "22", "19", "20", "21", "20", "17", "16", "18", "6", "7", "6", "5", "3", "5", "9", "11", "27", "28", "28", "27", "29", "33", "32"], "time": [766, 1032, 2766, 3128, 3749, 5584, 5619, 5686, 5750, 6034, 6819, 9901, 13202, 16657, 19136, 20356, 22236, 25985, 28749, 29532, 30388, 32441, 34303, 35120, 35219, 36005, 37734, 39739, 42606, 46470]}, "edge": {"target": [], "time": []}}}, "displayed_time": "53.81", "trialTime": 54715, "trial_type": "mouselab-mdp", "trial_index": 27, "time_elapsed": 1870976, "internal_node_id": "0.0-4.0-1.0-12.0"}}, {"uniqueid": "w96211185:a61749280", "current_trial": 28, "dateTime": 1691072797644, "trialdata": {"revealed_states": [], "clicked_states": ["21", "20"], "num_clicks_accrued": [0, 0, 0, 0, 0, 0, 0, 0, 0, 0, 0, 0, 0], "stateRewards": ["", 1, 2, -3, -6, 50, -7, 7, -7, -80, 21, -1, 2, 2, 4, -1, 33, 84, 1, 14, -53, 81, 6, -2, -2, -3, -9, -87, -38, -59, -5, -74, -3, -71], "withholdReward": false, "trial_id": "mdp_trial_14", "block": "test", "trialIndex": 17, "score": 98.7, "costs": -4.3, "simulationMode": [null, null, null, null, null], "rewards": [2, 2, 4, 14, 81], "path": ["0", "0", "12", "13", "14", "19", "21"], "rt": [19785, 144, 205, 721, 292], "actions": ["right", "right", "right", "down", "down"], "actionTimes": [28233, 28922, 29645, 30904, 31718], "queries": {"click": {"state": {"target": ["21", "20"], "time": [10130, 13710]}, "edge": {"target": [], "time": []}}, "mouseover": {"state": {"target": ["15", "14", "19", "21", "20", "17", "16", "6", "17"], "time": [8943, 9027, 9277, 9777, 10597, 14594, 24260, 26025, 27097]}, "edge": {"target": [], "time": []}}, "mouseout": {"state": {"target": ["16", "16", "18", "15", "14", "19", "21", "21", "20", "17", "16", "6", "17", "17"], "time": [360, 7125, 7209, 8965, 9094, 9410, 10150, 10409, 14183, 24226, 25792, 26943, 27159, 33091]}, "edge": {"target": [], "time": []}}}, "displayed_time": "32.23", "trialTime": 34099, "trial_type": "mouselab-mdp", "trial_index": 28, "time_elapsed": 1906178, "internal_node_id": "0.0-4.0-1.0-13.0"}}, {"uniqueid": "w96211185:a61749280", "current_trial": 29, "dateTime": 1691072833244, "trialdata": {"revealed_states": [], "clicked_states": [], "num_clicks_accrued": [0, 0, 0, 0, 0, 0, 0, 0, 0, 0, 0, 0, 0], "stateRewards": ["", 1, -3, -1, 9, -34, -40, 22, -7, 45, 53, -11, 2, 4, 5, 15, 21, 37, -49, -3, 80, -28, -34, 1, -3, 1, 1, -40, -6, -5, -16, -85, -86, 59], "withholdReward": false, "trial_id": "mdp_trial_15", "block": "test", "trialIndex": 18, "score": 42, "costs": 0, "simulationMode": [null, null, null, null, null], "rewards": [1, -3, 1, -16, 59], "path": ["0", "0", "23", "24", "25", "30", "33"], "rt": [24032, 191, 139, 449, 2782], "actions": ["left", "left", "left", "down", "left"], "actionTimes": [26912, 27623, 28284, 29288, 32598], "queries": {"click": {"state": {"target": [], "time": []}, "edge": {"target": [], "time": []}}, "mouseover": {"state": {"target": ["20", "20", "19", "19", "22", "32", "21", "21", "20", "17", "16", "6", "5", "5", "9", "11", "8", "10", "3", "2", "26", "27", "29", "25", "33", "30", "32"], "time": [3643, 3743, 3827, 4234, 4344, 5177, 5543, 6109, 9093, 10393, 11578, 12559, 13376, 13760, 14676, 15477, 16059, 16659, 17293, 17834, 19126, 19644, 20425, 21142, 21775, 22343, 23110]}, "edge": {"target": [], "time": []}}, "mouseout": {"state": {"target": ["15", "12", "0", "20", "20", "19", "19", "22", "32", "21", "21", "20", "17", "16", "6", "5", "5", "9", "11", "8", "10", "3", "2", "26", "27", "29", "25", "33", "30", "32"], "time": [626, 742, 2901, 3666, 3767, 3927, 4305, 4394, 5343, 5710, 8794, 9994, 11259, 12210, 13300, 13642, 14301, 15226, 15942, 16593, 17226, 17801, 18616, 19609, 20142, 20869, 21709, 22292, 22843, 23759]}, "edge": {"target": [], "time": []}}}, "displayed_time": "33.11", "trialTime": 34466, "trial_type": "mouselab-mdp", "trial_index": 29, "time_elapsed": 1941778, "internal_node_id": "0.0-4.0-1.0-14.0"}}, {"uniqueid": "w96211185:a61749280", "current_trial": 30, "dateTime": 1691072886035, "trialdata": {"revealed_states": [], "clicked_states": ["21", "20", "17", "6", "5", "9", "11", "27", "29", "33", "32", "31"], "num_clicks_accrued": [0, 0, 0, 0, 0, 0, 0, 0, 0, 0, 0, 0, 0], "stateRewards": ["", 2, -1, -2, -5, -47, -57, -33, -11, 31, -18, -72, -2, 1, -4, -8, -46, -53, -50, 15, -85, -9, 39, -2, -2, 1, 14, -1, -8, 53, -12, -41, -74, 62], "withholdReward": false, "trial_id": "mdp_trial_16", "block": "test", "trialIndex": 19, "score": 21.200000000000003, "costs": -25.799999999999994, "simulationMode": [null, null, null, null, null], "rewards": [-2, -2, 1, -12, 62], "path": ["0", "0", "23", "24", "25", "30", "33"], "rt": [42335, 52, 235, 674, 921], "actions": ["left", "left", "left", "down", "left"], "actionTimes": [44888, 45456, 46225, 47435, 48862], "queries": {"click": {"state": {"target": ["21", "20", "17", "6", "5", "9", "11", "27", "29", "33", "32", "31"], "time": [4214, 7590, 10947, 15847, 19179, 22588, 26091, 28937, 32236, 35019, 38529, 42046]}, "edge": {"target": [], "time": []}}, "mouseover": {"state": {"target": ["20", "21", "20", "17", "16", "16", "6", "5", "9", "11", "27", "26", "29", "33", "32", "31"], "time": [3266, 3673, 4650, 8336, 12268, 12631, 15147, 16885, 19819, 23648, 28350, 29868, 30260, 33354, 37434, 40016]}, "edge": {"target": [], "time": []}}, "mouseout": {"state": {"target": ["16", "14", "12", "0", "20", "21", "20", "17", "16", "16", "6", "5", "9", "11", "27", "26", "29", "33", "32", "31"], "time": [247, 763, 1196, 2588, 3332, 4597, 8020, 11835, 12561, 14480, 16535, 19621, 23378, 28095, 29740, 29999, 32728, 36691, 39745, 43306]}, "edge": {"target": [], "time": []}}}, "displayed_time": "49.37", "trialTime": 51697, "trial_type": "mouselab-mdp", "trial_index": 30, "time_elapsed": 1994569, "internal_node_id": "0.0-4.0-1.0-15.0"}}, {"uniqueid": "w96211185:a61749280", "current_trial": 31, "dateTime": 1691072946843, "trialdata": {"revealed_states": [], "clicked_states": ["21", "20", "17", "16", "6", "5", "9", "11", "29", "33", "31", "28"], "num_clicks_accrued": [0, 0, 0, 0, 0, 0, 0, 0, 0, 0, 0, 0, 0], "stateRewards": ["", 1, 1, 6, -14, -40, 37, 16, -13, 33, -68, 49, 2, 4, 3, 6, 55, 27, 32, 10, -65, 20, -87, 2, 1, -6, -5, -42, 12, 29, -8, 16, 76, -33], "withholdReward": false, "trial_id": "mdp_trial_17", "block": "test", "trialIndex": 20, "score": 44.2, "costs": -25.799999999999994, "simulationMode": [null, null, null, null, null], "rewards": [2, 4, 3, 6, 55], "path": ["0", "0", "12", "13", "14", "15", "16"], "rt": [47442, 90, 469, 923, 509], "actions": ["right", "right", "right", "up", "up"], "actionTimes": [53535, 54141, 55121, 56558, 57577], "queries": {"click": {"state": {"target": ["21", "20", "17", "16", "6", "5", "9", "11", "29", "33", "31", "28"], "time": [8018, 11412, 14674, 18515, 23348, 28288, 31148, 34610, 37732, 40608, 45416, 48407]}, "edge": {"target": [], "time": []}}, "mouseover": {"state": {"target": ["16", "19", "21", "20", "17", "16", "6", "5", "9", "9", "11", "27", "29", "33", "32", "30", "31", "24", "23", "28"], "time": [6361, 7096, 7394, 8737, 12276, 15597, 22043, 24132, 28947, 29267, 32239, 35493, 36210, 39200, 41723, 44058, 44297, 46264, 46745, 47974]}, "edge": {"target": [], "time": []}}, "mouseout": {"state": {"target": ["31", "13", "15", "17", "4", "7", "0", "16", "19", "21", "20", "17", "16", "6", "5", "9", "9", "11", "27", "29", "33", "32", "30", "31", "24", "23", "28"], "time": [49, 1793, 3643, 3743, 4693, 4826, 6112, 6411, 7185, 8333, 11783, 15275, 21963, 23756, 28782, 29018, 31922, 35285, 35645, 38940, 41491, 43692, 44079, 46233, 46342, 47613, 48889]}, "edge": {"target": [], "time": []}}}, "displayed_time": "58.10", "trialTime": 59773, "trial_type": "mouselab-mdp", "trial_index": 31, "time_elapsed": 2055377, "internal_node_id": "0.0-4.0-1.0-16.0"}}, {"uniqueid": "w96211185:a61749280", "current_trial": 32, "dateTime": 1691072983263, "trialdata": {"revealed_states": [], "clicked_states": ["21", "20", "16"], "num_clicks_accrued": [0, 0, 0, 0, 0, 0, 0, 0, 0, 0, 0, 0, 0], "stateRewards": ["", -1, -3, -5, -14, -13, -47, 79, 8, -60, -64, 41, -1, 2, 3, 13, -46, 61, -79, -11, -64, -65, 23, 1, -2, 6, -14, 46, 32, 21, 7, 75, -66, 15], "withholdReward": false, "trial_id": "mdp_trial_18", "block": "test", "trialIndex": 21, "score": 49.55, "costs": -6.449999999999999, "simulationMode": [null, null, null, null, null], "rewards": [-1, -3, -5, -14, 79], "path": ["0", "0", "1", "2", "3", "4", "7"], "rt": [22948, 388, 370, 831, 656], "actions": ["up", "up", "up", "right", "down"], "actionTimes": [28874, 29773, 30651, 31996, 33161], "queries": {"click": {"state": {"target": ["21", "20", "16"], "time": [7815, 11704, 16163]}, "edge": {"target": [], "time": []}}, "mouseover": {"state": {"target": ["21", "21", "21", "20", "17", "16", "17", "15", "18", "22", "13", "18", "6", "5", "6"], "time": [6640, 6923, 7356, 8589, 12557, 14085, 16941, 19839, 20555, 21622, 23222, 23277, 23755, 25109, 25905]}, "edge": {"target": [], "time": []}}, "mouseout": {"state": {"target": ["10", "2", "12", "0", "21", "21", "21", "20", "17", "16", "17", "15", "18", "22", "13", "18", "6", "5", "6"], "time": [673, 823, 1306, 6440, 6662, 6946, 8261, 12091, 13370, 16514, 19773, 20355, 21089, 23155, 23255, 23339, 24905, 25805, 25939]}, "edge": {"target": [], "time": []}}}, "displayed_time": "33.67", "trialTime": 34876, "trial_type": "mouselab-mdp", "trial_index": 32, "time_elapsed": 2091797, "internal_node_id": "0.0-4.0-1.0-17.0"}}, {"uniqueid": "w96211185:a61749280", "current_trial": 33, "dateTime": 1691073018346, "trialdata": {"revealed_states": [], "clicked_states": ["21", "17"], "num_clicks_accrued": [0, 0, 0, 0, 0, 0, 0, 0, 0, 0, 0, 0, 0], "stateRewards": ["", -1, 4, 3, 12, -27, 34, -33, 3, -63, 1, 6, 2, 2, -6, -11, -77, -85, 68, -6, 51, 81, -60, -2, -2, 1, 15, 20, 15, 68, -10, -14, 6, -4], "withholdReward": false, "trial_id": "mdp_trial_19", "block": "test", "trialIndex": 22, "score": -31.3, "costs": -4.3, "simulationMode": [null, null, null, null, null], "rewards": [-2, -2, 1, -10, -14], "path": ["0", "0", "23", "24", "25", "30", "31"], "rt": [21822, 366, 406, 744, 739], "actions": ["left", "left", "left", "down", "right"], "actionTimes": [25618, 26502, 27446, 28699, 29971], "queries": {"click": {"state": {"target": ["21", "17"], "time": [5365, 8737]}, "edge": {"target": [], "time": []}}, "mouseover": {"state": {"target": ["21", "20", "17", "16", "6", "5", "9", "11", "27", "29", "33", "33", "32"], "time": [4758, 5860, 8357, 9642, 14907, 16383, 17939, 19213, 20289, 21106, 21840, 22473, 23523]}, "edge": {"target": [], "time": []}}, "mouseout": {"state": {"target": ["13", "12", "0", "0", "21", "20", "17", "16", "6", "5", "9", "11", "27", "29", "33", "33", "32"], "time": [1756, 1906, 2657, 3206, 5830, 7872, 9219, 14674, 16022, 17173, 18907, 19973, 20922, 21706, 21875, 23191, 24206]}, "edge": {"target": [], "time": []}}}, "displayed_time": "30.48", "trialTime": 34029, "trial_type": "mouselab-mdp", "trial_index": 33, "time_elapsed": 2126880, "internal_node_id": "0.0-4.0-1.0-18.0"}}, {"uniqueid": "w96211185:a61749280", "current_trial": 34, "dateTime": 1691073051139, "trialdata": {"revealed_states": [], "clicked_states": ["21", "17", "16", "5", "11", "33", "31"], "num_clicks_accrued": [0, 0, 0, 0, 0, 0, 0, 0, 0, 0, 0, 0, 0], "stateRewards": ["", -2, 1, -5, 2, -68, 80, 33, 10, 67, -59, 20, -1, -3, 3, 14, 74, -2, 24, -16, 63, 80, 46, -1, 4, 6, 12, 83, -38, -43, -4, 43, 14, -79], "withholdReward": false, "trial_id": "mdp_trial_20", "block": "test", "trialIndex": 23, "score": 47.95, "costs": -15.05, "simulationMode": [null, null, null, null, null, null], "rewards": [-1, -3, 3, -16, 80], "path": ["0", "0", "12", "13", "14", "19", "21"], "rt": [24301, 189, 87, 394, 555, 473], "actions": ["right", "right", "right", "right", "down", "down"], "actionTimes": [26265, 26465, 27077, 28015, 29101, 30101], "queries": {"click": {"state": {"target": ["21", "17", "16", "5", "11", "33", "31"], "time": [4042, 7068, 9874, 12722, 16448, 20717, 24319]}, "edge": {"target": [], "time": []}}, "mouseover": {"state": {"target": ["13", "22", "19", "21", "20", "17", "16", "6", "5", "9", "11", "27", "27", "29", "33", "32", "31", "21"], "time": [2675, 2775, 2957, 3357, 4663, 7047, 7652, 11278, 12413, 14085, 16023, 17400, 17659, 18694, 20422, 21181, 22774, 25488]}, "edge": {"target": [], "time": []}}, "mouseout": {"state": {"target": ["12", "0", "13", "22", "19", "21", "20", "17", "16", "6", "5", "9", "11", "27", "27", "29", "33", "32", "31", "21"], "time": [724, 1984, 2712, 2809, 3124, 4284, 6405, 7413, 10414, 12122, 13646, 15623, 17224, 17479, 18330, 20006, 21055, 22513, 25122, 26945]}, "edge": {"target": [], "time": []}}}, "displayed_time": "30.62", "trialTime": 31708, "trial_type": "mouselab-mdp", "trial_index": 34, "time_elapsed": 2159673, "internal_node_id": "0.0-4.0-1.0-19.0"}}, {"uniqueid": "w96211185:a61749280", "current_trial": 35, "dateTime": 1691073088732, "trialdata": {"revealed_states": [], "clicked_states": ["21", "20", "16", "17", "5"], "num_clicks_accrued": [0, 0, 0, 0, 0, 0, 0, 0, 0, 0, 0, 0, 0], "stateRewards": ["", 1, 2, -3, -5, 66, -50, -47, -5, 1, 28, -27, 1, 1, -1, -6, 37, -25, 56, 1, -82, -66, -40, -1, -4, -7, 15, -61, -23, 26, 10, 14, -56, 29], "withholdReward": false, "trial_id": "mdp_trial_21", "block": "test", "trialIndex": 24, "score": 50.25, "costs": -10.75, "simulationMode": [null, null, null, null, null], "rewards": [1, 2, -3, -5, 66], "path": ["0", "0", "1", "2", "3", "4", "5"], "rt": [28391, 141, 25, 693, 893], "actions": ["up", "up", "up", "right", "up"], "actionTimes": [31152, 31822, 32366, 33584, 35008], "queries": {"click": {"state": {"target": ["21", "20", "16", "17", "5"], "time": [4131, 8330, 12627, 15990, 19762]}, "edge": {"target": [], "time": []}}, "mouseover": {"state": {"target": ["18", "14", "21", "20", "17", "16", "17", "5", "6", "9", "11", "27", "29", "24"], "time": [2788, 3307, 3775, 4633, 9025, 11975, 13499, 17325, 20456, 21997, 25490, 26923, 28606, 29890]}, "edge": {"target": [], "time": []}}, "mouseout": {"state": {"target": ["19", "14", "15", "18", "18", "14", "21", "20", "17", "16", "17", "5", "6", "9", "11", "27", "29"], "time": [640, 1207, 1307, 1456, 2957, 3342, 4527, 8632, 11907, 13159, 16802, 20063, 21511, 25190, 26806, 28323, 29740]}, "edge": {"target": [], "time": []}}}, "displayed_time": "35.53", "trialTime": 36522, "trial_type": "mouselab-mdp", "trial_index": 35, "time_elapsed": 2197266, "internal_node_id": "0.0-4.0-1.0-20.0"}}, {"uniqueid": "w96211185:a61749280", "current_trial": 36, "dateTime": 1691073124217, "trialdata": {"revealed_states": [], "clicked_states": ["21", "17", "5", "11", "29", "32"], "num_clicks_accrued": [0, 0, 0, 0, 0, 0, 0, 0, 0, 0, 0, 0, 0], "stateRewards": ["", 2, -4, 1, -12, -59, -53, -74, 16, -88, -66, 66, 1, -2, 8, -9, -14, 22, 25, -1, -39, 47, -14, -1, -1, -2, 1, -4, 52, -26, 15, -7, 46, 43], "withholdReward": false, "trial_id": "mdp_trial_22", "block": "test", "trialIndex": 25, "score": 68.1, "costs": -12.9, "simulationMode": [null, null, null, null, null], "rewards": [2, -4, 1, 16, 66], "path": ["0", "0", "1", "2", "3", "8", "11"], "rt": [26881, 272, 201, 642, 276], "actions": ["up", "up", "up", "left", "left"], "actionTimes": [29210, 30003, 30714, 31891, 32688], "queries": {"click": {"state": {"target": ["21", "17", "5", "11", "29", "32"], "time": [4471, 8550, 13709, 16948, 21325, 24818]}, "edge": {"target": [], "time": []}}, "mouseover": {"state": {"target": ["12", "19", "20", "21", "20", "17", "16", "6", "5", "5", "9", "11", "27", "29", "33", "32", "31", "11"], "time": [3441, 3624, 3675, 3957, 5005, 8059, 9230, 10909, 12690, 13141, 14775, 16525, 18976, 19989, 22176, 24191, 25346, 27345]}, "edge": {"target": [], "time": []}}, "mouseout": {"state": {"target": ["16", "0", "12", "19", "20", "21", "20", "17", "16", "6", "5", "5", "9", "11", "27", "29", "33", "32", "31", "11"], "time": [773, 2362, 3557, 3644, 3857, 4955, 7407, 9027, 10780, 11924, 12956, 14228, 16248, 17564, 19922, 21774, 23844, 25069, 26981, 27400]}, "edge": {"target": [], "time": []}}}, "displayed_time": "33.20", "trialTime": 34159, "trial_type": "mouselab-mdp", "trial_index": 36, "time_elapsed": 2232751, "internal_node_id": "0.0-4.0-1.0-21.0"}}, {"uniqueid": "w96211185:a61749280", "current_trial": 37, "dateTime": 1691073203273, "trialdata": {"revealed_states": [], "clicked_states": ["21", "20", "17", "16", "6", "5", "9", "11", "29", "33", "32", "31", "28", "10", "12"], "num_clicks_accrued": [0, 0, 0, 0, 0, 0, 0, 0, 0, 0, 0, 0, 0], "stateRewards": ["", 2, -4, 4, 9, 69, 9, -75, 12, -86, 66, 25, -1, 3, 2, -13, -88, -3, 1, 4, -69, 49, -84, 2, -1, 4, 2, -18, -81, -52, -15, -69, -54, 25], "withholdReward": false, "trial_id": "mdp_trial_23", "block": "test", "trialIndex": 26, "score": 50.150000000000006, "costs": -29.84999999999999, "simulationMode": [null, null, null, null, null], "rewards": [2, -4, 4, 9, 69], "path": ["0", "0", "1", "2", "3", "4", "5"], "rt": [59081, 69, 240, 940, 557], "actions": ["up", "up", "up", "right", "up"], "actionTimes": [63956, 64547, 65321, 66814, 67891], "queries": {"click": {"state": {"target": ["21", "20", "17", "16", "6", "5", "9", "11", "29", "33", "32", "31", "28", "10", "12"], "time": [6382, 11583, 14976, 18070, 21649, 25004, 28097, 33632, 37941, 41157, 44242, 47398, 50198, 53778, 58756]}, "edge": {"target": [], "time": []}}, "mouseover": {"state": {"target": ["13", "22", "21", "20", "17", "20", "17", "16", "6", "5", "9", "11", "27", "29", "33", "32", "31", "24", "28", "10", "2", "7", "12", "12"], "time": [5569, 5640, 6003, 6891, 10286, 11019, 12484, 15999, 19671, 22928, 25606, 31951, 34818, 37601, 38731, 41651, 45210, 47999, 48040, 50987, 54493, 54892, 57767, 58449]}, "edge": {"target": [], "time": []}}, "mouseout": {"state": {"target": ["13", "12", "0", "0", "13", "22", "21", "20", "17", "20", "17", "16", "6", "5", "9", "9", "11", "27", "29", "33", "32", "31", "24", "28", "10", "2", "7", "12", "12", "19", "19"], "time": [326, 619, 1169, 4925, 5620, 5703, 6403, 9753, 10686, 11986, 15787, 19321, 22624, 25524, 28269, 31623, 34560, 37318, 38437, 41589, 44949, 47972, 48036, 50710, 54388, 54703, 57683, 57801, 60350, 70032, 71965]}, "edge": {"target": [], "time": []}}}, "displayed_time": "68.42", "trialTime": 77896, "trial_type": "mouselab-mdp", "trial_index": 37, "time_elapsed": 2311807, "internal_node_id": "0.0-4.0-1.0-22.0"}}, {"uniqueid": "w96211185:a61749280", "current_trial": 38, "dateTime": 1691073268133, "trialdata": {"revealed_states": [], "clicked_states": ["21", "20", "17", "16", "6", "5", "9", "11", "27", "29", "33"], "num_clicks_accrued": [0, 0, 0, 0, 0, 0, 0, 0, 0, 0, 0, 0, 0], "stateRewards": ["", 2, -3, 5, -14, -63, -9, -24, -11, -54, -43, 68, 2, -2, -4, 7, -64, 30, 47, 12, -74, 11, 86, 1, -3, 3, 10, -71, -42, -52, -1, -29, -16, 69], "withholdReward": false, "trial_id": "mdp_trial_24", "block": "test", "trialIndex": 27, "score": 37.35000000000001, "costs": -23.649999999999995, "simulationMode": [null, null, null, null, null], "rewards": [2, -3, 5, -11, 68], "path": ["0", "0", "1", "2", "3", "8", "11"], "rt": [46066, 22, 122, 2888, 446], "actions": ["up", "up", "up", "left", "left"], "actionTimes": [56067, 56635, 57296, 60702, 61670], "queries": {"click": {"state": {"target": ["21", "20", "17", "16", "6", "5", "9", "11", "27", "29", "33"], "time": [11907, 16069, 19471, 22563, 25393, 29856, 33790, 37032, 42628, 47640, 51049]}, "edge": {"target": [], "time": []}}, "mouseover": {"state": {"target": ["13", "19", "21", "20", "17", "16", "6", "5", "5", "6", "5", "9", "11", "27", "29", "33", "11", "10", "1"], "time": [10371, 10655, 11371, 12641, 16601, 20397, 23653, 23824, 24363, 24809, 26341, 30521, 34650, 37788, 43161, 48200, 52651, 54552, 55084]}, "edge": {"target": [], "time": []}}, "mouseout": {"state": {"target": ["19", "20", "14", "13", "19", "21", "20", "17", "16", "6", "5", "5", "6", "5", "9", "11", "27", "29", "33", "11", "10", "1"], "time": [805, 6287, 8587, 10571, 10721, 12464, 16519, 20236, 23453, 23711, 24062, 24518, 25843, 30333, 34358, 37405, 43004, 48066, 51926, 54502, 54588, 55119]}, "edge": {"target": [], "time": []}}}, "displayed_time": "62.19", "trialTime": 63880, "trial_type": "mouselab-mdp", "trial_index": 38, "time_elapsed": 2376667, "internal_node_id": "0.0-4.0-1.0-23.0"}}, {"uniqueid": "w96211185:a61749280", "current_trial": 39, "dateTime": 1691073304783, "trialdata": {"revealed_states": [], "clicked_states": [], "num_clicks_accrued": [0, 0, 0, 0, 0, 0, 0, 0, 0, 0, 0, 0, 0], "stateRewards": ["", -2, -4, -8, 8, 63, -50, -19, -7, -17, -31, 31, 1, 3, -5, 12, -35, -63, -29, -4, -17, -75, -79, -2, -3, -2, 8, -3, -85, 10, -2, -82, -82, 56], "withholdReward": false, "trial_id": "mdp_trial_25", "block": "test", "trialIndex": 28, "score": 11, "costs": 0, "simulationMode": [null, null, null, null, null], "rewards": [-2, -3, -2, 8, 10], "path": ["0", "0", "23", "24", "25", "26", "29"], "rt": [22580, 336, 351, 520, 445], "actions": ["left", "left", "left", "up", "left"], "actionTimes": [29978, 30859, 31756, 32809, 33778], "queries": {"click": {"state": {"target": [], "time": []}, "edge": {"target": [], "time": []}}, "mouseover": {"state": {"target": ["12", "31", "30", "33", "33", "30", "21", "20", "21", "20", "17", "16", "6", "4", "6", "5", "9", "11", "10", "2", "7", "7", "2", "27", "29", "33", "32", "32", "31", "24", "28", "23"], "time": [7550, 8107, 8177, 8408, 8843, 8941, 9123, 9273, 9907, 12540, 13378, 14156, 15092, 15207, 15623, 16424, 17007, 18106, 18856, 19590, 19661, 20139, 20562, 20640, 21473, 22307, 22916, 23316, 23956, 24458, 24823, 25424]}, "edge": {"target": [], "time": []}}, "mouseout": {"state": {"target": ["1", "15", "17", "17", "16", "18", "12", "0", "12", "31", "30", "33", "33", "30", "21", "20", "21", "20", "17", "16", "6", "4", "6", "5", "9", "11", "10", "2", "7", "7", "2", "27", "29", "33", "32", "32", "31", "24", "28", "23"], "time": [2090, 2157, 2273, 5183, 5907, 6006, 6140, 6573, 7991, 8142, 8324, 8444, 8891, 8977, 9191, 9740, 12241, 13257, 14007, 15041, 15141, 15440, 16373, 16924, 17873, 18639, 19389, 19626, 19873, 20557, 20594, 21273, 21921, 22874, 23090, 23609, 24423, 24523, 25373, 25474]}, "edge": {"target": [], "time": []}}}, "displayed_time": "34.33", "trialTime": 35572, "trial_type": "mouselab-mdp", "trial_index": 39, "time_elapsed": 2413317, "internal_node_id": "0.0-4.0-1.0-24.0"}}, {"uniqueid": "w96211185:a61749280", "current_trial": 40, "dateTime": 1691073325489, "trialdata": {"revealed_states": [], "clicked_states": ["21", "20"], "num_clicks_accrued": [0, 0, 0, 0, 0, 0, 0, 0, 0, 0, 0, 0, 0], "stateRewards": ["", -2, -3, 7, -13, 60, 9, 37, -6, 37, 20, 1, 2, -2, -8, 6, -80, -31, -10, -7, 70, -65, -44, -1, 1, 7, 6, -11, 73, -85, 16, -21, 47, 34], "withholdReward": false, "trial_id": "mdp_trial_26", "block": "test", "trialIndex": 29, "score": 50.7, "costs": -4.3, "simulationMode": [null, null, null, null, null], "rewards": [2, -2, -8, -7, 70], "path": ["0", "0", "12", "13", "14", "19", "20"], "rt": [11487, 71, 766, 618, 626], "actions": ["right", "right", "right", "down", "right"], "actionTimes": [13968, 14548, 15836, 16956, 18129], "queries": {"click": {"state": {"target": ["21", "20"], "time": [4807, 7985]}, "edge": {"target": [], "time": []}}, "mouseover": {"state": {"target": ["12", "19", "19", "20", "20", "21", "20", "17"], "time": [2897, 3029, 3596, 3780, 4035, 4430, 5788, 8749]}, "edge": {"target": [], "time": []}}, "mouseout": {"state": {"target": ["13", "13", "12", "0", "12", "19", "19", "20", "20", "21", "20", "17"], "time": [463, 1079, 1329, 1845, 2933, 3146, 3664, 3816, 4149, 5100, 8408, 13647]}, "edge": {"target": [], "time": []}}}, "displayed_time": "18.65", "trialTime": 19569, "trial_type": "mouselab-mdp", "trial_index": 40, "time_elapsed": 2434023, "internal_node_id": "0.0-4.0-1.0-25.0"}}, {"uniqueid": "w96211185:a61749280", "current_trial": 41, "dateTime": 1691073363223, "trialdata": {"revealed_states": [], "clicked_states": ["17", "5", "9", "29", "32"], "num_clicks_accrued": [0, 0, 0, 0, 0, 0, 0, 0, 0, 0, 0, 0, 0], "stateRewards": ["", 1, 4, 7, -16, -84, -6, -46, -12, -7, -49, -26, -1, 2, -4, 2, 22, 37, -64, 1, 88, -13, -10, 1, -4, -2, 5, 2, -10, -34, 9, 66, 55, 38], "withholdReward": false, "trial_id": "mdp_trial_27", "block": "test", "trialIndex": 30, "score": 48.25, "costs": -10.75, "simulationMode": [null, null, null, null, null], "rewards": [1, -4, -2, 9, 55], "path": ["0", "0", "23", "24", "25", "30", "32"], "rt": [26445, 45, 64, 866, 115], "actions": ["left", "left", "left", "down", "down"], "actionTimes": [28454, 29042, 29657, 31044, 31710], "queries": {"click": {"state": {"target": ["17", "5", "9", "29", "32"], "time": [4953, 8480, 12870, 17447, 22759]}, "edge": {"target": [], "time": []}}, "mouseover": {"state": {"target": ["20", "17", "5", "9", "11", "27", "27", "11", "9", "11", "26", "29", "33", "33", "32", "32"], "time": [3395, 4395, 6174, 9252, 9762, 10775, 11543, 11695, 12495, 13550, 13925, 14795, 18082, 18331, 20693, 21376]}, "edge": {"target": [], "time": []}}, "mouseout": {"state": {"target": ["17", "13", "12", "0", "20", "17", "5", "9", "11", "27", "27", "11", "9", "11", "26", "29", "33", "33", "32", "32", "32", "18", "15", "17", "17", "17"], "time": [645, 685, 717, 1111, 4044, 5348, 9084, 9630, 10426, 11371, 11595, 11879, 13449, 13593, 14046, 18034, 18265, 20442, 20744, 22896, 23157, 34009, 34034, 34193, 34401, 35475]}, "edge": {"target": [], "time": []}}}, "displayed_time": "32.26", "trialTime": 36501, "trial_type": "mouselab-mdp", "trial_index": 41, "time_elapsed": 2471757, "internal_node_id": "0.0-4.0-1.0-26.0"}}, {"uniqueid": "w96211185:a61749280", "current_trial": 42, "dateTime": 1691073383492, "trialdata": {"revealed_states": [], "clicked_states": ["21", "20"], "num_clicks_accrued": [0, 0, 0, 0, 0, 0, 0, 0, 0, 0, 0, 0, 0], "stateRewards": ["", 1, -1, 4, 5, -32, 18, 20, 6, -88, -74, 9, -2, 1, -2, -14, 34, -77, -38, -1, 80, -36, 73, 2, 3, -8, 10, -48, -73, -71, -11, -22, 20, 54], "withholdReward": false, "trial_id": "mdp_trial_28", "block": "test", "trialIndex": 31, "score": 71.7, "costs": -4.3, "simulationMode": [null, null, null, null, null], "rewards": [-2, 1, -2, -1, 80], "path": ["0", "0", "12", "13", "14", "19", "20"], "rt": [10541, 75, 274, 636, 639], "actions": ["right", "right", "right", "down", "right"], "actionTimes": [13025, 13652, 14450, 15608, 16772], "queries": {"click": {"state": {"target": ["21", "20"], "time": [4728, 8024]}, "edge": {"target": [], "time": []}}, "mouseover": {"state": {"target": ["21", "20", "20", "17"], "time": [4271, 5145, 5675, 8424]}, "edge": {"target": [], "time": []}}, "mouseout": {"state": {"target": ["14", "13", "0", "21", "20", "20", "17"], "time": [737, 787, 1503, 4993, 5205, 8338, 11904]}, "edge": {"target": [], "time": []}}}, "displayed_time": "17.29", "trialTime": 19200, "trial_type": "mouselab-mdp", "trial_index": 42, "time_elapsed": 2492026, "internal_node_id": "0.0-4.0-1.0-27.0"}}, {"uniqueid": "w96211185:a61749280", "current_trial": 43, "dateTime": 1691073424016, "trialdata": {"revealed_states": [], "clicked_states": ["20", "17", "5", "9", "29", "33"], "num_clicks_accrued": [0, 0, 0, 0, 0, 0, 0, 0, 0, 0, 0, 0, 0], "stateRewards": ["", -2, -3, -5, 8, 27, 11, 43, -6, -24, -87, 69, -2, 1, 1, 9, 19, 48, -37, 9, -14, 45, 62, 1, 2, 1, 16, -81, -41, 22, 4, -6, -63, 47], "withholdReward": false, "trial_id": "mdp_trial_29", "block": "test", "trialIndex": 32, "score": 44.1, "costs": -12.9, "simulationMode": [null, null, null, null, null], "rewards": [-2, 1, 1, 9, 48], "path": ["0", "0", "12", "13", "14", "15", "17"], "rt": [28670, 76, 40, 1124, 528], "actions": ["right", "right", "right", "up", "right"], "actionTimes": [33895, 34526, 35080, 36747, 37815], "queries": {"click": {"state": {"target": ["20", "17", "5", "9", "29", "33"], "time": [7015, 11031, 16591, 20139, 24548, 28513]}, "edge": {"target": [], "time": []}}, "mouseover": {"state": {"target": ["0", "20", "17", "6", "5", "9", "11", "27", "26", "29", "33"], "time": [5253, 6616, 7522, 11673, 12838, 17728, 20618, 20831, 21038, 21330, 25396]}, "edge": {"target": [], "time": []}}, "mouseout": {"state": {"target": ["18", "0", "20", "17", "6", "5", "9", "11", "27", "26", "29", "33"], "time": [3815, 5266, 7040, 11552, 12734, 17182, 20553, 20651, 20896, 21206, 24890, 31782]}, "edge": {"target": [], "time": []}}}, "displayed_time": "38.33", "trialTime": 39338, "trial_type": "mouselab-mdp", "trial_index": 43, "time_elapsed": 2532550, "internal_node_id": "0.0-4.0-1.0-28.0"}}, {"uniqueid": "w96211185:a61749280", "current_trial": 44, "dateTime": 1691073471609, "trialdata": {"revealed_states": [], "clicked_states": ["20", "17", "5", "9"], "num_clicks_accrued": [0, 0, 0, 0, 0, 0, 0, 0, 0, 0, 0, 0, 0], "stateRewards": ["", 1, -1, 1, -14, -10, 67, -28, -11, 72, 40, -65, -1, 1, 1, -2, 8, -55, 34, -10, 61, 33, -15, 2, -4, 7, 4, -75, 63, -21, -16, 61, 19, 21], "withholdReward": false, "trial_id": "mdp_trial_30", "block": "test", "trialIndex": 33, "score": 53.4, "costs": -8.6, "simulationMode": [null, null, null, null, null], "rewards": [1, -1, 1, -11, 72], "path": ["0", "0", "1", "2", "3", "8", "9"], "rt": [33417, 111, 56, 1040, 785], "actions": ["up", "up", "up", "left", "up"], "actionTimes": [40719, 41399, 41980, 43541, 44828], "queries": {"click": {"state": {"target": ["20", "17", "5", "9"], "time": [9127, 12831, 17071, 20363]}, "edge": {"target": [], "time": []}}, "mouseover": {"state": {"target": ["15", "20", "17", "5", "5", "9", "11", "27", "29", "26", "9", "9", "29", "25", "26", "10", "2"], "time": [7511, 8502, 9892, 16319, 16403, 17892, 20909, 21200, 21570, 24869, 27718, 28302, 37067, 38001, 39001, 39101, 39176]}, "edge": {"target": [], "time": []}}, "mouseout": {"state": {"target": ["12", "15", "18", "12", "0", "0", "15", "20", "17", "5", "5", "9", "11", "27", "29", "26", "9", "9", "29", "25", "26", "10", "2"], "time": [584, 685, 1202, 1318, 1918, 6452, 8086, 9585, 13426, 16356, 17588, 20822, 21026, 21373, 24834, 27618, 27769, 36534, 37884, 38900, 39037, 39138, 39202]}, "edge": {"target": [], "time": []}}}, "displayed_time": "45.34", "trialTime": 46421, "trial_type": "mouselab-mdp", "trial_index": 44, "time_elapsed": 2580144, "internal_node_id": "0.0-4.0-1.0-29.0"}}, {"uniqueid": "w96211185:a61749280", "current_trial": 45, "dateTime": 1691073500557, "trialdata": {"revealed_states": [], "clicked_states": ["20", "17", "5"], "num_clicks_accrued": [0, 0, 0, 0, 0, 0, 0, 0, 0, 0, 0, 0, 0], "stateRewards": ["", 1, 1, -3, 7, 49, 78, 26, -5, 26, 48, -43, -1, -3, 2, -5, 4, -1, -60, 10, -35, 51, 81, -2, 1, -7, -5, -39, -86, -54, 4, -3, 74, 77], "withholdReward": false, "trial_id": "mdp_trial_31", "block": "test", "trialIndex": 34, "score": 48.55, "costs": -6.449999999999999, "simulationMode": [null, null, null, null, null], "rewards": [1, 1, -3, 7, 49], "path": ["0", "0", "1", "2", "3", "4", "5"], "rt": [16787, 74, 16, 762, 740], "actions": ["up", "up", "up", "right", "up"], "actionTimes": [21747, 22350, 22883, 24180, 25449], "queries": {"click": {"state": {"target": ["20", "17", "5"], "time": [6294, 10392, 15095]}, "edge": {"target": [], "time": []}}, "mouseover": {"state": {"target": ["15", "20", "17", "6", "5", "4", "7", "3", "8"], "time": [5243, 5675, 7217, 14008, 14617, 19062, 19341, 19558, 20111]}, "edge": {"target": [], "time": []}}, "mouseout": {"state": {"target": ["17", "14", "13", "12", "15", "20", "17", "6", "5", "5", "4", "7", "3", "8"], "time": [3075, 3224, 3591, 3641, 5492, 6672, 11527, 14158, 15351, 18834, 19215, 19475, 19689, 20167]}, "edge": {"target": [], "time": []}}}, "displayed_time": "25.97", "trialTime": 27544, "trial_type": "mouselab-mdp", "trial_index": 45, "time_elapsed": 2609091, "internal_node_id": "0.0-4.0-1.0-30.0"}}, {"uniqueid": "w96211185:a61749280", "current_trial": 46, "dateTime": 1691073527658, "trialdata": {"revealed_states": [], "clicked_states": [], "num_clicks_accrued": [0, 0, 0, 0, 0, 0, 0, 0, 0, 0, 0, 0, 0], "stateRewards": ["", 1, -4, -4, 8, 1, -79, 68, -10, -79, 8, -74, -1, -3, -6, 14, 43, 23, 9, 5, -51, 63, 61, -2, 4, 6, -10, 69, -32, 57, 15, -80, -80, -77], "withholdReward": false, "trial_id": "mdp_trial_32", "block": "test", "trialIndex": 35, "score": -54, "costs": 0, "simulationMode": [null, null, null, null, null], "rewards": [-2, 4, 6, 15, -77], "path": ["0", "0", "23", "24", "25", "30", "33"], "rt": [12315, 200, 415, 724, 1441], "actions": ["left", "left", "left", "down", "left"], "actionTimes": [17831, 18518, 19471, 20701, 22770], "queries": {"click": {"state": {"target": [], "time": []}, "edge": {"target": [], "time": []}}, "mouseover": {"state": {"target": ["20", "21", "20", "17", "6", "5", "9", "11", "27", "29", "33"], "time": [6515, 6948, 7665, 10698, 11848, 12381, 13714, 14251, 14547, 14920, 15797]}, "edge": {"target": [], "time": []}}, "mouseout": {"state": {"target": ["16", "0", "20", "21", "20", "17", "6", "5", "9", "11", "27", "29", "33", "12", "18", "15"], "time": [3497, 4513, 6599, 7598, 10615, 11264, 12115, 13216, 14198, 14298, 14681, 15431, 16886, 24346, 24479, 24530]}, "edge": {"target": [], "time": []}}}, "displayed_time": "23.28", "trialTime": 25456, "trial_type": "mouselab-mdp", "trial_index": 46, "time_elapsed": 2636192, "internal_node_id": "0.0-4.0-1.0-31.0"}}, {"uniqueid": "w96211185:a61749280", "current_trial": 47, "dateTime": 1691073546177, "trialdata": {"revealed_states": [], "clicked_states": ["20"], "num_clicks_accrued": [0, 0, 0, 0, 0, 0, 0, 0, 0, 0, 0, 0, 0], "stateRewards": ["", -2, 4, -7, -3, -76, 39, -28, 10, 14, 12, 60, 2, -3, 6, -10, 88, -34, -41, -3, 72, -13, -56, 1, 3, 2, 8, -51, 23, -57, 1, 14, -46, -16], "withholdReward": false, "trial_id": "mdp_trial_33", "block": "test", "trialIndex": 36, "score": 71.85, "costs": -2.15, "simulationMode": [null, null, null, null, null], "rewards": [2, -3, 6, -3, 72], "path": ["0", "0", "12", "13", "14", "19", "20"], "rt": [7969, 56, 505, 744, 645], "actions": ["right", "right", "right", "down", "right"], "actionTimes": [10387, 10980, 12037, 13300, 14454], "queries": {"click": {"state": {"target": ["20"], "time": [5355]}, "edge": {"target": [], "time": []}}, "mouseover": {"state": {"target": ["17", "20", "17"], "time": [2960, 3660, 6401]}, "edge": {"target": [], "time": []}}, "mouseout": {"state": {"target": ["19", "13", "12", "0", "17", "20"], "time": [376, 708, 1041, 2546, 2997, 5749]}, "edge": {"target": [], "time": []}}}, "displayed_time": "16.42", "trialTime": 17069, "trial_type": "mouselab-mdp", "trial_index": 47, "time_elapsed": 2654711, "internal_node_id": "0.0-4.0-1.0-32.0"}}, {"uniqueid": "w96211185:a61749280", "current_trial": 48, "dateTime": 1691073583081, "trialdata": {"revealed_states": [], "clicked_states": ["20", "17", "5", "9", "29"], "num_clicks_accrued": [0, 0, 0, 0, 0, 0, 0, 0, 0, 0, 0, 0, 0], "stateRewards": ["", -1, -3, 1, 13, -64, -29, 12, -4, -33, 50, 56, 2, -3, 4, 11, -64, -58, -55, 12, 47, 38, -25, -2, 2, 5, -15, 85, 7, 84, 10, 8, 57, 26], "withholdReward": false, "trial_id": "mdp_trial_34", "block": "test", "trialIndex": 37, "score": 63.25, "costs": -10.75, "simulationMode": [null, null, null, null, null], "rewards": [-2, 2, 5, -15, 84], "path": ["0", "0", "23", "24", "25", "26", "29"], "rt": [22299, 114, 39, 1068, 685], "actions": ["left", "left", "left", "up", "left"], "actionTimes": [28936, 29582, 30149, 31754, 32960], "queries": {"click": {"state": {"target": ["20", "17", "5", "9", "29"], "time": [7988, 11700, 15050, 19469, 24090]}, "edge": {"target": [], "time": []}}, "mouseover": {"state": {"target": ["17", "19", "20", "17", "5", "9", "11", "27", "27", "29", "33", "33", "10", "1"], "time": [6739, 7528, 7612, 9057, 12766, 18745, 19951, 23061, 23410, 23627, 24553, 25049, 27877, 27949]}, "edge": {"target": [], "time": []}}, "mouseout": {"state": {"target": ["17", "17", "15", "17", "15", "18", "23", "0", "17", "19", "20", "17", "5", "9", "11", "27", "27", "29", "33", "33", "10", "1", "0"], "time": [145, 562, 1644, 3344, 3961, 4310, 4860, 6668, 7228, 7564, 8131, 12137, 17912, 19862, 20015, 23160, 23511, 24375, 24586, 27711, 27919, 27983, 34777]}, "edge": {"target": [], "time": []}}}, "displayed_time": "33.45", "trialTime": 35728, "trial_type": "mouselab-mdp", "trial_index": 48, "time_elapsed": 2691615, "internal_node_id": "0.0-4.0-1.0-33.0"}}, {"uniqueid": "w96211185:a61749280", "current_trial": 49, "dateTime": 1691073622828, "trialdata": {"revealed_states": [], "clicked_states": ["20", "17", "5", "9", "29", "33"], "num_clicks_accrued": [0, 0, 0, 0, 0, 0, 0, 0, 0, 0, 0, 0, 0], "stateRewards": ["", 2, 4, 4, 9, -88, -10, 44, 16, -54, 64, 78, 1, 2, 5, 16, 80, 36, 7, -4, 9, -47, -70, -1, -3, 6, -16, 11, 80, 28, 8, -1, 34, -17], "withholdReward": false, "trial_id": "mdp_trial_35", "block": "test", "trialIndex": 38, "score": 47.1, "costs": -12.9, "simulationMode": [null, null, null, null, null], "rewards": [1, 2, 5, 16, 36], "path": ["0", "0", "12", "13", "14", "15", "17"], "rt": [29452, 114, 81, 874, 453], "actions": ["right", "right", "right", "up", "right"], "actionTimes": [32570, 33216, 33832, 35212, 36186], "queries": {"click": {"state": {"target": ["20", "17", "5", "9", "29", "33"], "time": [4401, 8499, 13077, 17610, 22403, 26230]}, "edge": {"target": [], "time": []}}, "mouseover": {"state": {"target": ["14", "20", "20", "17", "5", "9", "9", "11", "27", "29", "33", "29", "17", "17", "17"], "time": [3709, 3751, 4076, 5069, 12545, 14780, 14926, 20992, 21324, 21875, 25242, 29759, 29858, 30191, 30440]}, "edge": {"target": [], "time": []}}, "mouseout": {"state": {"target": ["15", "18", "12", "1", "23", "0", "14", "20", "20", "17", "5", "9", "9", "9", "11", "27", "29", "33", "29", "17", "17", "17", "17", "13"], "time": [925, 992, 1142, 1441, 1825, 3139, 3748, 3809, 4897, 9410, 13485, 14842, 17762, 20942, 21059, 21675, 24924, 26610, 29795, 29895, 30228, 30477, 37323, 37408]}, "edge": {"target": [], "time": []}}}, "displayed_time": "36.72", "trialTime": 38291, "trial_type": "mouselab-mdp", "trial_index": 49, "time_elapsed": 2731362, "internal_node_id": "0.0-4.0-1.0-34.0"}}, {"uniqueid": "w96211185:a61749280", "current_trial": 50, "dateTime": 1691073667865, "trialdata": {"revealed_states": [], "clicked_states": ["20", "17", "5", "9", "29", "33", "31"], "num_clicks_accrued": [0, 0, 0, 0, 0, 0, 0, 0, 0, 0, 0, 0, 0], "stateRewards": ["", 1, -2, -8, -3, 31, -84, -55, -14, 15, -58, 17, -2, -3, 7, 7, -12, 48, 67, 4, -44, -68, 46, 2, 3, -5, -7, 76, 27, 5, 11, 57, 52, 59], "withholdReward": false, "trial_id": "mdp_trial_36", "block": "test", "trialIndex": 39, "score": 52.95, "costs": -15.05, "simulationMode": [null, null, null, null, null], "rewards": [2, 3, -5, 11, 57], "path": ["0", "0", "23", "24", "25", "30", "31"], "rt": [34216, 177, 190, 813, 625], "actions": ["left", "left", "left", "down", "right"], "actionTimes": [37298, 38020, 38728, 40066, 41233], "queries": {"click": {"state": {"target": ["20", "17", "5", "9", "29", "33", "31"], "time": [4672, 9990, 15079, 18481, 22259, 25859, 28915]}, "edge": {"target": [], "time": []}}, "mouseover": {"state": {"target": ["18", "15", "20", "17", "5", "9", "9", "11", "27", "29", "33", "31", "24", "28", "0", "23"], "time": [3107, 3685, 4197, 5281, 14732, 15687, 16172, 19368, 19614, 20137, 22715, 26706, 29609, 29968, 34146, 34695]}, "edge": {"target": [], "time": []}}, "mouseout": {"state": {"target": ["16", "1", "0", "0", "18", "15", "20", "17", "5", "9", "9", "11", "27", "29", "33", "31", "24", "28", "0", "23"], "time": [780, 979, 1446, 3102, 3681, 3732, 5097, 10429, 15597, 15781, 19272, 19465, 19875, 22570, 26148, 29572, 29732, 33279, 34182, 35228]}, "edge": {"target": [], "time": []}}}, "displayed_time": "41.74", "trialTime": 43685, "trial_type": "mouselab-mdp", "trial_index": 50, "time_elapsed": 2776399, "internal_node_id": "0.0-4.0-1.0-35.0"}}, {"uniqueid": "w96211185:a61749280", "current_trial": 51, "dateTime": 1691073697559, "trialdata": {"revealed_states": [], "clicked_states": ["21"], "num_clicks_accrued": [0, 0, 0, 0, 0, 0, 0, 0, 0, 0, 0, 0, 0], "stateRewards": ["", 1, 1, 4, 11, 83, -66, 18, -16, -23, 5, 25, 1, -3, 1, -12, 18, 24, -86, -11, -64, 36, 40, 2, 1, -6, 13, 55, 29, 72, -2, 81, -72, -41], "withholdReward": false, "trial_id": "mdp_trial_37", "block": "test", "trialIndex": 40, "score": 21.85, "costs": -2.15, "simulationMode": [null, null, null, null, null], "rewards": [1, -3, 1, -11, 36], "path": ["0", "0", "12", "13", "14", "19", "21"], "rt": [20665, 197, 107, 817, 366], "actions": ["right", "right", "right", "down", "down"], "actionTimes": [22922, 23641, 24256, 25591, 26504], "queries": {"click": {"state": {"target": ["21"], "time": [3713]}, "edge": {"target": [], "time": []}}, "mouseover": {"state": {"target": ["13", "22", "21", "20", "17", "6", "16", "6", "5", "9", "11", "27", "29", "25", "24"], "time": [2515, 2598, 3325, 4663, 13359, 15496, 15774, 16775, 17890, 18857, 19750, 20876, 21289, 21843, 21882]}, "edge": {"target": [], "time": []}}, "mouseout": {"state": {"target": ["13", "22", "21", "20", "17", "6", "16", "6", "5", "9", "11", "27", "29", "25", "24"], "time": [2548, 2891, 3975, 12841, 14462, 15591, 16724, 17641, 18541, 19357, 20840, 20924, 21807, 21877, 21912]}, "edge": {"target": [], "time": []}}}, "displayed_time": "27.03", "trialTime": 28476, "trial_type": "mouselab-mdp", "trial_index": 51, "time_elapsed": 2806093, "internal_node_id": "0.0-4.0-1.0-36.0"}}, {"uniqueid": "w96211185:a61749280", "current_trial": 52, "dateTime": 1691073747405, "trialdata": {"revealed_states": [], "clicked_states": ["20", "17", "16", "22", "6", "5", "9", "11", "27"], "num_clicks_accrued": [0, 0, 0, 0, 0, 0, 0, 0, 0, 0, 0, 0, 0], "stateRewards": ["", 2, 3, 8, 11, 25, -80, 6, -4, -56, 84, -23, -2, -4, -3, 4, -51, -9, -61, -15, -64, 67, -35, 1, -1, -7, -6, 83, 59, -15, 12, -79, 56, 41], "withholdReward": false, "trial_id": "mdp_trial_38", "block": "test", "trialIndex": 41, "score": 50.650000000000006, "costs": -19.349999999999998, "simulationMode": [null, null, null, null, null], "rewards": [1, -1, -7, -6, 83], "path": ["0", "0", "23", "24", "25", "26", "27"], "rt": [40210, 83, 35, 798, 353], "actions": ["left", "left", "left", "up", "up"], "actionTimes": [43631, 44251, 44814, 46136, 47037], "queries": {"click": {"state": {"target": ["20", "17", "16", "22", "6", "5", "9", "11", "27"], "time": [5021, 9941, 14188, 17867, 22639, 25948, 30194, 33675, 38601]}, "edge": {"target": [], "time": []}}, "mouseover": {"state": {"target": ["15", "20", "20", "17", "16", "15", "13", "12", "22", "21", "6", "6", "5", "5", "9", "8", "11", "27", "27", "29"], "time": [3574, 4040, 4491, 8906, 13457, 14911, 15387, 15642, 17289, 18610, 21773, 22173, 23146, 23492, 26841, 31634, 31834, 37188, 37688, 39190]}, "edge": {"target": [], "time": []}}, "mouseout": {"state": {"target": ["17", "15", "18", "23", "24", "24", "23", "0", "15", "20", "20", "17", "16", "15", "13", "12", "22", "21", "6", "6", "5", "5", "9", "8", "11", "27", "27", "29"], "time": [456, 490, 524, 823, 1022, 1173, 1477, 2056, 3620, 4207, 8358, 11729, 14877, 14946, 15453, 17223, 18273, 21706, 21804, 23080, 23179, 26678, 31572, 31669, 37056, 37388, 38947, 42270]}, "edge": {"target": [], "time": []}}}, "displayed_time": "47.56", "trialTime": 48523, "trial_type": "mouselab-mdp", "trial_index": 52, "time_elapsed": 2855939, "internal_node_id": "0.0-4.0-1.0-37.0"}}, {"uniqueid": "w96211185:a61749280", "current_trial": 53, "dateTime": 1691073768158, "trialdata": {"revealed_states": [], "clicked_states": ["20"], "num_clicks_accrued": [0, 0, 0, 0, 0, 0, 0, 0, 0, 0, 0, 0, 0], "stateRewards": ["", 1, 4, -8, -13, -13, -87, -77, -10, -44, 54, 42, 2, -3, -4, 12, -9, -80, 52, 9, 84, -2, -65, 1, -4, -5, -6, 8, 80, 32, 13, -59, -5, -13], "withholdReward": false, "trial_id": "mdp_trial_39", "block": "test", "trialIndex": 42, "score": 85.85, "costs": -2.15, "simulationMode": [null, null, null, null, null], "rewards": [2, -3, -4, 9, 84], "path": ["0", "0", "12", "13", "14", "19", "20"], "rt": [6431, 11, 213, 701, 1061], "actions": ["right", "right", "right", "down", "right"], "actionTimes": [9509, 10048, 10771, 12003, 13678], "queries": {"click": {"state": {"target": ["20"], "time": [5027]}, "edge": {"target": [], "time": []}}, "mouseover": {"state": {"target": ["12", "19", "20", "17"], "time": [3179, 4110, 4609, 5918]}, "edge": {"target": [], "time": []}}, "mouseout": {"state": {"target": ["20", "0", "12", "19", "20", "17", "20"], "time": [509, 3136, 3249, 4409, 5415, 15361, 17192]}, "edge": {"target": [], "time": []}}}, "displayed_time": "17.08", "trialTime": 19282, "trial_type": "mouselab-mdp", "trial_index": 53, "time_elapsed": 2876692, "internal_node_id": "0.0-4.0-1.0-38.0"}}, {"uniqueid": "w96211185:a61749280", "current_trial": 54, "dateTime": 1691073790747, "trialdata": {"revealed_states": [], "clicked_states": ["20"], "num_clicks_accrued": [0, 0, 0, 0, 0, 0, 0, 0, 0, 0, 0, 0, 0], "stateRewards": ["", 2, 3, -2, -8, -8, -41, 74, 15, -23, -80, 1, 1, 3, 3, -15, -63, -78, 67, 13, 75, -41, 86, 2, -2, 6, -3, -8, -49, 50, -6, 83, 74, 80], "withholdReward": false, "trial_id": "mdp_trial_40", "block": "test", "trialIndex": 43, "score": 92.85, "costs": -2.15, "simulationMode": [null, null, null, null, null], "rewards": [1, 3, 3, 13, 75], "path": ["0", "0", "12", "13", "14", "19", "20"], "rt": [6324, 40, 51, 634, 906], "actions": ["right", "right", "right", "down", "right"], "actionTimes": [9578, 10149, 10738, 11931, 13392], "queries": {"click": {"state": {"target": ["20"], "time": [4884]}, "edge": {"target": [], "time": []}}, "mouseover": {"state": {"target": ["12", "22", "19", "20", "15", "17"], "time": [4018, 4269, 4389, 4486, 5644, 5955]}, "edge": {"target": [], "time": []}}, "mouseout": {"state": {"target": ["25", "24", "23", "12", "22", "19", "20", "15", "17"], "time": [1385, 1618, 2017, 4056, 4353, 4432, 5408, 5890, 17219]}, "edge": {"target": [], "time": []}}}, "displayed_time": "17.26", "trialTime": 21365, "trial_type": "mouselab-mdp", "trial_index": 54, "time_elapsed": 2899281, "internal_node_id": "0.0-4.0-1.0-39.0"}}, {"uniqueid": "w96211185:a61749280", "current_trial": 55, "dateTime": 1691073898461, "trialdata": {"rt": 107213, "response": {"Q0": "$-2 to $2", "Q1": "$-4 to $4", "Q2": "$-88 to $88", "Q3": "The cost for clicking on nodes varied between nodes.", "Q4": "Very motivated"}, "question_order": [0, 1, 2, 3, 4], "trial_id": "final_quiz_control", "trial_type": "survey-multi-choice", "trial_index": 55, "time_elapsed": 3006995, "internal_node_id": "0.0-4.0-2.0"}}, {"uniqueid": "w96211185:a61749280", "current_trial": 56, "dateTime": 1691074203601, "trialdata": {"rt": 304593, "response": {"Q0": "During the 1st few times I observed the the values differed greatly. I also observed that the  costs was set off from the end Nodes. After that, during each round as soon as I located the high positive values i determined the path to use. ", "Q1": "as per above", "Q2": "The task became difficult in the absence of Node values."}, "trial_id": "self_report_control", "trial_type": "survey-text", "trial_index": 56, "time_elapsed": 3312136, "internal_node_id": "0.0-4.0-3.0"}}, {"uniqueid": "w96211185:a61749280", "current_trial": 57, "dateTime": 1691074315247, "trialdata": {"rt": 111475, "response": {"Q0": "Strongly agree", "Q1": "Neither disagree nor agree", "Q2": "Agree", "Q3": "Neither disagree nor agree", "Q4": "Neither disagree nor agree", "Q5": "Agree", "Q6": "Disagree"}, "question_order": [0, 1, 2, 3, 4, 5, 6], "trial_id": "self_report_2", "trial_type": "survey-multi-choice", "trial_index": 57, "time_elapsed": 3423781, "internal_node_id": "0.0-4.0-4.0"}}, {"uniqueid": "w96211185:a61749280", "current_trial": 58, "dateTime": 1691074384903, "trialdata": {"rt": 69532, "response": {"gender": "female", "age": "54", "colorblind": "0", "effort": "0"}, "trial_type": "survey-html-form", "trial_index": 58, "time_elapsed": 3493437, "internal_node_id": "0.0-4.0-5.0"}}, {"uniqueid": "w96211185:a61749280", "current_trial": 59, "dateTime": 1691074443061, "trialdata": {"rt": 58141, "response": {"Q0": "nothing", "Q1": "no", "Q2": ""}, "trial_type": "survey-text", "trial_index": 59, "time_elapsed": 3551596, "internal_node_id": "0.0-4.0-6.0"}}, {"uniqueid": "w96211185:a61749280", "current_trial": 60, "dateTime": 1691074454378, "trialdata": {"rt": 11172, "stimulus": "Press 'Finish HIT' in order to reach the completion code. Once the data has been saved, you will receive the code either in this window or in the original browser window where you started the experiment.\n", "response": 0, "trial_type": "html-button-response", "trial_index": 60, "time_elapsed": 3562912, "internal_node_id": "0.0-5.0"}}, {"uniqueid": "w96211185:a61749280", "current_trial": 61, "dateTime": 1691074455491, "trialdata": {"success": true, "trial_type": "fullscreen", "trial_index": 61, "time_elapsed": 3564026, "internal_node_id": "0.0-6.0"}}], "questiondata": {"params": {"CODE": "C6DMOQA6", "MIN_TIME": 14, "inspectCost": 1, "startTime": "Thu Aug 03 2023 15:54:48 GMT+0200 (South Africa Standard Time)", "bonusRate": 0.002, "variance": "1_2_4_8_44", "branching": "31123"}, "final_score": 1296.6}, "eventdata": [{"eventtype": "initialized", "value": null, "timestamp": 1691070887745, "interval": 0}, {"eventtype": "window_resize", "value": [1024, 646], "timestamp": 1691070887745, "interval": 0}, {"eventtype": "window_resize", "value": [1024, 646], "timestamp": 1691070888394, "interval": 649}, {"eventtype": "window_resize", "value": [1280, 660], "timestamp": 1691070891423, "interval": 3029}, {"eventtype": "window_resize", "value": [1280, 720], "timestamp": 1691070900205, "interval": 8782}, {"eventtype": "focus", "value": "off", "timestamp": 1691070937061, "interval": 36856}, {"eventtype": "focus", "value": "on", "timestamp": 1691070951855, "interval": 14794}, {"eventtype": "focus", "value": "off", "timestamp": 1691071252482, "interval": 300627}, {"eventtype": "focus", "value": "on", "timestamp": 1691071258798, "interval": 6316}, {"eventtype": "focus", "value": "off", "timestamp": 1691071617158, "interval": 358360}, {"eventtype": "focus", "value": "on", "timestamp": 1691071617158, "interval": 0}, {"eventtype": "window_resize", "value": [1280, 660], "timestamp": 1691071617379, "interval": 221}, {"eventtype": "window_resize", "value": [1280, 720], "timestamp": 1691071621719, "interval": 4340}, {"eventtype": "focus", "value": "off", "timestamp": 1691072109427, "interval": 487708}, {"eventtype": "window_resize", "value": [1280, 719], "timestamp": 1691072109665, "interval": 238}, {"eventtype": "focus", "value": "on", "timestamp": 1691072120681, "interval": 11016}, {"eventtype": "window_resize", "value": [1280, 720], "timestamp": 1691072120911, "interval": 230}], "useragent": "Mozilla/5.0 (Windows NT 10.0; Win64; x64) AppleWebKit/537.36 (KHTML, like Gecko) Chrome/115.0.0.0 Safari/537.36", "mode": "live", "id": "w96211185:a61749280", "status": "user data saved", "Beginhit": "2023-08-03 13:54:44.272392", "Beginexp": "2023-08-03 13:55:00.870925", "Endhit": "2023-08-03 14:54:19.408054", "psiturkStatus": 3, "browser": "<redacted>", "platform": "windows", "language": "en-US"}