{"condition": 1, "counterbalance": 0, "assignmentId": "a31632736", "workerId": "w75605276", "hitId": "h79522829", "currenttrial": 62, "bonus": 0, "data": [{"uniqueid": "w75605276:a31632736", "current_trial": 0, "dateTime": 1693564779146, "trialdata": {"success": true, "trial_type": "fullscreen", "trial_index": 0, "time_elapsed": 15146, "internal_node_id": "0.0-0.0"}}, {"uniqueid": "w75605276:a31632736", "current_trial": 1, "dateTime": 1693564807833, "trialdata": {"view_history": [{"page_index": 0, "viewing_time": 28668}], "rt": 28670, "trial_id": "exp_instructions_misaligned", "trial_type": "instructions", "trial_index": 1, "time_elapsed": 43833, "internal_node_id": "0.0-1.0"}}, {"uniqueid": "w75605276:a31632736", "current_trial": 2, "dateTime": 1693565168237, "trialdata": {"view_history": [{"page_index": 0, "viewing_time": 118066}, {"page_index": 1, "viewing_time": 118426}, {"page_index": 2, "viewing_time": 55088}, {"page_index": 3, "viewing_time": 68820}], "rt": 360400, "trial_id": "mouselab_instructions_1_misaligned", "trial_type": "instructions", "trial_index": 2, "time_elapsed": 404237, "internal_node_id": "0.0-2.0-1.0"}}, {"uniqueid": "w75605276:a31632736", "current_trial": 3, "dateTime": 1693565222625, "trialdata": {"revealed_states": [], "clicked_states": [], "num_clicks_accrued": [0, 0, 0, 0, 0, 0, 0, 0, 0, 0, 0, 0, 0], "stateRewards": ["", 10, -10, 10, 10, 10, 10, 10, 10, 10, -10, 10, 10, -10, 10, 10, 10, -10, 10, 10, -10, 10, -10, -10, 10, 10, -10, -10, -10, -10, -10, -10, 10, 10], "withholdReward": false, "trial_id": "practice_1", "block": "test", "trialIndex": 0, "score": 33.5, "costs": 0, "simulationMode": [null, null, null, null, null], "rewards": [10, -10, 10, 10, 10], "path": ["0", "0", "1", "2", "3", "8", "11"], "rt": [16763, 4181, 1470, 2661, 1645], "actions": ["up", "up", "up", "left", "left"], "actionTimes": [28282, 32961, 34935, 38111, 40261], "queries": {"click": {"state": {"target": [], "time": []}, "edge": {"target": [], "time": []}}, "mouseover": {"state": {"target": [], "time": []}, "edge": {"target": [], "time": []}}, "mouseout": {"state": {"target": ["0", "0"], "time": [15191, 45845]}, "edge": {"target": [], "time": []}}}, "displayed_time": "40.77", "trialTime": 53270, "trial_type": "mouselab-mdp", "trial_index": 3, "time_elapsed": 458624, "internal_node_id": "0.0-2.0-2.0-0.0"}}, {"uniqueid": "w75605276:a31632736", "current_trial": 4, "dateTime": 1693565259731, "trialdata": {"revealed_states": [], "clicked_states": [], "num_clicks_accrued": [0, 0, 0, 0, 0, 0, 0, 0, 0, 0, 0, 0, 0], "stateRewards": ["", 10, 10, 10, -10, 10, 10, 10, -10, 10, 10, -10, -10, -10, 10, -10, -10, -10, -10, -10, 10, -10, -10, -10, 10, -10, -10, 10, -10, -10, 10, 10, 10, 10], "withholdReward": false, "trial_id": "practice_2", "block": "test", "trialIndex": 1, "score": 33.5, "costs": 0, "simulationMode": [null, null, null, null, null], "rewards": [10, 10, 10, -10, 10], "path": ["0", "0", "1", "2", "3", "4", "5"], "rt": [10260, 6069, 2928, 945, 860], "actions": ["up", "up", "up", "right", "up"], "actionTimes": [17269, 23854, 27304, 28764, 30125], "queries": {"click": {"state": {"target": [], "time": []}, "edge": {"target": [], "time": []}}, "mouseover": {"state": {"target": [], "time": []}, "edge": {"target": [], "time": []}}, "mouseout": {"state": {"target": ["0", "0", "0", "0"], "time": [1586, 2602, 3218, 5632]}, "edge": {"target": [], "time": []}}}, "displayed_time": "30.63", "trialTime": 36366, "trial_type": "mouselab-mdp", "trial_index": 4, "time_elapsed": 495730, "internal_node_id": "0.0-2.0-2.0-1.0"}}, {"uniqueid": "w75605276:a31632736", "current_trial": 5, "dateTime": 1693565331541, "trialdata": {"view_history": [{"page_index": 0, "viewing_time": 53134}, {"page_index": 1, "viewing_time": 18668}], "rt": 71803, "trial_id": "mouselab_instructions_2_misaligned", "trial_type": "instructions", "trial_index": 5, "time_elapsed": 567541, "internal_node_id": "0.0-2.0-3.0"}}, {"uniqueid": "w75605276:a31632736", "current_trial": 6, "dateTime": 1693565419867, "trialdata": {"rt": 88318, "response": {"Q0": "There is no cost for clicking on nodes.", "Q1": "The better I perform the higher my bonus will be.", "Q2": "No, the amount of cash at each node of the web may be different each time.", "Q3": "To get the highest total score.", "Q4": "Only before moving the spider.", "Q5": "3 seconds"}, "question_order": [0, 1, 2, 3, 4, 5], "correct": {"Q0": "The cost for clicking on nodes may vary between nodes.", "Q1": "The better I perform the higher my bonus will be.", "Q2": "No, the amount of cash at each node of the web may be different each time.", "Q3": "To get the highest total score.", "Q4": "Only before moving the spider.", "Q5": "3 seconds"}, "trial_id": "mouselab_quiz_misaligned", "trial_type": "survey-multi-choice", "trial_index": 6, "time_elapsed": 655867, "internal_node_id": "0.0-2.0-4.0"}}, {"uniqueid": "w75605276:a31632736", "current_trial": 7, "dateTime": 1693565439896, "trialdata": {"success": true, "trial_type": "fullscreen", "trial_index": 7, "time_elapsed": 675896, "internal_node_id": "0.0-2.1-0.1-0.1"}}, {"uniqueid": "w75605276:a31632736", "current_trial": 8, "dateTime": 1693565730322, "trialdata": {"view_history": [{"page_index": 0, "viewing_time": 89486}, {"page_index": 1, "viewing_time": 133656}, {"page_index": 2, "viewing_time": 19809}, {"page_index": 3, "viewing_time": 47468}], "rt": 290420, "trial_id": "mouselab_instructions_1_misaligned", "trial_type": "instructions", "trial_index": 8, "time_elapsed": 966322, "internal_node_id": "0.0-2.1-1.1"}}, {"uniqueid": "w75605276:a31632736", "current_trial": 9, "dateTime": 1693565792929, "trialdata": {"revealed_states": [], "clicked_states": ["2", "26", "15", "13", "19", "30", "24", "5", "4", "9", "11", "6"], "num_clicks_accrued": [0, 0, 0, 0, 0, 0, 0, 0, 0, 0, 0, 0, 0], "stateRewards": ["", 10, -10, 10, 10, 10, 10, 10, 10, 10, -10, 10, 10, -10, 10, 10, 10, -10, 10, 10, -10, 10, -10, -10, 10, 10, -10, -10, -10, -10, -10, -10, 10, 10], "withholdReward": false, "trial_id": "practice_1", "block": "test", "trialIndex": 2, "score": 27.5, "costs": -6, "simulationMode": [null, null, null, null, null], "rewards": [10, -10, 10, 10, 10], "path": ["0", "0", "1", "2", "3", "4", "5"], "rt": [41213, 2605, 903, 910, 940], "actions": ["up", "up", "up", "right", "up"], "actionTimes": [49227, 52341, 53752, 55175, 56622], "queries": {"click": {"state": {"target": ["2", "26", "15", "13", "19", "30", "24", "5", "4", "9", "11", "6"], "time": [10569, 12618, 15853, 17899, 20189, 24762, 28185, 34038, 35484, 37333, 39759, 42301]}, "edge": {"target": [], "time": []}}, "mouseover": {"state": {"target": ["0", "0", "23", "2", "28", "26", "28", "10", "3", "4", "7", "18", "15", "13", "14", "19", "22", "31", "30", "25", "24", "23", "3", "4", "5", "4", "9", "11", "8", "3", "4", "6", "7", "1", "0"], "time": [8798, 9481, 9532, 9982, 11698, 11982, 14348, 14482, 14650, 14899, 14949, 15099, 15349, 17366, 19533, 19836, 22251, 22701, 22850, 26752, 27102, 30953, 32987, 33139, 33460, 34882, 36738, 39072, 40857, 41074, 41339, 41690, 45307, 45440, 45724]}, "edge": {"target": [], "time": []}}, "mouseout": {"state": {"target": ["0", "0", "0", "0", "23", "2", "28", "26", "28", "10", "3", "4", "7", "18", "15", "13", "13", "14", "19", "22", "31", "30", "25", "24", "24", "23", "3", "4", "5", "4", "9", "11", "8", "3", "4", "6", "7", "1", "0"], "time": [4245, 7333, 8831, 9499, 9631, 11519, 11865, 14282, 14415, 14516, 14715, 14916, 15015, 15249, 17099, 18116, 19384, 19583, 20413, 22302, 22788, 26476, 27036, 28334, 30836, 32788, 33005, 33438, 34824, 35701, 38989, 40823, 40922, 41107, 41489, 45242, 45373, 45507, 47325]}, "edge": {"target": [], "time": []}}}, "displayed_time": "57.14", "trialTime": 61900, "trial_type": "mouselab-mdp", "trial_index": 9, "time_elapsed": 1028926, "internal_node_id": "0.0-2.1-2.1-0.1"}}, {"uniqueid": "w75605276:a31632736", "current_trial": 10, "dateTime": 1693565852083, "trialdata": {"revealed_states": [], "clicked_states": ["25", "27", "29", "9", "5", "6", "11", "8", "4", "15", "16", "30", "33"], "num_clicks_accrued": [0, 0, 0, 0, 0, 0, 0, 0, 0, 0, 0, 0, 0], "stateRewards": ["", 10, 10, 10, -10, 10, 10, 10, -10, 10, 10, -10, -10, -10, 10, -10, -10, -10, -10, -10, 10, -10, -10, -10, 10, -10, -10, 10, -10, -10, 10, 10, 10, 10], "withholdReward": false, "trial_id": "practice_2", "block": "test", "trialIndex": 3, "score": 7, "costs": -6.5, "simulationMode": [null, null, null, null, null], "rewards": [-10, 10, -10, 10, 10], "path": ["0", "0", "23", "24", "25", "30", "33"], "rt": [44520, 655, 314, 601, 809], "actions": ["left", "left", "left", "down", "left"], "actionTimes": [47885, 49089, 49910, 51013, 52323], "queries": {"click": {"state": {"target": ["25", "27", "29", "9", "5", "6", "11", "8", "4", "15", "16", "30", "33"], "time": [6893, 9458, 12333, 15609, 18510, 21627, 24171, 26693, 28920, 34192, 36492, 41342, 43837]}, "edge": {"target": [], "time": []}}, "mouseover": {"state": {"target": ["29", "25", "26", "27", "29", "27", "11", "9", "5", "6", "4", "3", "8", "11", "8", "3", "4", "18", "14", "15", "16", "1", "28", "26", "25", "30", "33", "30", "31"], "time": [5128, 6295, 8029, 8279, 11614, 14464, 14564, 14830, 17798, 21116, 23266, 23333, 23416, 23600, 25917, 28202, 28401, 32586, 32836, 33685, 36003, 38554, 38637, 38954, 40338, 40600, 42939, 45740, 45940]}, "edge": {"target": [], "time": []}}, "mouseout": {"state": {"target": ["1", "29", "25", "26", "27", "27", "29", "27", "11", "9", "5", "6", "4", "3", "8", "11", "8", "3", "4", "4", "18", "14", "15", "16", "1", "28", "26", "25", "30", "33", "30", "31"], "time": [1493, 6161, 7962, 8095, 9683, 11464, 14397, 14501, 14598, 17298, 20800, 23217, 23300, 23367, 23516, 25785, 28151, 28317, 29134, 32268, 32619, 33536, 34420, 38470, 38571, 38721, 40288, 40389, 42755, 45673, 45805, 46040]}, "edge": {"target": [], "time": []}}}, "displayed_time": "52.83", "trialTime": 58471, "trial_type": "mouselab-mdp", "trial_index": 10, "time_elapsed": 1088083, "internal_node_id": "0.0-2.1-2.1-1.1"}}, {"uniqueid": "w75605276:a31632736", "current_trial": 11, "dateTime": 1693565865295, "trialdata": {"view_history": [{"page_index": 0, "viewing_time": 10498}, {"page_index": 1, "viewing_time": 2708}], "rt": 13206, "trial_id": "mouselab_instructions_2_misaligned", "trial_type": "instructions", "trial_index": 11, "time_elapsed": 1101295, "internal_node_id": "0.0-2.1-3.1"}}, {"uniqueid": "w75605276:a31632736", "current_trial": 12, "dateTime": 1693565925054, "trialdata": {"rt": 59750, "response": {"Q0": "The cost for clicking on nodes may vary between nodes.", "Q1": "The better I perform the higher my bonus will be.", "Q2": "No, the amount of cash at each node of the web may be different each time.", "Q3": "To get the highest total score.", "Q4": "Only before moving the spider.", "Q5": "3 seconds"}, "question_order": [0, 1, 2, 3, 4, 5], "correct": {"Q0": "The cost for clicking on nodes may vary between nodes.", "Q1": "The better I perform the higher my bonus will be.", "Q2": "No, the amount of cash at each node of the web may be different each time.", "Q3": "To get the highest total score.", "Q4": "Only before moving the spider.", "Q5": "3 seconds"}, "trial_id": "mouselab_quiz_misaligned", "trial_type": "survey-multi-choice", "trial_index": 12, "time_elapsed": 1161053, "internal_node_id": "0.0-2.1-4.1"}}, {"uniqueid": "w75605276:a31632736", "current_trial": 13, "dateTime": 1693565935202, "trialdata": {"rt": 10134, "response": {"Q0": "No"}, "question_order": [0], "trial_id": "repeat_check", "trial_type": "survey-multi-choice", "trial_index": 13, "time_elapsed": 1171202, "internal_node_id": "0.0-4.0-0.0"}}, {"uniqueid": "w75605276:a31632736", "current_trial": 14, "dateTime": 1693565964245, "trialdata": {"rt": 29034, "stimulus": "\n<h1> Get ready to start the game! </h1>\n\nThank you for reading the instructions. Get ready start with the 40 rounds of this game.\n<br><br>\nIf you need to take a break, feel free to take one after the end of a round, before continuing to the next one.\n<br><br>\nRemember, the more money the spider gets, the bigger your bonus will be!\n<br><br>\n<div style='text-align: center;'>Press <code>space</code> to begin.</div>\n\n<br><br>\n(If, at any point, the <code>space</code> key does not take you to the next page, click once on the text and try again.)", "response": " ", "trial_id": "mdp_ready", "trial_type": "html-keyboard-response", "trial_index": 14, "time_elapsed": 1200245, "internal_node_id": "0.0-6.0-0.0"}}, {"uniqueid": "w75605276:a31632736", "current_trial": 15, "dateTime": 1693565998001, "trialdata": {"revealed_states": [], "clicked_states": ["2", "5"], "num_clicks_accrued": [0, 0, 0, 0, 0, 0, 0, 0, 0, 0, 0, 0, 0], "stateRewards": ["", -2, -3, -6, -7, 9, 16, 65, 5, -41, 20, -25, -1, -4, 1, -11, -49, -4, 71, 1, 39, -62, 52, -2, -3, 7, -9, -28, -70, 84, 8, 24, -58, 82], "withholdReward": false, "trial_id": "mdp_trial_1", "block": "test", "trialIndex": 4, "score": -33.5, "costs": -2.5, "simulationMode": [null, null, null, null, null], "rewards": [-2, -3, -6, 5, -25], "path": ["0", "0", "1", "2", "3", "8", "11"], "rt": [12663, 897, 2451, 3065, 989], "actions": ["up", "up", "up", "left", "left"], "actionTimes": [17611, 19018, 21980, 25546, 27053], "queries": {"click": {"state": {"target": ["2", "5"], "time": [7521, 9588]}, "edge": {"target": [], "time": []}}, "mouseover": {"state": {"target": ["1", "2", "5", "9", "11", "27"], "time": [6903, 6971, 9003, 11591, 14772, 15072]}, "edge": {"target": [], "time": []}}, "mouseout": {"state": {"target": ["0", "1", "2", "5", "9", "11", "27"], "time": [6833, 6936, 7737, 11189, 14705, 14822, 16438]}, "edge": {"target": [], "time": []}}}, "displayed_time": "27.58", "trialTime": 32948, "trial_type": "mouselab-mdp", "trial_index": 15, "time_elapsed": 1234000, "internal_node_id": "0.0-6.0-1.0-0.0"}}, {"uniqueid": "w75605276:a31632736", "current_trial": 16, "dateTime": 1693566030339, "trialdata": {"revealed_states": [], "clicked_states": ["5", "9", "4", "3"], "num_clicks_accrued": [0, 0, 0, 0, 0, 0, 0, 0, 0, 0, 0, 0, 0], "stateRewards": ["", 1, -4, 6, -3, 40, 76, -51, 5, -24, -63, 44, -2, -2, 8, 1, 76, -85, -58, 10, 59, 20, 11, -2, 3, -3, 3, -82, -10, 54, -7, -57, -6, -32], "withholdReward": false, "trial_id": "mdp_trial_2", "block": "test", "trialIndex": 5, "score": 33.2, "costs": -6.8, "simulationMode": [null, null, null, null, null], "rewards": [1, -4, 6, -3, 40], "path": ["0", "0", "1", "2", "3", "4", "5"], "rt": [12578, 170, 363, 625, 840], "actions": ["up", "up", "up", "right", "up"], "actionTimes": [19047, 19732, 20606, 21736, 23101], "queries": {"click": {"state": {"target": ["5", "9", "4", "3"], "time": [8080, 10971, 13871, 16132]}, "edge": {"target": [], "time": []}}, "mouseover": {"state": {"target": ["1", "7", "4", "5", "9", "4", "3", "2", "1"], "time": [7168, 7334, 7451, 7619, 9615, 13422, 15420, 17822, 18121]}, "edge": {"target": [], "time": []}}, "mouseout": {"state": {"target": ["28", "23", "1", "7", "4", "5", "9", "9", "4", "3", "2", "1"], "time": [4733, 4900, 7201, 7354, 7518, 9291, 11199, 13123, 15320, 17737, 17970, 27507]}, "edge": {"target": [], "time": []}}}, "displayed_time": "23.63", "trialTime": 31544, "trial_type": "mouselab-mdp", "trial_index": 16, "time_elapsed": 1266338, "internal_node_id": "0.0-6.0-1.0-1.0"}}, {"uniqueid": "w75605276:a31632736", "current_trial": 17, "dateTime": 1693566057807, "trialdata": {"revealed_states": [], "clicked_states": ["33", "32", "25"], "num_clicks_accrued": [0, 0, 0, 0, 0, 0, 0, 0, 0, 0, 0, 0, 0], "stateRewards": ["", 2, 3, -2, -8, -8, -41, 74, 15, -23, -80, 1, 1, 3, 3, -15, -63, -78, 67, 13, 75, -41, 86, 2, -2, 6, -3, -8, -49, 50, -6, 83, 74, 80], "withholdReward": false, "trial_id": "mdp_trial_3", "block": "test", "trialIndex": 6, "score": 74.75, "costs": -5.25, "simulationMode": [null, null, null, null, null], "rewards": [2, -2, 6, -6, 80], "path": ["0", "0", "23", "24", "25", "30", "33"], "rt": [13204, 337, 254, 585, 780], "actions": ["left", "left", "left", "down", "left"], "actionTimes": [17596, 18437, 19202, 20302, 21595], "queries": {"click": {"state": {"target": ["33", "32", "25"], "time": [6316, 9941, 14239]}, "edge": {"target": [], "time": []}}, "mouseover": {"state": {"target": ["23", "24", "25", "33", "32", "30", "25"], "time": [5355, 5406, 5489, 5789, 8040, 12807, 13157]}, "edge": {"target": [], "time": []}}, "mouseout": {"state": {"target": ["0", "23", "24", "25", "33", "32", "30", "25", "24"], "time": [3153, 5373, 5439, 5538, 7674, 12529, 13024, 23728, 23829]}, "edge": {"target": [], "time": []}}}, "displayed_time": "22.10", "trialTime": 26642, "trial_type": "mouselab-mdp", "trial_index": 17, "time_elapsed": 1293807, "internal_node_id": "0.0-6.0-1.0-2.0"}}, {"uniqueid": "w75605276:a31632736", "current_trial": 18, "dateTime": 1693566110954, "trialdata": {"revealed_states": [], "clicked_states": ["14", "21", "20", "22", "33", "32", "5", "9"], "num_clicks_accrued": [0, 0, 0, 0, 0, 0, 0, 0, 0, 0, 0, 0, 0], "stateRewards": ["", -1, -2, -1, -10, -57, 73, -72, -16, 75, -14, -46, -2, -3, -7, -1, -61, -60, 76, -4, 50, 4, 14, 2, 2, -7, 12, -65, -32, 15, -8, -76, -25, -61], "withholdReward": false, "trial_id": "mdp_trial_4", "block": "test", "trialIndex": 7, "score": 39, "costs": -16, "simulationMode": [null, null, null, null, null], "rewards": [-1, -2, -1, -16, 75], "path": ["0", "0", "1", "2", "3", "8", "9"], "rt": [36553, 238, 229, 668, 834], "actions": ["up", "up", "up", "left", "up"], "actionTimes": [42843, 43604, 44347, 45516, 46853], "queries": {"click": {"state": {"target": ["14", "21", "20", "22", "33", "32", "5", "9"], "time": [8883, 10845, 14197, 18673, 23396, 27578, 32650, 36853]}, "edge": {"target": [], "time": []}}, "mouseover": {"state": {"target": ["0", "13", "14", "19", "21", "20", "19", "22", "31", "30", "33", "32", "31", "23", "1", "2", "4", "5", "9"], "time": [7116, 7966, 8183, 10000, 10301, 12937, 16756, 17036, 22237, 22320, 22537, 27121, 31357, 31573, 31639, 31675, 31740, 31808, 36407]}, "edge": {"target": [], "time": []}}, "mouseout": {"state": {"target": ["0", "0", "13", "14", "19", "21", "20", "19", "22", "31", "30", "33", "32", "31", "23", "1", "2", "4", "5", "9", "8", "10"], "time": [5197, 7167, 8066, 9934, 10150, 12619, 16671, 16887, 21986, 22271, 22454, 26855, 31123, 31523, 31592, 31657, 31693, 31775, 36025, 49178, 49261, 49361]}, "edge": {"target": [], "time": []}}}, "displayed_time": "47.38", "trialTime": 52342, "trial_type": "mouselab-mdp", "trial_index": 18, "time_elapsed": 1346953, "internal_node_id": "0.0-6.0-1.0-3.0"}}, {"uniqueid": "w75605276:a31632736", "current_trial": 19, "dateTime": 1693566174721, "trialdata": {"revealed_states": [], "clicked_states": ["9", "5", "6", "11", "33", "31", "32", "22", "21", "20"], "num_clicks_accrued": [0, 0, 0, 0, 0, 0, 0, 0, 0, 0, 0, 0, 0], "stateRewards": ["", 1, 1, 1, 15, -76, 52, -32, 14, -57, 37, 49, 1, -4, -3, 6, 83, -76, 25, 9, 36, -1, -17, -1, 4, 4, -2, -22, -21, 58, -15, -57, 49, -24], "withholdReward": false, "trial_id": "mdp_trial_5", "block": "test", "trialIndex": 8, "score": 44.5, "costs": -21.499999999999996, "simulationMode": [null, null, null, null, null], "rewards": [1, 1, 1, 14, 49], "path": ["0", "0", "1", "2", "3", "8", "11"], "rt": [51438, 112, 26, 346, 302], "actions": ["up", "up", "up", "left", "left"], "actionTimes": [54896, 55521, 56047, 56917, 57736], "queries": {"click": {"state": {"target": ["9", "5", "6", "11", "33", "31", "32", "22", "21", "20"], "time": [5181, 8817, 13256, 17693, 22361, 26826, 30995, 35391, 40984, 45573]}, "edge": {"target": [], "time": []}}, "mouseover": {"state": {"target": ["8", "9", "5", "4", "6", "4", "8", "11", "27", "26", "33", "31", "32", "22", "21", "20", "0", "23", "28", "29"], "time": [4367, 4534, 8218, 12553, 12820, 16789, 17073, 17191, 21319, 21418, 21667, 26212, 30405, 35012, 40444, 44845, 50130, 50663, 50730, 51013]}, "edge": {"target": [], "time": []}}, "mouseout": {"state": {"target": ["23", "8", "9", "5", "4", "6", "4", "8", "11", "27", "26", "33", "31", "32", "22", "21", "20", "0", "23", "28", "29", "25"], "time": [1922, 4467, 7153, 12219, 12587, 16707, 16907, 17109, 21274, 21346, 21446, 25875, 30282, 34392, 38795, 41204, 49746, 50148, 50681, 50747, 60783, 60932]}, "edge": {"target": [], "time": []}}}, "displayed_time": "58.24", "trialTime": 62945, "trial_type": "mouselab-mdp", "trial_index": 19, "time_elapsed": 1410720, "internal_node_id": "0.0-6.0-1.0-4.0"}}, {"uniqueid": "w75605276:a31632736", "current_trial": 20, "dateTime": 1693566201927, "trialdata": {"revealed_states": [], "clicked_states": ["9"], "num_clicks_accrued": [0, 0, 0, 0, 0, 0, 0, 0, 0, 0, 0, 0, 0], "stateRewards": ["", 2, -4, -4, 13, -80, 62, 13, -11, 57, -13, -44, 1, 4, 3, -4, -29, -88, 15, 16, -58, 68, -45, -1, -3, -1, -9, -44, -86, -19, -7, -36, 59, 66], "withholdReward": false, "trial_id": "mdp_trial_6", "block": "test", "trialIndex": 9, "score": 37.85, "costs": -2.15, "simulationMode": [null, null, null, null, null], "rewards": [2, -4, -4, -11, 57], "path": ["0", "0", "1", "2", "3", "8", "9"], "rt": [11569, 90, 205, 420, 589], "actions": ["up", "up", "up", "left", "up"], "actionTimes": [17858, 18453, 19186, 20114, 21216], "queries": {"click": {"state": {"target": ["9"], "time": [9251]}, "edge": {"target": [], "time": []}}, "mouseover": {"state": {"target": ["1", "2", "3", "9", "11", "8", "5", "4", "6"], "time": [8018, 8201, 8500, 8730, 12888, 13552, 13819, 14037, 14204]}, "edge": {"target": [], "time": []}}, "mouseout": {"state": {"target": ["25", "30", "31", "0", "1", "2", "3", "9", "11", "8", "5", "4", "6", "0"], "time": [1430, 4648, 4698, 5337, 8133, 8267, 8722, 12569, 13470, 13637, 13953, 14119, 23122, 25390]}, "edge": {"target": [], "time": []}}}, "displayed_time": "21.73", "trialTime": 26367, "trial_type": "mouselab-mdp", "trial_index": 20, "time_elapsed": 1437927, "internal_node_id": "0.0-6.0-1.0-5.0"}}, {"uniqueid": "w75605276:a31632736", "current_trial": 21, "dateTime": 1693566257636, "trialdata": {"revealed_states": [], "clicked_states": ["9", "5", "16", "17", "21", "22", "27", "29", "32", "33"], "num_clicks_accrued": [0, 0, 0, 0, 0, 0, 0, 0, 0, 0, 0, 0, 0], "stateRewards": ["", 2, 4, -3, 16, -58, 30, -35, 11, -60, 47, 27, -2, -1, -7, -16, 23, -70, 68, -10, -65, -43, -34, -2, 1, 7, 9, -63, 34, -31, -8, -12, -86, 59], "withholdReward": false, "trial_id": "mdp_trial_7", "block": "test", "trialIndex": 10, "score": 35.5, "costs": -21.499999999999996, "simulationMode": [null, null, null, null, null], "rewards": [-2, 1, 7, -8, 59], "path": ["0", "0", "23", "24", "25", "30", "33"], "rt": [43513, 897, 426, 661, 579], "actions": ["left", "left", "left", "down", "left"], "actionTimes": [45848, 47281, 48268, 49454, 50561], "queries": {"click": {"state": {"target": ["9", "5", "16", "17", "21", "22", "27", "29", "32", "33"], "time": [4068, 7881, 13075, 17116, 21230, 25453, 29066, 32649, 36287, 40520]}, "edge": {"target": [], "time": []}}, "mouseover": {"state": {"target": ["1", "9", "5", "4", "6", "15", "15", "16", "15", "17", "19", "21", "22", "31", "24", "26", "27", "29", "32", "33"], "time": [2962, 3262, 7030, 11415, 11632, 12049, 12217, 12432, 14578, 16683, 20467, 20817, 24884, 26966, 27505, 27607, 27721, 30873, 34856, 40005]}, "edge": {"target": [], "time": []}}, "mouseout": {"state": {"target": ["0", "1", "9", "5", "5", "4", "6", "15", "15", "16", "15", "17", "19", "21", "21", "22", "31", "24", "26", "27", "27", "29", "29", "32", "33", "30", "31"], "time": [993, 3012, 5492, 8099, 9267, 11465, 11882, 12116, 12249, 14433, 16567, 20233, 20551, 21451, 23805, 26729, 27471, 27534, 27674, 29286, 30438, 32870, 33826, 39608, 40739, 52659, 52775]}, "edge": {"target": [], "time": []}}}, "displayed_time": "51.12", "trialTime": 54931, "trial_type": "mouselab-mdp", "trial_index": 21, "time_elapsed": 1493635, "internal_node_id": "0.0-6.0-1.0-6.0"}}, {"uniqueid": "w75605276:a31632736", "current_trial": 22, "dateTime": 1693566285788, "trialdata": {"revealed_states": [], "clicked_states": [], "num_clicks_accrued": [0, 0, 0, 0, 0, 0, 0, 0, 0, 0, 0, 0, 0], "stateRewards": ["", -2, -3, 7, -13, 60, 9, 37, -6, 37, 20, 1, 2, -2, -8, 6, -80, -31, -10, -7, 70, -65, -44, -1, 1, 7, 6, -11, 73, -85, 16, -21, 47, 34], "withholdReward": false, "trial_id": "mdp_trial_8", "block": "test", "trialIndex": 11, "score": -3, "costs": 0, "simulationMode": [null, null, null, null, null], "rewards": [-2, -3, 7, -6, 1], "path": ["0", "0", "1", "2", "3", "8", "11"], "rt": [14148, 268, 179, 4588, 255], "actions": ["up", "up", "up", "left", "left"], "actionTimes": [16406, 17205, 17896, 22988, 23761], "queries": {"click": {"state": {"target": [], "time": []}, "edge": {"target": [], "time": []}}, "mouseover": {"state": {"target": ["0", "25", "29"], "time": [3740, 4606, 4987]}, "edge": {"target": [], "time": []}}, "mouseout": {"state": {"target": ["0", "0", "25", "29", "30"], "time": [1103, 3758, 4722, 26130, 26313]}, "edge": {"target": [], "time": []}}}, "displayed_time": "24.28", "trialTime": 27278, "trial_type": "mouselab-mdp", "trial_index": 22, "time_elapsed": 1521787, "internal_node_id": "0.0-6.0-1.0-7.0"}}, {"uniqueid": "w75605276:a31632736", "current_trial": 23, "dateTime": 1693566321161, "trialdata": {"revealed_states": [], "clicked_states": ["5", "9", "11", "6", "33", "32"], "num_clicks_accrued": [0, 0, 0, 0, 0, 0, 0, 0, 0, 0, 0, 0, 0], "stateRewards": ["", 1, -1, 4, 5, -32, 18, 20, 6, -88, -74, 9, -2, 1, -2, -14, 34, -77, -38, -1, 80, -36, 73, 2, 3, -8, 10, -48, -73, -71, -11, -22, 20, 54], "withholdReward": false, "trial_id": "mdp_trial_9", "block": "test", "trialIndex": 12, "score": 27.1, "costs": -12.9, "simulationMode": [null, null, null, null, null], "rewards": [2, 3, -8, -11, 54], "path": ["0", "0", "23", "24", "25", "30", "33"], "rt": [25240, 52, 223, 590, 569], "actions": ["left", "left", "left", "down", "left"], "actionTimes": [28547, 29132, 29897, 31032, 32115], "queries": {"click": {"state": {"target": ["5", "9", "11", "6", "33", "32"], "time": [4835, 8356, 12069, 15681, 20188, 24444]}, "edge": {"target": [], "time": []}}, "mouseover": {"state": {"target": ["1", "2", "4", "5", "9", "11", "8", "3", "4", "6", "2", "24", "31", "30", "33", "30", "32"], "time": [3939, 4006, 4156, 4273, 6259, 9729, 13087, 13156, 13227, 13298, 16559, 17541, 18727, 19010, 19178, 23696, 23829]}, "edge": {"target": [], "time": []}}, "mouseout": {"state": {"target": ["30", "31", "0", "1", "2", "4", "5", "9", "9", "11", "8", "3", "4", "6", "2", "24", "31", "30", "33", "30", "32"], "time": [1320, 1487, 2304, 3972, 4024, 4190, 6059, 8573, 9363, 13048, 13123, 13190, 13263, 16499, 16609, 17635, 18746, 19127, 23594, 23713, 25673]}, "edge": {"target": [], "time": []}}}, "displayed_time": "32.63", "trialTime": 34511, "trial_type": "mouselab-mdp", "trial_index": 23, "time_elapsed": 1557160, "internal_node_id": "0.0-6.0-1.0-8.0"}}, {"uniqueid": "w75605276:a31632736", "current_trial": 24, "dateTime": 1693566365210, "trialdata": {"revealed_states": [], "clicked_states": ["21", "22", "16", "32", "27", "9", "5"], "num_clicks_accrued": [0, 0, 0, 0, 0, 0, 0, 0, 0, 0, 0, 0, 0], "stateRewards": ["", -2, -3, 1, -7, 39, -67, 16, 5, -20, 73, 66, -1, 4, 5, -3, 23, -68, -87, -8, 3, -3, 17, 1, -4, -2, -13, -32, 34, 61, -5, -11, -18, 12], "withholdReward": false, "trial_id": "mdp_trial_10", "block": "test", "trialIndex": 13, "score": 12.95, "costs": -15.05, "simulationMode": [null, null, null, null, null], "rewards": [-2, -3, 1, -7, 39], "path": ["0", "0", "1", "2", "3", "4", "5"], "rt": [31598, 121, 177, 654, 1710], "actions": ["up", "up", "up", "right", "up"], "actionTimes": [35664, 36322, 37026, 38187, 40443], "queries": {"click": {"state": {"target": ["21", "22", "16", "32", "27", "9", "5"], "time": [5992, 10018, 14158, 18103, 21854, 26107, 30385]}, "edge": {"target": [], "time": []}}, "mouseover": {"state": {"target": ["12", "13", "21", "22", "12", "13", "18", "15", "16", "25", "33", "32", "30", "25", "26", "27", "11", "9", "5", "4"], "time": [4927, 5027, 5511, 9329, 12568, 12683, 12835, 13000, 13182, 15284, 15385, 17249, 19755, 19904, 20087, 20472, 25384, 25584, 30018, 34135]}, "edge": {"target": [], "time": []}}, "mouseout": {"state": {"target": ["31", "23", "0", "0", "0", "12", "13", "21", "22", "12", "13", "18", "15", "16", "25", "33", "32", "30", "25", "26", "27", "11", "9", "9", "9", "5"], "time": [1190, 1313, 1465, 2426, 2925, 4978, 5112, 8600, 11208, 12636, 12719, 12870, 13115, 15062, 15321, 16569, 19653, 19821, 20020, 20235, 22073, 25433, 26322, 27672, 29584, 33786]}, "edge": {"target": [], "time": []}}}, "displayed_time": "40.95", "trialTime": 43121, "trial_type": "mouselab-mdp", "trial_index": 24, "time_elapsed": 1601210, "internal_node_id": "0.0-6.0-1.0-9.0"}}, {"uniqueid": "w75605276:a31632736", "current_trial": 25, "dateTime": 1693566396991, "trialdata": {"revealed_states": [], "clicked_states": ["24", "27", "32"], "num_clicks_accrued": [0, 0, 0, 0, 0, 0, 0, 0, 0, 0, 0, 0, 0], "stateRewards": ["", -2, 3, -1, 2, -72, 63, 20, -1, 62, -66, 39, -2, 3, -6, 14, 22, 47, 1, 8, -49, -1, -41, 2, 2, -6, -16, -64, -60, -34, 16, 54, 22, -7], "withholdReward": false, "trial_id": "mdp_trial_11", "block": "test", "trialIndex": 14, "score": -50.65, "costs": -4.65, "simulationMode": [null, null, null, null, null], "rewards": [-2, 3, -6, 8, -49], "path": ["0", "0", "12", "13", "14", "19", "20"], "rt": [19554, 369, 177, 765, 303], "actions": ["right", "right", "right", "down", "right"], "actionTimes": [22743, 23624, 24338, 25623, 26467], "queries": {"click": {"state": {"target": ["24", "27", "32"], "time": [6178, 9112, 13004]}, "edge": {"target": [], "time": []}}, "mouseover": {"state": {"target": ["23", "24", "25", "27", "26", "30", "32", "30", "29", "12", "20"], "time": [5524, 5639, 8174, 8623, 10935, 11996, 12194, 16962, 17162, 18196, 18693]}, "edge": {"target": [], "time": []}}, "mouseout": {"state": {"target": ["5", "2", "1", "0", "23", "24", "24", "25", "27", "27", "26", "30", "32", "30", "29", "12", "20", "19", "22"], "time": [1003, 1471, 1953, 2219, 5572, 6403, 7825, 8209, 9329, 10897, 11010, 12027, 15028, 16995, 18113, 18220, 28779, 28912, 28995]}, "edge": {"target": [], "time": []}}}, "displayed_time": "26.97", "trialTime": 30501, "trial_type": "mouselab-mdp", "trial_index": 25, "time_elapsed": 1632990, "internal_node_id": "0.0-6.0-1.0-10.0"}}, {"uniqueid": "w75605276:a31632736", "current_trial": 26, "dateTime": 1693566444308, "trialdata": {"revealed_states": [], "clicked_states": ["32", "27", "33", "21", "16", "17", "5", "9"], "num_clicks_accrued": [0, 0, 0, 0, 0, 0, 0, 0, 0, 0, 0, 0, 0], "stateRewards": ["", 1, 2, -3, -5, 66, -50, -47, -5, 1, 28, -27, 1, 1, -1, -6, 37, -25, 56, 1, -82, -66, -40, -1, -4, -7, 15, -61, -23, 26, 10, 14, -56, 29], "withholdReward": false, "trial_id": "mdp_trial_12", "block": "test", "trialIndex": 15, "score": 43.8, "costs": -17.2, "simulationMode": [null, null, null, null, null], "rewards": [1, 2, -3, -5, 66], "path": ["0", "0", "1", "2", "3", "4", "5"], "rt": [34031, 1616, 18, 327, 568], "actions": ["up", "up", "up", "right", "up"], "actionTimes": [37067, 39200, 39751, 40629, 41744], "queries": {"click": {"state": {"target": ["32", "27", "33", "21", "16", "17", "5", "9"], "time": [4951, 8857, 13309, 17385, 21193, 25043, 28640, 32152]}, "edge": {"target": [], "time": []}}, "mouseover": {"state": {"target": ["23", "31", "30", "32", "30", "25", "26", "27", "28", "24", "33", "30", "31", "21", "21", "19", "14", "15", "16", "17", "15", "7", "4", "5", "9"], "time": [3854, 3971, 4203, 4491, 6427, 6511, 6660, 7193, 10478, 12423, 12807, 13962, 14030, 15107, 16941, 18183, 18279, 18365, 18448, 22814, 26275, 26402, 26466, 26592, 29617]}, "edge": {"target": [], "time": []}}, "mouseout": {"state": {"target": ["0", "23", "31", "30", "32", "30", "25", "26", "27", "28", "24", "33", "30", "31", "21", "21", "19", "14", "15", "16", "17", "15", "7", "4", "5", "9"], "time": [2085, 3871, 4021, 4238, 6359, 6466, 6576, 6893, 10294, 10511, 12473, 13527, 13997, 14072, 16492, 17612, 18236, 18320, 18404, 22287, 26238, 26312, 26451, 26534, 29516, 32476]}, "edge": {"target": [], "time": []}}}, "displayed_time": "42.28", "trialTime": 46541, "trial_type": "mouselab-mdp", "trial_index": 26, "time_elapsed": 1680307, "internal_node_id": "0.0-6.0-1.0-11.0"}}, {"uniqueid": "w75605276:a31632736", "current_trial": 27, "dateTime": 1693566466734, "trialdata": {"revealed_states": [], "clicked_states": ["9", "5"], "num_clicks_accrued": [0, 0, 0, 0, 0, 0, 0, 0, 0, 0, 0, 0, 0], "stateRewards": ["", -1, 1, -2, 5, 73, 15, 61, 8, 7, 38, 76, 2, 2, -4, -6, -6, -26, 43, -5, -45, -85, -35, -2, 1, -4, 15, -10, 69, 72, -11, 84, -49, -38], "withholdReward": false, "trial_id": "mdp_trial_13", "block": "test", "trialIndex": 16, "score": 71.7, "costs": -4.3, "simulationMode": [null, null, null, null, null], "rewards": [-1, 1, -2, 5, 73], "path": ["0", "0", "1", "2", "3", "4", "5"], "rt": [11078, 112, 305, 433, 510], "actions": ["up", "up", "up", "right", "up"], "actionTimes": [14319, 14947, 15790, 16749, 17773], "queries": {"click": {"state": {"target": ["9", "5"], "time": [5130, 9236]}, "edge": {"target": [], "time": []}}, "mouseover": {"state": {"target": ["10", "8", "9", "8", "3", "5", "28", "25", "30", "32"], "time": [4217, 4317, 4550, 6310, 8545, 8787, 10226, 10373, 11006, 11295]}, "edge": {"target": [], "time": []}}, "mouseout": {"state": {"target": ["0", "10", "8", "9", "8", "3", "5", "28", "25", "30", "32"], "time": [2281, 4267, 4383, 6254, 6441, 8579, 9472, 10263, 10440, 11174, 20472]}, "edge": {"target": [], "time": []}}}, "displayed_time": "18.28", "trialTime": 21634, "trial_type": "mouselab-mdp", "trial_index": 27, "time_elapsed": 1702733, "internal_node_id": "0.0-6.0-1.0-12.0"}}, {"uniqueid": "w75605276:a31632736", "current_trial": 28, "dateTime": 1693566489970, "trialdata": {"revealed_states": [], "clicked_states": ["9", "5"], "num_clicks_accrued": [0, 0, 0, 0, 0, 0, 0, 0, 0, 0, 0, 0, 0], "stateRewards": ["", 2, -2, -8, 9, -20, 55, -58, 14, 42, 2, 36, 1, -3, -5, 5, -58, 57, 60, 16, 57, 30, -70, -2, 1, 3, 10, 59, 23, 77, -13, -26, 88, -72], "withholdReward": false, "trial_id": "mdp_trial_14", "block": "test", "trialIndex": 17, "score": 43.7, "costs": -4.3, "simulationMode": [null, null, null, null, null], "rewards": [2, -2, -8, 14, 42], "path": ["0", "0", "1", "2", "3", "8", "9"], "rt": [10910, 35, 99, 276, 452], "actions": ["up", "up", "up", "left", "up"], "actionTimes": [14191, 14737, 15385, 16214, 17184], "queries": {"click": {"state": {"target": ["9", "5"], "time": [5228, 9558]}, "edge": {"target": [], "time": []}}, "mouseover": {"state": {"target": ["1", "2", "9", "5"], "time": [4266, 4350, 4683, 9084]}, "edge": {"target": [], "time": []}}, "mouseout": {"state": {"target": ["1", "2", "9", "5"], "time": [4333, 4382, 8800, 11824]}, "edge": {"target": [], "time": []}}}, "displayed_time": "17.72", "trialTime": 22228, "trial_type": "mouselab-mdp", "trial_index": 28, "time_elapsed": 1725969, "internal_node_id": "0.0-6.0-1.0-13.0"}}, {"uniqueid": "w75605276:a31632736", "current_trial": 29, "dateTime": 1693566520207, "trialdata": {"revealed_states": [], "clicked_states": ["9", "5", "32", "21"], "num_clicks_accrued": [0, 0, 0, 0, 0, 0, 0, 0, 0, 0, 0, 0, 0], "stateRewards": ["", -2, -1, -1, 5, -54, -87, 35, 2, -8, 20, -22, 1, 3, 6, 13, -75, -32, -55, -3, 56, 62, -22, -1, -4, -1, -7, -51, 84, 70, 7, -15, 5, 55], "withholdReward": false, "trial_id": "mdp_trial_15", "block": "test", "trialIndex": 18, "score": 60.4, "costs": -8.6, "simulationMode": [null, null, null, null, null], "rewards": [1, 3, 6, -3, 62], "path": ["0", "0", "12", "13", "14", "19", "21"], "rt": [18814, 159, 222, 508, 165], "actions": ["right", "right", "right", "down", "down"], "actionTimes": [22171, 22886, 23639, 24659, 25354], "queries": {"click": {"state": {"target": ["9", "5", "32", "21"], "time": [5626, 9367, 13220, 17596]}, "edge": {"target": [], "time": []}}, "mouseover": {"state": {"target": ["10", "8", "9", "5", "25", "32", "30", "25", "26", "26", "24", "21", "20", "17", "16"], "time": [4769, 4852, 5118, 7891, 10378, 10940, 15560, 15759, 15909, 16176, 16323, 17105, 18745, 18979, 19779]}, "edge": {"target": [], "time": []}}, "mouseout": {"state": {"target": ["2", "1", "0", "10", "8", "9", "5", "25", "32", "30", "25", "26", "26", "24", "21", "20", "17", "16", "13"], "time": [2016, 2049, 2382, 4818, 4951, 7476, 10344, 10409, 13435, 15644, 15876, 16144, 16257, 16344, 18677, 18794, 19412, 21227, 28476]}, "edge": {"target": [], "time": []}}}, "displayed_time": "25.87", "trialTime": 29412, "trial_type": "mouselab-mdp", "trial_index": 29, "time_elapsed": 1756206, "internal_node_id": "0.0-6.0-1.0-14.0"}}, {"uniqueid": "w75605276:a31632736", "current_trial": 30, "dateTime": 1693566541993, "trialdata": {"revealed_states": [], "clicked_states": ["32", "21"], "num_clicks_accrued": [0, 0, 0, 0, 0, 0, 0, 0, 0, 0, 0, 0, 0], "stateRewards": ["", 1, 2, 8, -2, 23, -69, -18, -16, 54, -21, 71, -1, -4, 7, 11, 43, -6, 88, 6, -55, 72, 43, 1, -3, -2, -1, 68, -31, -54, 4, -8, 25, -2], "withholdReward": false, "trial_id": "mdp_trial_16", "block": "test", "trialIndex": 19, "score": 75.7, "costs": -4.3, "simulationMode": [null, null, null, null, null], "rewards": [-1, -4, 7, 6, 72], "path": ["0", "0", "12", "13", "14", "19", "21"], "rt": [10913, 127, 166, 398, 155], "actions": ["right", "right", "right", "down", "down"], "actionTimes": [14372, 15068, 15752, 16669, 17363], "queries": {"click": {"state": {"target": ["32", "21"], "time": [5518, 9563]}, "edge": {"target": [], "time": []}}, "mouseover": {"state": {"target": ["23", "32", "21"], "time": [4655, 5056, 9106]}, "edge": {"target": [], "time": []}}, "mouseout": {"state": {"target": ["0", "23", "32", "21"], "time": [2265, 4673, 5730, 9802]}, "edge": {"target": [], "time": []}}}, "displayed_time": "17.89", "trialTime": 20711, "trial_type": "mouselab-mdp", "trial_index": 30, "time_elapsed": 1777993, "internal_node_id": "0.0-6.0-1.0-15.0"}}, {"uniqueid": "w75605276:a31632736", "current_trial": 31, "dateTime": 1693566567259, "trialdata": {"revealed_states": [], "clicked_states": ["9"], "num_clicks_accrued": [0, 0, 0, 0, 0, 0, 0, 0, 0, 0, 0, 0, 0], "stateRewards": ["", 1, 2, 7, 13, 88, -71, 27, 3, 60, 5, -53, -2, 2, -6, -1, -30, 79, 47, -4, -14, 46, 68, 1, 1, 8, 10, -14, 86, 48, -11, -67, -44, 5], "withholdReward": false, "trial_id": "mdp_trial_17", "block": "test", "trialIndex": 20, "score": 70.85, "costs": -2.15, "simulationMode": [null, null, null, null, null], "rewards": [1, 2, 7, 3, 60], "path": ["0", "0", "1", "2", "3", "8", "9"], "rt": [7015, 5, 255, 521, 571], "actions": ["up", "up", "up", "left", "up"], "actionTimes": [12920, 13439, 14217, 15286, 16368], "queries": {"click": {"state": {"target": ["9"], "time": [7882]}, "edge": {"target": [], "time": []}}, "mouseover": {"state": {"target": ["10", "8", "9", "26", "25", "30", "32", "24"], "time": [7016, 7082, 7183, 8871, 8954, 9104, 9304, 11668]}, "edge": {"target": [], "time": []}}, "mouseout": {"state": {"target": ["0", "10", "8", "9", "26", "25", "30", "32", "24", "23"], "time": [4279, 7048, 7148, 8653, 8919, 9037, 9237, 11567, 11716, 21953]}, "edge": {"target": [], "time": []}}}, "displayed_time": "19.91", "trialTime": 23994, "trial_type": "mouselab-mdp", "trial_index": 31, "time_elapsed": 1803258, "internal_node_id": "0.0-6.0-1.0-16.0"}}, {"uniqueid": "w75605276:a31632736", "current_trial": 32, "dateTime": 1693566590275, "trialdata": {"revealed_states": [], "clicked_states": ["5", "9"], "num_clicks_accrued": [0, 0, 0, 0, 0, 0, 0, 0, 0, 0, 0, 0, 0], "stateRewards": ["", 2, -1, -1, 7, 11, -40, -22, -2, 69, 37, 8, -2, 4, -8, -12, -2, -72, -3, -12, 17, 63, 12, 1, 3, -7, 6, 25, 61, 61, -9, 28, -17, 27], "withholdReward": false, "trial_id": "mdp_trial_18", "block": "test", "trialIndex": 21, "score": 62.7, "costs": -4.3, "simulationMode": [null, null, null, null, null], "rewards": [2, -1, -1, -2, 69], "path": ["0", "0", "1", "2", "3", "8", "9"], "rt": [11143, 66, 119, 261, 749], "actions": ["up", "up", "up", "left", "up"], "actionTimes": [14290, 14874, 15536, 16319, 17592], "queries": {"click": {"state": {"target": ["5", "9"], "time": [4987, 9583]}, "edge": {"target": [], "time": []}}, "mouseover": {"state": {"target": ["1", "4", "5", "4", "7", "3", "9", "9", "11", "26", "25", "30"], "time": [3927, 4076, 4210, 7113, 7231, 8694, 8780, 9150, 10428, 10668, 10752, 11401]}, "edge": {"target": [], "time": []}}, "mouseout": {"state": {"target": ["23", "1", "4", "5", "4", "7", "3", "9", "9", "11", "26", "25", "30", "32"], "time": [1494, 3976, 4143, 7061, 7179, 8602, 8712, 8880, 10391, 10466, 10706, 11353, 11533, 21164]}, "edge": {"target": [], "time": []}}}, "displayed_time": "18.11", "trialTime": 22034, "trial_type": "mouselab-mdp", "trial_index": 32, "time_elapsed": 1826274, "internal_node_id": "0.0-6.0-1.0-17.0"}}, {"uniqueid": "w75605276:a31632736", "current_trial": 33, "dateTime": 1693566612408, "trialdata": {"revealed_states": [], "clicked_states": ["32", "27"], "num_clicks_accrued": [0, 0, 0, 0, 0, 0, 0, 0, 0, 0, 0, 0, 0], "stateRewards": ["", 1, -1, 1, 13, 31, -56, 72, 2, 41, 5, 63, -2, -3, -2, 3, -71, -26, 52, 13, -31, 24, -67, 2, -2, 5, 4, 66, 43, 72, 9, 86, -26, 44], "withholdReward": false, "trial_id": "mdp_trial_19", "block": "test", "trialIndex": 22, "score": 70.7, "costs": -4.3, "simulationMode": [null, null, null, null, null], "rewards": [2, -2, 5, 4, 66], "path": ["0", "0", "23", "24", "25", "26", "27"], "rt": [11097, 157, 137, 470, 44], "actions": ["left", "left", "left", "up", "up"], "actionTimes": [14349, 15042, 15722, 16744, 17316], "queries": {"click": {"state": {"target": ["32", "27"], "time": [5595, 10026]}, "edge": {"target": [], "time": []}}, "mouseover": {"state": {"target": ["32", "31", "25", "26", "27"], "time": [5067, 6989, 9203, 9321, 9542]}, "edge": {"target": [], "time": []}}, "mouseout": {"state": {"target": ["23", "0", "32", "31", "25", "26", "27", "28"], "time": [1589, 2114, 6762, 7341, 9287, 9486, 19804, 19989]}, "edge": {"target": [], "time": []}}}, "displayed_time": "17.94", "trialTime": 21185, "trial_type": "mouselab-mdp", "trial_index": 33, "time_elapsed": 1848407, "internal_node_id": "0.0-6.0-1.0-18.0"}}, {"uniqueid": "w75605276:a31632736", "current_trial": 34, "dateTime": 1693566638987, "trialdata": {"revealed_states": [], "clicked_states": ["27", "9", "21"], "num_clicks_accrued": [0, 0, 0, 0, 0, 0, 0, 0, 0, 0, 0, 0, 0], "stateRewards": ["", 2, 3, -3, 4, 72, -28, 34, -12, 57, -64, -15, 2, 1, -4, -15, 2, 49, 31, -1, -42, -58, 31, -2, 1, -2, -13, -75, -19, -22, -6, 61, 10, -56], "withholdReward": false, "trial_id": "mdp_trial_20", "block": "test", "trialIndex": 23, "score": 40.55, "costs": -6.449999999999999, "simulationMode": [null, null, null, null, null], "rewards": [2, 3, -3, -12, 57], "path": ["0", "0", "1", "2", "3", "8", "9"], "rt": [15901, 84, 75, 411, 279], "actions": ["up", "up", "up", "left", "up"], "actionTimes": [18993, 19596, 20229, 21170, 21974], "queries": {"click": {"state": {"target": ["27", "9", "21"], "time": [5021, 9188, 14448]}, "edge": {"target": [], "time": []}}, "mouseover": {"state": {"target": ["23", "28", "26", "27", "26", "26", "9", "3", "4", "15", "14", "19", "21"], "time": [3813, 3879, 3930, 4447, 6851, 8381, 8630, 12866, 12933, 13399, 13450, 13516, 14017]}, "edge": {"target": [], "time": []}}, "mouseout": {"state": {"target": ["23", "0", "23", "28", "26", "27", "27", "26", "26", "9", "3", "4", "15", "14", "19", "21"], "time": [1647, 3779, 3847, 3897, 3980, 5247, 6789, 7588, 8415, 11922, 12900, 12951, 13418, 13485, 13733, 15756]}, "edge": {"target": [], "time": []}}}, "displayed_time": "22.48", "trialTime": 25604, "trial_type": "mouselab-mdp", "trial_index": 34, "time_elapsed": 1874986, "internal_node_id": "0.0-6.0-1.0-19.0"}}, {"uniqueid": "w75605276:a31632736", "current_trial": 35, "dateTime": 1693566682514, "trialdata": {"revealed_states": [], "clicked_states": ["27", "32", "5", "21", "9", "16"], "num_clicks_accrued": [0, 0, 0, 0, 0, 0, 0, 0, 0, 0, 0, 0, 0], "stateRewards": ["", 2, -1, 3, -12, -83, 6, -33, 9, 28, 24, -50, -2, -1, -2, -5, -87, 37, 82, 12, 80, -5, 10, -2, -3, -6, 9, 22, -1, 16, 9, 77, -62, 58], "withholdReward": false, "trial_id": "mdp_trial_21", "block": "test", "trialIndex": 24, "score": 1.1000000000000014, "costs": -12.9, "simulationMode": [null, null, null, null, null], "rewards": [-2, -3, -6, 9, 16], "path": ["0", "0", "23", "24", "25", "26", "29"], "rt": [31023, 318, 262, 579, 1859], "actions": ["left", "left", "left", "up", "left"], "actionTimes": [34347, 35180, 35980, 37116, 39530], "queries": {"click": {"state": {"target": ["27", "32", "5", "21", "9", "16"], "time": [5067, 9392, 13084, 17433, 22275, 26532]}, "edge": {"target": [], "time": []}}, "mouseover": {"state": {"target": ["23", "24", "26", "27", "26", "31", "32", "12", "7", "4", "5", "14", "19", "21", "19", "13", "2", "3", "9", "4", "16", "18", "1", "27"], "time": [4163, 4229, 4311, 4460, 6666, 7116, 8812, 10752, 10864, 10934, 11102, 14253, 16747, 17030, 21032, 21100, 21185, 21218, 21699, 23388, 25949, 28188, 31202, 32323]}, "edge": {"target": [], "time": []}}, "mouseout": {"state": {"target": ["0", "0", "23", "24", "26", "27", "26", "31", "32", "12", "7", "4", "5", "14", "19", "21", "19", "13", "2", "3", "9", "9", "4", "16", "18", "1"], "time": [1825, 4128, 4211, 4260, 4394, 6602, 6832, 7184, 9617, 10786, 10893, 11003, 14065, 14287, 16848, 19120, 21066, 21132, 21209, 21245, 22484, 23294, 23454, 28122, 28288, 31919]}, "edge": {"target": [], "time": []}}}, "displayed_time": "40.05", "trialTime": 42606, "trial_type": "mouselab-mdp", "trial_index": 35, "time_elapsed": 1918514, "internal_node_id": "0.0-6.0-1.0-20.0"}}, {"uniqueid": "w75605276:a31632736", "current_trial": 36, "dateTime": 1693566720218, "trialdata": {"revealed_states": [], "clicked_states": ["27", "32", "9", "5", "21"], "num_clicks_accrued": [0, 0, 0, 0, 0, 0, 0, 0, 0, 0, 0, 0, 0], "stateRewards": ["", -1, 2, 5, -6, 13, -64, -47, 8, -79, -80, -33, 1, 2, -2, -16, 56, -71, -10, 3, 29, 44, 85, -1, 4, 5, 4, -36, -56, 19, 8, 52, -13, -2], "withholdReward": false, "trial_id": "mdp_trial_22", "block": "test", "trialIndex": 25, "score": 37.25, "costs": -10.75, "simulationMode": [null, null, null, null, null], "rewards": [1, 2, -2, 3, 44], "path": ["0", "0", "12", "13", "14", "19", "21"], "rt": [26144, 71, 154, 338, 241], "actions": ["right", "right", "right", "down", "down"], "actionTimes": [29846, 30448, 31163, 32040, 32792], "queries": {"click": {"state": {"target": ["27", "32", "9", "5", "21"], "time": [6478, 11217, 16011, 20433, 24344]}, "edge": {"target": [], "time": []}}, "mouseover": {"state": {"target": ["0", "23", "28", "26", "27", "29", "29", "33", "32", "23", "10", "8", "9", "3", "4", "5", "4", "7", "13", "22", "21", "19", "14", "16"], "time": [4881, 5550, 5613, 5713, 5779, 8536, 10116, 10415, 10615, 15015, 15115, 15243, 15334, 17171, 19683, 19866, 21266, 21429, 22404, 22589, 23403, 25481, 25533, 25739]}, "edge": {"target": [], "time": []}}, "mouseout": {"state": {"target": ["28", "23", "0", "23", "28", "26", "27", "29", "29", "33", "32", "23", "10", "8", "9", "9", "3", "4", "5", "4", "7", "13", "22", "21", "19", "14", "16", "7", "2"], "time": [2125, 2416, 5512, 5570, 5646, 5746, 8320, 8687, 10152, 10449, 12455, 15049, 15165, 15301, 16237, 16989, 17212, 19767, 21207, 21385, 21471, 22474, 22739, 25442, 25519, 25581, 34537, 34704, 34836]}, "edge": {"target": [], "time": []}}}, "displayed_time": "33.32", "trialTime": 36683, "trial_type": "mouselab-mdp", "trial_index": 36, "time_elapsed": 1956217, "internal_node_id": "0.0-6.0-1.0-21.0"}}, {"uniqueid": "w75605276:a31632736", "current_trial": 37, "dateTime": 1693566748065, "trialdata": {"revealed_states": [], "clicked_states": ["32", "9", "5"], "num_clicks_accrued": [0, 0, 0, 0, 0, 0, 0, 0, 0, 0, 0, 0, 0], "stateRewards": ["", 1, 3, 3, -10, 52, 68, 59, 12, 7, 49, 21, -2, -3, -4, -2, -2, 63, 63, -4, 44, 43, -76, -2, -3, -6, 13, 48, 36, 12, -5, -36, -33, -11], "withholdReward": false, "trial_id": "mdp_trial_23", "block": "test", "trialIndex": 26, "score": 42.55, "costs": -6.449999999999999, "simulationMode": [null, null, null, null, null], "rewards": [1, 3, 3, -10, 52], "path": ["0", "0", "1", "2", "3", "4", "5"], "rt": [15719, 762, 185, 284, 551], "actions": ["up", "up", "up", "right", "up"], "actionTimes": [18956, 20267, 20999, 21820, 22905], "queries": {"click": {"state": {"target": ["32", "9", "5"], "time": [5116, 9979, 14189]}, "edge": {"target": [], "time": []}}, "mouseover": {"state": {"target": ["0", "23", "31", "30", "32", "12", "9", "9", "5", "14"], "time": [4231, 4278, 4350, 4433, 4683, 8934, 9168, 9534, 13785, 15008]}, "edge": {"target": [], "time": []}}, "mouseout": {"state": {"target": ["0", "23", "31", "30", "32", "12", "9", "9", "5", "14", "22"], "time": [4250, 4296, 4368, 4550, 5334, 8969, 9201, 10208, 14842, 15574, 24439]}, "edge": {"target": [], "time": []}}}, "displayed_time": "23.45", "trialTime": 26838, "trial_type": "mouselab-mdp", "trial_index": 37, "time_elapsed": 1984064, "internal_node_id": "0.0-6.0-1.0-22.0"}}, {"uniqueid": "w75605276:a31632736", "current_trial": 38, "dateTime": 1693566773519, "trialdata": {"revealed_states": [], "clicked_states": ["5", "32"], "num_clicks_accrued": [0, 0, 0, 0, 0, 0, 0, 0, 0, 0, 0, 0, 0], "stateRewards": ["", -1, 2, 6, 11, 21, -21, -21, -6, 48, -71, 88, -1, -3, 3, 7, 64, 2, 9, -4, 37, -67, 72, 2, 2, -8, -8, -10, 71, -40, -3, 73, 80, 47], "withholdReward": false, "trial_id": "mdp_trial_24", "block": "test", "trialIndex": 27, "score": 68.7, "costs": -4.3, "simulationMode": [null, null, null, null, null], "rewards": [2, 2, -8, -3, 80], "path": ["0", "0", "23", "24", "25", "30", "32"], "rt": [12182, 53, 182, 960, 226], "actions": ["left", "left", "left", "down", "down"], "actionTimes": [15509, 16066, 16791, 18277, 19016], "queries": {"click": {"state": {"target": ["5", "32"], "time": [6084, 10843]}, "edge": {"target": [], "time": []}}, "mouseover": {"state": {"target": ["0", "2", "4", "5", "8", "28", "24", "30", "32"], "time": [4519, 4669, 4786, 4872, 9803, 9903, 9970, 10154, 10433]}, "edge": {"target": [], "time": []}}, "mouseout": {"state": {"target": ["0", "0", "2", "4", "5", "8", "28", "24", "30", "32"], "time": [2266, 4551, 4702, 4821, 7691, 9838, 9936, 10003, 10188, 12242]}, "edge": {"target": [], "time": []}}}, "displayed_time": "19.55", "trialTime": 24422, "trial_type": "mouselab-mdp", "trial_index": 38, "time_elapsed": 2009518, "internal_node_id": "0.0-6.0-1.0-23.0"}}, {"uniqueid": "w75605276:a31632736", "current_trial": 39, "dateTime": 1693566800779, "trialdata": {"revealed_states": [], "clicked_states": ["33", "20", "16"], "num_clicks_accrued": [0, 0, 0, 0, 0, 0, 0, 0, 0, 0, 0, 0, 0], "stateRewards": ["", 1, 1, -7, -9, -44, 24, -83, -15, 44, -24, 72, -2, -3, 4, -5, 57, 55, 29, -11, 22, 12, -25, -1, 2, 7, 12, 33, -8, 47, -4, 8, 50, -4], "withholdReward": false, "trial_id": "mdp_trial_25", "block": "test", "trialIndex": 28, "score": 44.55, "costs": -6.449999999999999, "simulationMode": [null, null, null, null, null], "rewards": [-2, -3, 4, -5, 57], "path": ["0", "0", "12", "13", "14", "15", "16"], "rt": [15984, 194, 314, 454, 314], "actions": ["right", "right", "right", "up", "up"], "actionTimes": [18687, 19405, 20253, 21235, 22086], "queries": {"click": {"state": {"target": ["33", "20", "16"], "time": [4310, 9432, 13986]}, "edge": {"target": [], "time": []}}, "mouseover": {"state": {"target": ["0", "23", "30", "33", "21", "19", "20", "19", "22", "13", "16", "7", "2"], "time": [3404, 3441, 3603, 3721, 8788, 8872, 8923, 10485, 13124, 13176, 13357, 15411, 15527]}, "edge": {"target": [], "time": []}}, "mouseout": {"state": {"target": ["0", "0", "23", "30", "33", "33", "21", "19", "20", "19", "22", "13", "16", "16", "7", "2", "24"], "time": [1868, 3422, 3459, 3637, 4542, 5339, 8822, 8905, 9655, 10526, 13157, 13206, 14288, 15261, 15462, 23909, 24042]}, "edge": {"target": [], "time": []}}}, "displayed_time": "22.62", "trialTime": 26310, "trial_type": "mouselab-mdp", "trial_index": 39, "time_elapsed": 2036778, "internal_node_id": "0.0-6.0-1.0-24.0"}}, {"uniqueid": "w75605276:a31632736", "current_trial": 40, "dateTime": 1693566853588, "trialdata": {"revealed_states": [], "clicked_states": ["27", "32", "29", "6", "20", "21", "16", "9", "5"], "num_clicks_accrued": [0, 0, 0, 0, 0, 0, 0, 0, 0, 0, 0, 0, 0], "stateRewards": ["", -2, 4, -5, -12, 85, -24, -18, -15, -78, -22, 26, -1, -1, 2, 14, -45, 52, -23, 7, -33, 24, -6, -2, -4, 5, -7, -16, 36, -39, 5, 71, -87, -23], "withholdReward": false, "trial_id": "mdp_trial_26", "block": "test", "trialIndex": 29, "score": 50.650000000000006, "costs": -19.349999999999998, "simulationMode": [null, null, null, null, null], "rewards": [-2, 4, -5, -12, 85], "path": ["0", "0", "1", "2", "3", "4", "5"], "rt": [41438, 9, 153, 369, 558], "actions": ["up", "up", "up", "right", "up"], "actionTimes": [44393, 44931, 45616, 46511, 47606], "queries": {"click": {"state": {"target": ["27", "32", "29", "6", "20", "21", "16", "9", "5"], "time": [5056, 9685, 14277, 18344, 22576, 26357, 30734, 35458, 39642]}, "edge": {"target": [], "time": []}}, "mouseover": {"state": {"target": ["23", "26", "27", "27", "29", "30", "32", "30", "29", "26", "28", "7", "4", "6", "17", "20", "19", "21", "19", "22", "12", "18", "16", "18", "0", "10", "8", "9", "5", "4", "7"], "time": [4205, 4289, 4360, 4572, 6441, 9004, 9238, 13389, 13640, 14979, 15057, 15763, 15827, 16163, 19919, 21980, 23776, 24247, 27265, 27417, 29978, 30095, 30329, 31695, 31950, 34596, 34694, 34913, 39197, 42429, 42552]}, "edge": {"target": [], "time": []}}, "mouseout": {"state": {"target": ["25", "30", "0", "23", "26", "27", "27", "27", "29", "30", "32", "30", "29", "26", "28", "7", "4", "6", "17", "20", "19", "21", "19", "22", "12", "18", "16", "18", "0", "10", "8", "9", "5", "4", "7", "1", "0"], "time": [1119, 1486, 1867, 4240, 4323, 4419, 5271, 6307, 8871, 9071, 9912, 13422, 14969, 15017, 15097, 15816, 15894, 19537, 19955, 23736, 23815, 26574, 27381, 27455, 30027, 30161, 31657, 31732, 31985, 34647, 34766, 38997, 42338, 42480, 49567, 49634, 49667]}, "edge": {"target": [], "time": []}}}, "displayed_time": "48.13", "trialTime": 51411, "trial_type": "mouselab-mdp", "trial_index": 40, "time_elapsed": 2089587, "internal_node_id": "0.0-6.0-1.0-25.0"}}, {"uniqueid": "w75605276:a31632736", "current_trial": 41, "dateTime": 1693566891549, "trialdata": {"revealed_states": [], "clicked_states": ["27", "5", "9", "32", "21", "16"], "num_clicks_accrued": [0, 0, 0, 0, 0, 0, 0, 0, 0, 0, 0, 0, 0], "stateRewards": ["", -2, -4, -2, 10, -8, -15, -47, 7, -84, 53, 5, -1, 2, -7, 3, 83, 31, 47, -1, 30, -8, 69, 2, -4, -1, 8, -7, 12, -8, -8, -13, 30, -84], "withholdReward": false, "trial_id": "mdp_trial_27", "block": "test", "trialIndex": 30, "score": 67.1, "costs": -12.9, "simulationMode": [null, null, null, null, null], "rewards": [-1, 2, -7, 3, 83], "path": ["0", "0", "12", "13", "14", "15", "16"], "rt": [27150, 31, 170, 368, 175], "actions": ["right", "right", "right", "up", "up"], "actionTimes": [30916, 31463, 32165, 33047, 33736], "queries": {"click": {"state": {"target": ["27", "5", "9", "32", "21", "16"], "time": [6126, 10301, 14266, 17945, 21759, 26232]}, "edge": {"target": [], "time": []}}, "mouseover": {"state": {"target": ["23", "26", "27", "2", "3", "5", "9", "9", "25", "30", "32", "21", "20", "17", "16", "15"], "time": [4975, 5206, 5306, 9557, 9641, 9874, 11180, 13792, 15143, 15193, 15814, 19949, 23335, 25498, 25664, 28156]}, "edge": {"target": [], "time": []}}, "mouseout": {"state": {"target": ["0", "0", "23", "26", "27", "2", "3", "5", "9", "9", "25", "30", "32", "21", "20", "17", "16", "15", "15", "13", "12"], "time": [2121, 4956, 5039, 5224, 7062, 9607, 9660, 10530, 11630, 14947, 15181, 15232, 18588, 23081, 23373, 25581, 28082, 28417, 35181, 35248, 35298]}, "edge": {"target": [], "time": []}}}, "displayed_time": "34.26", "trialTime": 36527, "trial_type": "mouselab-mdp", "trial_index": 41, "time_elapsed": 2127548, "internal_node_id": "0.0-6.0-1.0-26.0"}}, {"uniqueid": "w75605276:a31632736", "current_trial": 42, "dateTime": 1693566934066, "trialdata": {"revealed_states": [], "clicked_states": ["33", "27", "16", "21", "9", "5"], "num_clicks_accrued": [0, 0, 0, 0, 0, 0, 0, 0, 0, 0, 0, 0, 0], "stateRewards": ["", -2, -1, -3, -1, -78, -6, 2, -1, 22, -88, 32, 2, 2, -7, -8, -51, -17, 54, 2, -44, 54, 75, 2, -2, -8, -15, -29, 12, -67, 15, -1, -47, -47], "withholdReward": false, "trial_id": "mdp_trial_28", "block": "test", "trialIndex": 31, "score": 40.1, "costs": -12.9, "simulationMode": [null, null, null, null, null], "rewards": [2, 2, -7, 2, 54], "path": ["0", "0", "12", "13", "14", "19", "21"], "rt": [28492, 80, 141, 3292, 372], "actions": ["right", "right", "right", "down", "down"], "actionTimes": [31984, 32583, 33262, 37093, 37984], "queries": {"click": {"state": {"target": ["33", "27", "16", "21", "9", "5"], "time": [5742, 10086, 14685, 18578, 22821, 27057]}, "edge": {"target": [], "time": []}}, "mouseover": {"state": {"target": ["31", "30", "33", "31", "24", "26", "27", "1", "16", "17", "20", "21", "0", "10", "8", "9", "5", "4"], "time": [4879, 4945, 5179, 9281, 9320, 9396, 9516, 10836, 13782, 15453, 16971, 18049, 21088, 21321, 21635, 22351, 26619, 28923]}, "edge": {"target": [], "time": []}}, "mouseout": {"state": {"target": ["0", "31", "30", "33", "33", "31", "24", "26", "27", "1", "16", "17", "20", "21", "0", "10", "8", "9", "5", "4"], "time": [4829, 4912, 5062, 5967, 6743, 9301, 9344, 9448, 10707, 10871, 15347, 15522, 17049, 18803, 21139, 21407, 21917, 26284, 28909, 29131]}, "edge": {"target": [], "time": []}}}, "displayed_time": "38.52", "trialTime": 41038, "trial_type": "mouselab-mdp", "trial_index": 42, "time_elapsed": 2170064, "internal_node_id": "0.0-6.0-1.0-27.0"}}, {"uniqueid": "w75605276:a31632736", "current_trial": 43, "dateTime": 1693566959969, "trialdata": {"revealed_states": [], "clicked_states": ["27", "33"], "num_clicks_accrued": [0, 0, 0, 0, 0, 0, 0, 0, 0, 0, 0, 0, 0], "stateRewards": ["", -2, -4, 2, 10, -17, 18, 73, 11, -32, 23, -13, -2, -4, 7, 12, -25, 66, -23, 15, 40, -76, -9, 1, 2, -7, -5, -20, 24, 3, -5, 16, -73, 70], "withholdReward": false, "trial_id": "mdp_trial_29", "block": "test", "trialIndex": 32, "score": 56.7, "costs": -4.3, "simulationMode": [null, null, null, null, null], "rewards": [1, 2, -7, -5, 70], "path": ["0", "0", "23", "24", "25", "30", "33"], "rt": [11151, 721, 184, 526, 262], "actions": ["left", "left", "left", "down", "left"], "actionTimes": [16069, 17322, 18033, 19071, 19856], "queries": {"click": {"state": {"target": ["27", "33"], "time": [7069, 11291]}, "edge": {"target": [], "time": []}}, "mouseover": {"state": {"target": ["23", "24", "26", "27", "33", "30", "31", "13", "14", "15", "16"], "time": [5845, 5913, 6080, 6315, 10696, 11982, 12028, 12918, 12990, 13551, 13951]}, "edge": {"target": [], "time": []}}, "mouseout": {"state": {"target": ["0", "23", "24", "26", "27", "33", "30", "31", "13", "14", "15", "16", "15", "13"], "time": [3976, 5895, 5961, 6180, 8118, 11970, 12017, 12066, 12956, 13456, 13719, 21557, 21706, 21852]}, "edge": {"target": [], "time": []}}}, "displayed_time": "20.38", "trialTime": 24579, "trial_type": "mouselab-mdp", "trial_index": 43, "time_elapsed": 2195968, "internal_node_id": "0.0-6.0-1.0-28.0"}}, {"uniqueid": "w75605276:a31632736", "current_trial": 44, "dateTime": 1693566994727, "trialdata": {"revealed_states": [], "clicked_states": ["32", "9", "5", "6"], "num_clicks_accrued": [0, 0, 0, 0, 0, 0, 0, 0, 0, 0, 0, 0, 0], "stateRewards": ["", -2, -3, 8, 14, -73, 73, 84, -12, -2, -50, -17, 2, 1, -2, -9, -44, -27, -33, 16, -63, -47, -66, -2, 1, 4, -5, -33, -11, 50, 9, 38, -79, 31], "withholdReward": false, "trial_id": "mdp_trial_30", "block": "test", "trialIndex": 33, "score": 81.4, "costs": -8.6, "simulationMode": [null, null, null, null, null], "rewards": [-2, -3, 8, 14, 73], "path": ["0", "0", "1", "2", "3", "4", "6"], "rt": [21712, 108, 214, 386, 131], "actions": ["up", "up", "up", "right", "right"], "actionTimes": [26093, 26706, 27451, 28351, 29031], "queries": {"click": {"state": {"target": ["32", "9", "5", "6"], "time": [6845, 11295, 15549, 21130]}, "edge": {"target": [], "time": []}}, "mouseover": {"state": {"target": ["0", "31", "32", "8", "9", "5", "18", "21", "18", "6"], "time": [5731, 5864, 5981, 10716, 10808, 15184, 16264, 17108, 19918, 20651]}, "edge": {"target": [], "time": []}}, "mouseout": {"state": {"target": ["0", "0", "0", "0", "31", "32", "8", "9", "9", "5", "18", "21", "18", "6", "1", "23"], "time": [983, 2561, 2861, 5755, 5898, 8052, 10754, 11539, 12422, 16140, 16324, 19818, 19954, 22142, 30911, 31156]}, "edge": {"target": [], "time": []}}}, "displayed_time": "29.57", "trialTime": 33278, "trial_type": "mouselab-mdp", "trial_index": 44, "time_elapsed": 2230726, "internal_node_id": "0.0-6.0-1.0-29.0"}}, {"uniqueid": "w75605276:a31632736", "current_trial": 45, "dateTime": 1693567038537, "trialdata": {"revealed_states": [], "clicked_states": ["11", "5", "32", "27", "21", "16"], "num_clicks_accrued": [0, 0, 0, 0, 0, 0, 0, 0, 0, 0, 0, 0, 0], "stateRewards": ["", -2, 1, -8, 12, -65, -79, 16, 7, -80, -17, -45, -2, 2, -5, -2, -85, 23, -4, -7, 48, 27, -76, 2, 3, 5, 2, 43, 71, -13, 7, -49, 59, -31], "withholdReward": false, "trial_id": "mdp_trial_31", "block": "test", "trialIndex": 34, "score": 63.1, "costs": -12.9, "simulationMode": [null, null, null, null, null], "rewards": [2, 3, 5, 7, 59], "path": ["0", "0", "23", "24", "25", "30", "32"], "rt": [31201, 183, 160, 414, 323], "actions": ["left", "left", "left", "down", "down"], "actionTimes": [34496, 35231, 35997, 36964, 37826], "queries": {"click": {"state": {"target": ["11", "5", "32", "27", "21", "16"], "time": [6071, 11587, 16228, 20765, 25246, 30066]}, "edge": {"target": [], "time": []}}, "mouseover": {"state": {"target": ["1", "3", "3", "8", "11", "9", "5", "2", "24", "31", "32", "31", "25", "26", "27", "0", "22", "21", "13", "15", "16"], "time": [4475, 4666, 5048, 5325, 5526, 10637, 11211, 12846, 15477, 15557, 15761, 19850, 19997, 20082, 20347, 21575, 24604, 24817, 29330, 29469, 29517]}, "edge": {"target": [], "time": []}}, "mouseout": {"state": {"target": ["0", "1", "3", "3", "8", "11", "11", "11", "9", "5", "5", "2", "24", "31", "32", "31", "25", "26", "27", "0", "22", "21", "13", "15", "16"], "time": [1956, 4657, 4708, 5252, 5462, 6292, 7079, 10463, 10896, 11835, 12748, 15244, 15529, 15598, 17570, 19899, 20042, 20205, 21417, 21735, 24674, 25775, 29446, 29502, 30809]}, "edge": {"target": [], "time": []}}}, "displayed_time": "38.38", "trialTime": 42170, "trial_type": "mouselab-mdp", "trial_index": 45, "time_elapsed": 2274535, "internal_node_id": "0.0-6.0-1.0-30.0"}}, {"uniqueid": "w75605276:a31632736", "current_trial": 46, "dateTime": 1693567062849, "trialdata": {"revealed_states": [], "clicked_states": ["32", "27"], "num_clicks_accrued": [0, 0, 0, 0, 0, 0, 0, 0, 0, 0, 0, 0, 0], "stateRewards": ["", 2, -1, 5, 8, 75, -35, -77, 1, -9, -81, -58, 1, 2, -7, 5, 77, -16, 19, 16, -10, -18, 40, -2, 3, 7, -5, 64, 1, -62, 10, 27, 10, 65], "withholdReward": false, "trial_id": "mdp_trial_32", "block": "test", "trialIndex": 35, "score": 62.7, "costs": -4.3, "simulationMode": [null, null, null, null, null], "rewards": [-2, 3, 7, -5, 64], "path": ["0", "0", "23", "24", "25", "26", "27"], "rt": [10291, 29, 115, 480, 143], "actions": ["left", "left", "left", "up", "up"], "actionTimes": [13980, 14594, 15239, 16254, 16938], "queries": {"click": {"state": {"target": ["32", "27"], "time": [5179, 9308]}, "edge": {"target": [], "time": []}}, "mouseover": {"state": {"target": ["0", "31", "32", "30", "25", "26", "27", "11", "9", "5"], "time": [4341, 4458, 4674, 6396, 6490, 6584, 6684, 10020, 10121, 10450]}, "edge": {"target": [], "time": []}}, "mouseout": {"state": {"target": ["0", "0", "31", "32", "30", "25", "26", "27", "11", "9", "5", "4", "18"], "time": [2286, 4371, 4527, 5409, 6450, 6534, 6629, 9957, 10102, 10206, 19847, 19947, 20112]}, "edge": {"target": [], "time": []}}}, "displayed_time": "17.69", "trialTime": 20591, "trial_type": "mouselab-mdp", "trial_index": 46, "time_elapsed": 2298848, "internal_node_id": "0.0-6.0-1.0-31.0"}}, {"uniqueid": "w75605276:a31632736", "current_trial": 47, "dateTime": 1693567106142, "trialdata": {"revealed_states": [], "clicked_states": ["27", "32", "5", "9", "16", "21"], "num_clicks_accrued": [0, 0, 0, 0, 0, 0, 0, 0, 0, 0, 0, 0, 0], "stateRewards": ["", -1, -4, -1, -11, 43, 69, 39, 4, 17, -20, -82, -2, -1, 4, 8, -79, 24, -79, 11, 36, 64, 41, 2, 4, -1, 11, -79, -47, 75, -3, 63, -36, -19], "withholdReward": false, "trial_id": "mdp_trial_33", "block": "test", "trialIndex": 36, "score": 63.1, "costs": -12.9, "simulationMode": [null, null, null, null, null], "rewards": [-2, -1, 4, 11, 64], "path": ["0", "0", "12", "13", "14", "19", "21"], "rt": [27153, 15, 161, 583, 106], "actions": ["right", "right", "right", "down", "down"], "actionTimes": [30958, 31520, 32194, 33361, 34168], "queries": {"click": {"state": {"target": ["27", "32", "5", "9", "16", "21"], "time": [5837, 10157, 14615, 18513, 22390, 26176]}, "edge": {"target": [], "time": []}}, "mouseover": {"state": {"target": ["23", "26", "27", "25", "30", "32", "30", "24", "10", "3", "5", "9", "18", "15", "16", "15", "14", "21"], "time": [4728, 4893, 5093, 9245, 9481, 9794, 11032, 11125, 13762, 13931, 14213, 17741, 21041, 21274, 21474, 23305, 23381, 23923]}, "edge": {"target": [], "time": []}}, "mouseout": {"state": {"target": ["23", "26", "27", "27", "25", "30", "32", "30", "24", "10", "3", "5", "9", "18", "15", "16", "15", "14", "21"], "time": [4760, 4930, 6041, 6885, 9378, 9664, 10384, 11079, 11176, 13848, 14058, 17438, 19355, 21117, 21396, 23292, 23365, 23475, 26414]}, "edge": {"target": [], "time": []}}}, "displayed_time": "34.70", "trialTime": 40878, "trial_type": "mouselab-mdp", "trial_index": 47, "time_elapsed": 2342140, "internal_node_id": "0.0-6.0-1.0-32.0"}}, {"uniqueid": "w75605276:a31632736", "current_trial": 48, "dateTime": 1693567130848, "trialdata": {"revealed_states": [], "clicked_states": ["20"], "num_clicks_accrued": [0, 0, 0, 0, 0, 0, 0, 0, 0, 0, 0, 0, 0], "stateRewards": ["", -1, -2, 8, -6, -79, -6, 87, 9, -5, -66, -38, 2, 2, 5, -6, -82, 74, 85, -8, 67, -30, -15, 1, -2, -2, -2, 87, 64, 49, 7, 2, -38, -9], "withholdReward": false, "trial_id": "mdp_trial_34", "block": "test", "trialIndex": 37, "score": 65.85, "costs": -2.15, "simulationMode": [null, null, null, null, null], "rewards": [2, 2, 5, -8, 67], "path": ["0", "0", "12", "13", "14", "19", "20"], "rt": [6103, 9, 171, 427, 260], "actions": ["right", "right", "right", "down", "right"], "actionTimes": [9138, 9692, 10431, 11399, 12183], "queries": {"click": {"state": {"target": ["20"], "time": [4607]}, "edge": {"target": [], "time": []}}, "mouseover": {"state": {"target": ["12", "13", "19", "20", "19"], "time": [3543, 3632, 3980, 4137, 5332]}, "edge": {"target": [], "time": []}}, "mouseout": {"state": {"target": ["0", "12", "13", "19", "20", "19"], "time": [1824, 3596, 3762, 4049, 4828, 5383]}, "edge": {"target": [], "time": []}}}, "displayed_time": "17.04", "trialTime": 22944, "trial_type": "mouselab-mdp", "trial_index": 48, "time_elapsed": 2366847, "internal_node_id": "0.0-6.0-1.0-33.0"}}, {"uniqueid": "w75605276:a31632736", "current_trial": 49, "dateTime": 1693567154362, "trialdata": {"revealed_states": [], "clicked_states": ["33"], "num_clicks_accrued": [0, 0, 0, 0, 0, 0, 0, 0, 0, 0, 0, 0, 0], "stateRewards": ["", 1, -2, -3, 14, -42, -87, -37, -11, -50, 33, -44, -2, 4, -7, 13, 48, -75, -66, 12, 23, -2, 82, 1, -4, 3, 12, 51, -15, -26, -11, -52, -29, 82], "withholdReward": false, "trial_id": "mdp_trial_35", "block": "test", "trialIndex": 38, "score": 68.85, "costs": -2.15, "simulationMode": [null, null, null, null, null], "rewards": [1, -4, 3, -11, 82], "path": ["0", "0", "23", "24", "25", "30", "33"], "rt": [6613, 57, 134, 337, 131], "actions": ["left", "left", "left", "down", "left"], "actionTimes": [11801, 12411, 13080, 13998, 14713], "queries": {"click": {"state": {"target": ["33"], "time": [7308]}, "edge": {"target": [], "time": []}}, "mouseover": {"state": {"target": ["23", "31", "30", "33", "30"], "time": [6358, 6428, 6576, 6809, 8697]}, "edge": {"target": [], "time": []}}, "mouseout": {"state": {"target": ["0", "23", "31", "30", "33", "33", "30"], "time": [4053, 6395, 6468, 6706, 7555, 8646, 8800]}, "edge": {"target": [], "time": []}}}, "displayed_time": "19.19", "trialTime": 22362, "trial_type": "mouselab-mdp", "trial_index": 49, "time_elapsed": 2390361, "internal_node_id": "0.0-6.0-1.0-34.0"}}, {"uniqueid": "w75605276:a31632736", "current_trial": 50, "dateTime": 1693567183627, "trialdata": {"revealed_states": [], "clicked_states": ["14"], "num_clicks_accrued": [0, 0, 0, 0, 0, 0, 0, 0, 0, 0, 0, 0, 0], "stateRewards": ["", 1, -2, -2, 10, -31, -77, 35, 9, -47, 8, 48, -2, 1, -4, -3, -26, -50, 43, -11, 76, -38, 17, 1, -1, 6, 10, 15, -9, 12, -8, 85, 11, -55], "withholdReward": false, "trial_id": "mdp_trial_36", "block": "test", "trialIndex": 39, "score": -41.95, "costs": -0.95, "simulationMode": [null, null, null, null, null], "rewards": [1, -2, -2, 9, -47], "path": ["0", "0", "1", "2", "3", "8", "9"], "rt": [15784, 236, 278, 1353, 1296], "actions": ["up", "up", "up", "left", "up"], "actionTimes": [18834, 19595, 20406, 22315, 24150], "queries": {"click": {"state": {"target": ["14"], "time": [5014]}, "edge": {"target": [], "time": []}}, "mouseover": {"state": {"target": ["12", "13", "14", "14", "19", "21"], "time": [3930, 3997, 4165, 4583, 5858, 9366]}, "edge": {"target": [], "time": []}}, "mouseout": {"state": {"target": ["0", "12", "13", "14", "14", "19", "21", "19"], "time": [3165, 3950, 4098, 4484, 5820, 6003, 26770, 27020]}, "edge": {"target": [], "time": []}}}, "displayed_time": "24.68", "trialTime": 28114, "trial_type": "mouselab-mdp", "trial_index": 50, "time_elapsed": 2419626, "internal_node_id": "0.0-6.0-1.0-35.0"}}, {"uniqueid": "w75605276:a31632736", "current_trial": 51, "dateTime": 1693567219762, "trialdata": {"revealed_states": [], "clicked_states": ["9", "27"], "num_clicks_accrued": [0, 0, 0, 0, 0, 0, 0, 0, 0, 0, 0, 0, 0], "stateRewards": ["", 1, 2, -8, 9, 18, -83, -11, 6, -64, -48, 17, -2, -2, -5, -3, -24, -3, -86, -2, 48, -41, -22, -2, 4, 7, 8, 81, 13, -48, 10, 61, 19, 57], "withholdReward": false, "trial_id": "mdp_trial_37", "block": "test", "trialIndex": 40, "score": 93.7, "costs": -4.3, "simulationMode": [null, null, null, null, null], "rewards": [-2, 4, 7, 8, 81], "path": ["0", "0", "23", "24", "25", "26", "27"], "rt": [11525, 762, 315, 483, 343], "actions": ["left", "left", "left", "up", "up"], "actionTimes": [14885, 16167, 17010, 18021, 18923], "queries": {"click": {"state": {"target": ["9", "27"], "time": [5429, 9942]}, "edge": {"target": [], "time": []}}, "mouseover": {"state": {"target": ["10", "9", "27", "29", "27", "26"], "time": [4370, 4970, 8392, 9104, 9404, 11323]}, "edge": {"target": [], "time": []}}, "mouseout": {"state": {"target": ["19", "22", "0", "10", "9", "27", "29", "27", "27", "26", "30", "25"], "time": [700, 767, 2334, 4392, 8254, 8954, 9173, 10167, 11312, 11359, 31961, 32043]}, "edge": {"target": [], "time": []}}}, "displayed_time": "19.44", "trialTime": 34597, "trial_type": "mouselab-mdp", "trial_index": 51, "time_elapsed": 2455761, "internal_node_id": "0.0-6.0-1.0-36.0"}}, {"uniqueid": "w75605276:a31632736", "current_trial": 52, "dateTime": 1693567247978, "trialdata": {"revealed_states": [], "clicked_states": ["9"], "num_clicks_accrued": [0, 0, 0, 0, 0, 0, 0, 0, 0, 0, 0, 0, 0], "stateRewards": ["", 1, 4, 7, -16, -84, -6, -46, -12, -7, -49, -26, -1, 2, -4, 2, 22, 37, -64, 1, 88, -13, -10, 1, -4, -2, 5, 2, -10, -34, 9, 66, 55, 38], "withholdReward": false, "trial_id": "mdp_trial_38", "block": "test", "trialIndex": 41, "score": -0.15000000000000036, "costs": -2.15, "simulationMode": [null, null, null, null, null], "rewards": [1, -4, -2, 5, 2], "path": ["0", "0", "23", "24", "25", "26", "27"], "rt": [10957, 118, 332, 781, 11], "actions": ["left", "left", "left", "up", "up"], "actionTimes": [16093, 16741, 17619, 18931, 19515], "queries": {"click": {"state": {"target": ["9"], "time": [7513]}, "edge": {"target": [], "time": []}}, "mouseover": {"state": {"target": ["10", "9", "24", "31", "32", "32"], "time": [6451, 7017, 11602, 11671, 11772, 13306]}, "edge": {"target": [], "time": []}}, "mouseout": {"state": {"target": ["28", "24", "23", "10", "9", "9", "24", "31", "32", "32"], "time": [881, 1383, 3414, 6473, 7738, 8855, 11632, 11702, 12019, 22254]}, "edge": {"target": [], "time": []}}}, "displayed_time": "20.05", "trialTime": 26800, "trial_type": "mouselab-mdp", "trial_index": 52, "time_elapsed": 2483977, "internal_node_id": "0.0-6.0-1.0-37.0"}}, {"uniqueid": "w75605276:a31632736", "current_trial": 53, "dateTime": 1693567269348, "trialdata": {"revealed_states": [], "clicked_states": ["32"], "num_clicks_accrued": [0, 0, 0, 0, 0, 0, 0, 0, 0, 0, 0, 0, 0], "stateRewards": ["", -2, 3, 3, -14, 62, 36, 49, 16, 11, 17, -84, 2, -1, 6, 2, -82, -73, 49, -6, -87, 48, 50, -1, -2, -1, -16, -11, 37, -44, 4, 55, 73, -10], "withholdReward": false, "trial_id": "mdp_trial_39", "block": "test", "trialIndex": 42, "score": 70.85, "costs": -2.15, "simulationMode": [null, null, null, null, null], "rewards": [-1, -2, -1, 4, 73], "path": ["0", "0", "23", "24", "25", "30", "32"], "rt": [6474, 24, 118, 317, 72], "actions": ["left", "left", "left", "down", "down"], "actionTimes": [10445, 11005, 11660, 12523, 13145], "queries": {"click": {"state": {"target": ["32"], "time": [6010]}, "edge": {"target": [], "time": []}}, "mouseover": {"state": {"target": ["0", "32", "30", "25", "27"], "time": [5038, 5505, 7149, 7227, 7485]}, "edge": {"target": [], "time": []}}, "mouseout": {"state": {"target": ["0", "0", "32", "30", "25"], "time": [2969, 5066, 6242, 7210, 7295]}, "edge": {"target": [], "time": []}}}, "displayed_time": "17.97", "trialTime": 20199, "trial_type": "mouselab-mdp", "trial_index": 53, "time_elapsed": 2505347, "internal_node_id": "0.0-6.0-1.0-38.0"}}, {"uniqueid": "w75605276:a31632736", "current_trial": 54, "dateTime": 1693567313006, "trialdata": {"revealed_states": [], "clicked_states": ["32", "27", "16", "20", "21", "9", "5"], "num_clicks_accrued": [0, 0, 0, 0, 0, 0, 0, 0, 0, 0, 0, 0, 0], "stateRewards": ["", 1, -1, 4, -2, -75, -75, 84, -9, -60, -79, 59, 2, -4, 8, 9, -17, -82, 80, 14, -4, 49, 49, -1, 3, 6, -11, -33, 34, 55, 9, -57, 5, 59], "withholdReward": false, "trial_id": "mdp_trial_40", "block": "test", "trialIndex": 43, "score": 53.95, "costs": -15.05, "simulationMode": [null, null, null, null, null], "rewards": [2, -4, 8, 14, 49], "path": ["0", "0", "12", "13", "14", "19", "21"], "rt": [30593, 53, 120, 503, 242], "actions": ["right", "right", "right", "down", "down"], "actionTimes": [34552, 35121, 35799, 36814, 37581], "queries": {"click": {"state": {"target": ["32", "27", "16", "20", "21", "9", "5"], "time": [5622, 9296, 12839, 16930, 20558, 25478, 30274]}, "edge": {"target": [], "time": []}}, "mouseover": {"state": {"target": ["31", "32", "30", "25", "26", "27", "10", "7", "16", "15", "20", "21", "3", "9", "5"], "time": [4872, 4989, 7202, 7369, 7537, 7860, 10111, 10761, 10963, 13638, 16265, 18463, 21851, 22105, 29829]}, "edge": {"target": [], "time": []}}, "mouseout": {"state": {"target": ["23", "31", "32", "30", "25", "26", "27", "10", "7", "16", "16", "15", "20", "21", "3", "9", "5", "5", "5", "9", "8", "10"], "time": [2638, 4904, 7112, 7311, 7514, 7590, 9531, 10311, 10801, 13087, 13595, 13681, 18147, 20834, 21901, 29496, 30485, 33381, 39638, 40019, 40088, 40153]}, "edge": {"target": [], "time": []}}}, "displayed_time": "38.13", "trialTime": 42350, "trial_type": "mouselab-mdp", "trial_index": 54, "time_elapsed": 2549005, "internal_node_id": "0.0-6.0-1.0-39.0"}}, {"uniqueid": "w75605276:a31632736", "current_trial": 55, "dateTime": 1693567424314, "trialdata": {"rt": 111238, "response": {"Q0": "$-16 to 16", "Q1": "$-4 to $4", "Q2": "$-88 to $88", "Q3": "The cost for clicking on nodes varied between nodes.", "Q4": "Slightly motivated"}, "question_order": [0, 1, 2, 3, 4], "trial_id": "final_quiz_control", "trial_type": "survey-multi-choice", "trial_index": 55, "time_elapsed": 2660313, "internal_node_id": "0.0-6.0-2.0"}}, {"uniqueid": "w75605276:a31632736", "current_trial": 56, "dateTime": 1693567698049, "trialdata": {"rt": 273628, "response": {"Q0": "my strategy was to use the node inspector to reveal the values at the edges to find a less risky path to follow.", "Q1": "no. I just used one strategy", "Q2": "I didn't find it difficult at all. My strategy was simple, find the highest value at the edge to determine the path worth taking."}, "trial_id": "self_report_control", "trial_type": "survey-text", "trial_index": 56, "time_elapsed": 2934049, "internal_node_id": "0.0-6.0-3.0"}}, {"uniqueid": "w75605276:a31632736", "current_trial": 57, "dateTime": 1693567811528, "trialdata": {"rt": 113463, "response": {"Q0": "Strongly disagree", "Q1": "Strongly disagree", "Q2": "Strongly agree", "Q3": "Strongly agree", "Q4": "Disagree", "Q5": "Agree", "Q6": "Strongly disagree"}, "question_order": [0, 1, 2, 3, 4, 5, 6], "trial_id": "self_report_2", "trial_type": "survey-multi-choice", "trial_index": 57, "time_elapsed": 3047527, "internal_node_id": "0.0-6.0-4.0"}}, {"uniqueid": "w75605276:a31632736", "current_trial": 58, "dateTime": 1693567852832, "trialdata": {"rt": 41290, "response": {"gender": "female", "age": "22", "colorblind": "0", "effort": "0"}, "trial_type": "survey-html-form", "trial_index": 58, "time_elapsed": 3088831, "internal_node_id": "0.0-6.0-5.0"}}, {"uniqueid": "w75605276:a31632736", "current_trial": 59, "dateTime": 1693567922993, "trialdata": {"rt": 70146, "response": {"Q0": "not at all.", "Q1": "no,I never participated in such before.", "Q2": ""}, "trial_type": "survey-text", "trial_index": 59, "time_elapsed": 3158992, "internal_node_id": "0.0-6.0-6.0"}}, {"uniqueid": "w75605276:a31632736", "current_trial": 60, "dateTime": 1693567969055, "trialdata": {"rt": 46049, "stimulus": "<h1>Completion Code Instructions (1/2)</h1>\n<br><br><br><br>\nYou have reached the end of the experiment! The completion code consists of two parts: (1) a code with 2 characters (2) a code with 6 characters. On this page, you will receive the second part of the code. The first part of the completion code will be on the next page.\n<br><br>\nThe second part of your completion code is: <b>EWEK22</b>\n<br><br>\nPlease note this down. Then, press 'Finish HIT' in order to find the first part of your completion code. Once the data has been saved, you will receive this code either in this window or in the original browser window where you started the experiment.\n", "response": 0, "trial_type": "html-button-response", "trial_index": 60, "time_elapsed": 3205054, "internal_node_id": "0.0-6.0-7.0"}}, {"uniqueid": "w75605276:a31632736", "current_trial": 61, "dateTime": 1693567970062, "trialdata": {"success": true, "trial_type": "fullscreen", "trial_index": 61, "time_elapsed": 3206062, "internal_node_id": "0.0-7.0"}}], "questiondata": {"params": {"CODE": "C6DMOQA6", "MIN_TIME": 14, "inspectCost": 1, "startTime": "Fri Sep 01 2023 12:39:21 GMT+0200 (South Africa Standard Time)", "bonusRate": 0.002, "variance": "1_2_4_8_44", "branching": "31123"}, "final_score": 1747.9}, "eventdata": [{"eventtype": "initialized", "value": null, "timestamp": 1693564760792, "interval": 0}, {"eventtype": "window_resize", "value": [1032, 600], "timestamp": 1693564760792, "interval": 0}, {"eventtype": "window_resize", "value": [1032, 600], "timestamp": 1693564761275, "interval": 483}, {"eventtype": "window_resize", "value": [1280, 720], "timestamp": 1693564778407, "interval": 17132}, {"eventtype": "focus", "value": "off", "timestamp": 1693565435255, "interval": 656848}, {"eventtype": "focus", "value": "on", "timestamp": 1693565435256, "interval": 1}, {"eventtype": "window_resize", "value": [1032, 600], "timestamp": 1693565435526, "interval": 270}, {"eventtype": "window_resize", "value": [1280, 720], "timestamp": 1693565439143, "interval": 3617}, {"eventtype": "window_resize", "value": [1032, 600], "timestamp": 1693567969414, "interval": 2530271}], "useragent": "Mozilla/5.0 (Windows NT 10.0; Win64; x64) AppleWebKit/537.36 (KHTML, like Gecko) Chrome/116.0.0.0 Safari/537.36", "mode": "live", "id": "w75605276:a31632736", "status": "user data saved", "Beginhit": "2023-09-01 10:39:18.544701", "Beginexp": "2023-09-01 10:39:41.030916", "Endhit": "2023-09-01 11:32:53.796617", "psiturkStatus": 3, "browser": "<redacted>", "platform": "windows", "language": "en-US"}