{"condition": 0, "counterbalance": 0, "assignmentId": "a39578745", "workerId": "w45844825", "hitId": "h99359287", "currenttrial": 73, "bonus": 0, "data": [{"uniqueid": "w45844825:a39578745", "current_trial": 0, "dateTime": 1693580172338, "trialdata": {"success": true, "trial_type": "fullscreen", "trial_index": 0, "time_elapsed": 8057, "internal_node_id": "0.0-0.0"}}, {"uniqueid": "w45844825:a39578745", "current_trial": 1, "dateTime": 1693580197721, "trialdata": {"view_history": [{"page_index": 0, "viewing_time": 25360}], "rt": 25366, "trial_id": "exp_instructions_control", "trial_type": "instructions", "trial_index": 1, "time_elapsed": 33442, "internal_node_id": "0.0-1.0"}}, {"uniqueid": "w45844825:a39578745", "current_trial": 2, "dateTime": 1693580343616, "trialdata": {"view_history": [{"page_index": 0, "viewing_time": 62428}, {"page_index": 1, "viewing_time": 27913}, {"page_index": 2, "viewing_time": 23730}, {"page_index": 3, "viewing_time": 31805}], "rt": 145877, "trial_id": "mouselab_instructions_1_control", "trial_type": "instructions", "trial_index": 2, "time_elapsed": 179337, "internal_node_id": "0.0-2.0-1.0"}}, {"uniqueid": "w45844825:a39578745", "current_trial": 3, "dateTime": 1693580367995, "trialdata": {"revealed_states": [], "clicked_states": [], "num_clicks_accrued": [0, 0, 0, 0, 0, 0, 0, 0, 0, 0, 0, 0, 0], "stateRewards": ["", 10, 10, 10, -10, -10, -10, -10, 10, -10, -10, 10, -10, -10, 10, 10, -10, 10, -10, -10, -10, 10, -10, -10, 10, -10, 10, 10, -10, -10, -10, -10, -10, -10], "withholdReward": false, "trial_id": "practice_1", "block": "test", "trialIndex": 0, "score": -6.5, "costs": 0, "simulationMode": [null, null, null, null, null], "rewards": [-10, 10, -10, 10, -10], "path": ["0", "0", "23", "24", "25", "26", "29"], "rt": [4114, 1031, 570, 1343, 797], "actions": ["left", "left", "left", "up", "left"], "actionTimes": [11619, 13235, 14370, 16278, 17658], "queries": {"click": {"state": {"target": [], "time": []}, "edge": {"target": [], "time": []}}, "mouseover": {"state": {"target": [], "time": []}, "edge": {"target": [], "time": []}}, "mouseout": {"state": {"target": ["0"], "time": [5240]}, "edge": {"target": [], "time": []}}}, "displayed_time": "18.27", "trialTime": 21697, "trial_type": "mouselab-mdp", "trial_index": 3, "time_elapsed": 203716, "internal_node_id": "0.0-2.0-2.0-0.0"}}, {"uniqueid": "w45844825:a39578745", "current_trial": 4, "dateTime": 1693580382585, "trialdata": {"revealed_states": [], "clicked_states": [], "num_clicks_accrued": [0, 0, 0, 0, 0, 0, 0, 0, 0, 0, 0, 0, 0], "stateRewards": ["", 10, -10, 10, 10, -10, -10, -10, 10, -10, 10, -10, 10, -10, 10, 10, 10, -10, -10, 10, 10, 10, 10, 10, 10, -10, 10, -10, -10, -10, -10, -10, -10, -10], "withholdReward": false, "trial_id": "practice_2", "block": "test", "trialIndex": 1, "score": 13.5, "costs": 0, "simulationMode": [null, null, null, null, null], "rewards": [10, -10, 10, 10, -10], "path": ["0", "0", "1", "2", "3", "8", "9"], "rt": [1696, 40, 47, 795, 220], "actions": ["up", "up", "up", "left", "up"], "actionTimes": [5712, 6332, 6963, 8297, 9053], "queries": {"click": {"state": {"target": [], "time": []}, "edge": {"target": [], "time": []}}, "mouseover": {"state": {"target": [], "time": []}, "edge": {"target": [], "time": []}}, "mouseout": {"state": {"target": ["0"], "time": [2497]}, "edge": {"target": [], "time": []}}}, "displayed_time": "9.60", "trialTime": 12359, "trial_type": "mouselab-mdp", "trial_index": 4, "time_elapsed": 218305, "internal_node_id": "0.0-2.0-2.0-1.0"}}, {"uniqueid": "w45844825:a39578745", "current_trial": 5, "dateTime": 1693580454255, "trialdata": {"view_history": [{"page_index": 0, "viewing_time": 61743}, {"page_index": 1, "viewing_time": 9916}], "rt": 71660, "trial_id": "mouselab_instructions_2_control", "trial_type": "instructions", "trial_index": 5, "time_elapsed": 289976, "internal_node_id": "0.0-2.0-3.0"}}, {"uniqueid": "w45844825:a39578745", "current_trial": 6, "dateTime": 1693580507307, "trialdata": {"rt": 53039, "response": {"Q0": "There is no cost for clicking on nodes.", "Q1": "The better I perform the higher my bonus will be.", "Q2": "No, the amount of cash at each node of the web may be different each time.", "Q3": "To click on the least number of nodes.", "Q4": "Only before moving the spider.", "Q5": "3 seconds"}, "question_order": [0, 1, 2, 3, 4, 5], "correct": {"Q0": "The cost for clicking on nodes may vary between nodes.", "Q1": "The better I perform the higher my bonus will be.", "Q2": "No, the amount of cash at each node of the web may be different each time.", "Q3": "To get the highest total score.", "Q4": "Only before moving the spider.", "Q5": "3 seconds"}, "trial_id": "mouselab_quiz_control", "trial_type": "survey-multi-choice", "trial_index": 6, "time_elapsed": 343028, "internal_node_id": "0.0-2.0-4.0"}}, {"uniqueid": "w45844825:a39578745", "current_trial": 7, "dateTime": 1693580520633, "trialdata": {"success": true, "trial_type": "fullscreen", "trial_index": 7, "time_elapsed": 356354, "internal_node_id": "0.0-2.1-0.1-0.1"}}, {"uniqueid": "w45844825:a39578745", "current_trial": 8, "dateTime": 1693580540011, "trialdata": {"view_history": [{"page_index": 0, "viewing_time": 10844}, {"page_index": 1, "viewing_time": 4096}, {"page_index": 2, "viewing_time": 2401}, {"page_index": 3, "viewing_time": 2032}], "rt": 19375, "trial_id": "mouselab_instructions_1_control", "trial_type": "instructions", "trial_index": 8, "time_elapsed": 375732, "internal_node_id": "0.0-2.1-1.1"}}, {"uniqueid": "w45844825:a39578745", "current_trial": 9, "dateTime": 1693580553696, "trialdata": {"revealed_states": [], "clicked_states": [], "num_clicks_accrued": [0, 0, 0, 0, 0, 0, 0, 0, 0, 0, 0, 0, 0], "stateRewards": ["", 10, 10, 10, -10, -10, -10, -10, 10, -10, -10, 10, -10, -10, 10, 10, -10, 10, -10, -10, -10, 10, -10, -10, 10, -10, 10, 10, -10, -10, -10, -10, -10, -10], "withholdReward": false, "trial_id": "practice_1", "block": "test", "trialIndex": 2, "score": 33.5, "costs": 0, "simulationMode": [null, null, null, null, null], "rewards": [10, 10, 10, 10, -10], "path": ["0", "0", "1", "2", "3", "8", "9"], "rt": [1921, 45, 120, 690, 184], "actions": ["up", "up", "up", "left", "up"], "actionTimes": [5485, 6106, 6715, 7967, 8672], "queries": {"click": {"state": {"target": [], "time": []}, "edge": {"target": [], "time": []}}, "mouseover": {"state": {"target": ["0"], "time": [3813]}, "edge": {"target": [], "time": []}}, "mouseout": {"state": {"target": ["0"], "time": [3860]}, "edge": {"target": [], "time": []}}}, "displayed_time": "9.26", "trialTime": 11759, "trial_type": "mouselab-mdp", "trial_index": 9, "time_elapsed": 389416, "internal_node_id": "0.0-2.1-2.1-0.1"}}, {"uniqueid": "w45844825:a39578745", "current_trial": 10, "dateTime": 1693580566818, "trialdata": {"revealed_states": [], "clicked_states": [], "num_clicks_accrued": [0, 0, 0, 0, 0, 0, 0, 0, 0, 0, 0, 0, 0], "stateRewards": ["", 10, -10, 10, 10, -10, -10, -10, 10, -10, 10, -10, 10, -10, 10, 10, 10, -10, -10, 10, 10, 10, 10, 10, 10, -10, 10, -10, -10, -10, -10, -10, -10, -10], "withholdReward": false, "trial_id": "practice_2", "block": "test", "trialIndex": 3, "score": 13.5, "costs": 0, "simulationMode": [null, null, null, null, null], "rewards": [10, -10, 10, 10, -10], "path": ["0", "0", "12", "13", "14", "15", "17"], "rt": [883, 327, 416, 495, 165], "actions": ["right", "right", "right", "up", "right"], "actionTimes": [4628, 5515, 6493, 7533, 8294], "queries": {"click": {"state": {"target": [], "time": []}, "edge": {"target": [], "time": []}}, "mouseover": {"state": {"target": [], "time": []}, "edge": {"target": [], "time": []}}, "mouseout": {"state": {"target": [], "time": []}, "edge": {"target": [], "time": []}}}, "displayed_time": "8.87", "trialTime": 10853, "trial_type": "mouselab-mdp", "trial_index": 10, "time_elapsed": 402537, "internal_node_id": "0.0-2.1-2.1-1.1"}}, {"uniqueid": "w45844825:a39578745", "current_trial": 11, "dateTime": 1693580574143, "trialdata": {"view_history": [{"page_index": 0, "viewing_time": 5463}, {"page_index": 1, "viewing_time": 1855}], "rt": 7319, "trial_id": "mouselab_instructions_2_control", "trial_type": "instructions", "trial_index": 11, "time_elapsed": 409864, "internal_node_id": "0.0-2.1-3.1"}}, {"uniqueid": "w45844825:a39578745", "current_trial": 12, "dateTime": 1693580593485, "trialdata": {"rt": 19333, "response": {"Q0": "There is no cost for clicking on nodes.", "Q1": "The better I perform the higher my bonus will be.", "Q2": "No, the amount of cash at each node of the web may be different each time.", "Q3": "To get the highest total score.", "Q4": "Only before moving the spider.", "Q5": "3 seconds"}, "question_order": [0, 1, 2, 3, 4, 5], "correct": {"Q0": "The cost for clicking on nodes may vary between nodes.", "Q1": "The better I perform the higher my bonus will be.", "Q2": "No, the amount of cash at each node of the web may be different each time.", "Q3": "To get the highest total score.", "Q4": "Only before moving the spider.", "Q5": "3 seconds"}, "trial_id": "mouselab_quiz_control", "trial_type": "survey-multi-choice", "trial_index": 12, "time_elapsed": 429206, "internal_node_id": "0.0-2.1-4.1"}}, {"uniqueid": "w45844825:a39578745", "current_trial": 13, "dateTime": 1693580599893, "trialdata": {"success": true, "trial_type": "fullscreen", "trial_index": 13, "time_elapsed": 435614, "internal_node_id": "0.0-2.2-0.2-0.2"}}, {"uniqueid": "w45844825:a39578745", "current_trial": 14, "dateTime": 1693580660947, "trialdata": {"view_history": [{"page_index": 0, "viewing_time": 12076}, {"page_index": 1, "viewing_time": 30692}, {"page_index": 2, "viewing_time": 9841}, {"page_index": 3, "viewing_time": 8434}], "rt": 61045, "trial_id": "mouselab_instructions_1_control", "trial_type": "instructions", "trial_index": 14, "time_elapsed": 496668, "internal_node_id": "0.0-2.2-1.2"}}, {"uniqueid": "w45844825:a39578745", "current_trial": 15, "dateTime": 1693580672302, "trialdata": {"revealed_states": [], "clicked_states": [], "num_clicks_accrued": [0, 0, 0, 0, 0, 0, 0, 0, 0, 0, 0, 0, 0], "stateRewards": ["", 10, 10, 10, -10, -10, -10, -10, 10, -10, -10, 10, -10, -10, 10, 10, -10, 10, -10, -10, -10, 10, -10, -10, 10, -10, 10, 10, -10, -10, -10, -10, -10, -10], "withholdReward": false, "trial_id": "practice_1", "block": "test", "trialIndex": 4, "score": 13.5, "costs": 0, "simulationMode": [null, null, null, null, null], "rewards": [-10, -10, 10, 10, 10], "path": ["0", "0", "12", "13", "14", "15", "17"], "rt": [963, 40, 49, 437, 382], "actions": ["right", "right", "right", "up", "right"], "actionTimes": [3915, 4523, 5133, 6181, 7099], "queries": {"click": {"state": {"target": [], "time": []}, "edge": {"target": [], "time": []}}, "mouseover": {"state": {"target": [], "time": []}, "edge": {"target": [], "time": []}}, "mouseout": {"state": {"target": ["0"], "time": [1490]}, "edge": {"target": [], "time": []}}}, "displayed_time": "7.65", "trialTime": 8956, "trial_type": "mouselab-mdp", "trial_index": 15, "time_elapsed": 508022, "internal_node_id": "0.0-2.2-2.2-0.2"}}, {"uniqueid": "w45844825:a39578745", "current_trial": 16, "dateTime": 1693580687074, "trialdata": {"revealed_states": [], "clicked_states": [], "num_clicks_accrued": [0, 0, 0, 0, 0, 0, 0, 0, 0, 0, 0, 0, 0], "stateRewards": ["", 10, -10, 10, 10, -10, -10, -10, 10, -10, 10, -10, 10, -10, 10, 10, 10, -10, -10, 10, 10, 10, 10, 10, 10, -10, 10, -10, -10, -10, -10, -10, -10, -10], "withholdReward": false, "trial_id": "practice_2", "block": "test", "trialIndex": 5, "score": 13.5, "costs": 0, "simulationMode": [null, null, null, null, null], "rewards": [10, -10, 10, 10, -10], "path": ["0", "0", "1", "2", "3", "4", "6"], "rt": [2578, 152, 344, 334, 471], "actions": ["up", "up", "up", "right", "right"], "actionTimes": [6899, 7637, 8577, 9489, 10520], "queries": {"click": {"state": {"target": [], "time": []}, "edge": {"target": [], "time": []}}, "mouseover": {"state": {"target": [], "time": []}, "edge": {"target": [], "time": []}}, "mouseout": {"state": {"target": ["0"], "time": [5289]}, "edge": {"target": [], "time": []}}}, "displayed_time": "11.07", "trialTime": 12418, "trial_type": "mouselab-mdp", "trial_index": 16, "time_elapsed": 522795, "internal_node_id": "0.0-2.2-2.2-1.2"}}, {"uniqueid": "w45844825:a39578745", "current_trial": 17, "dateTime": 1693580697940, "trialdata": {"view_history": [{"page_index": 0, "viewing_time": 7182}, {"page_index": 1, "viewing_time": 3677}], "rt": 10859, "trial_id": "mouselab_instructions_2_control", "trial_type": "instructions", "trial_index": 17, "time_elapsed": 533661, "internal_node_id": "0.0-2.2-3.2"}}, {"uniqueid": "w45844825:a39578745", "current_trial": 18, "dateTime": 1693580744026, "trialdata": {"rt": 46077, "response": {"Q0": "There is no cost for clicking on nodes.", "Q1": "The better I perform the higher my bonus will be.", "Q2": "No, the amount of cash at each node of the web may be different each time.", "Q3": "To get the highest total score.", "Q4": "Only before moving the spider.", "Q5": "3 seconds"}, "question_order": [0, 1, 2, 3, 4, 5], "correct": {"Q0": "The cost for clicking on nodes may vary between nodes.", "Q1": "The better I perform the higher my bonus will be.", "Q2": "No, the amount of cash at each node of the web may be different each time.", "Q3": "To get the highest total score.", "Q4": "Only before moving the spider.", "Q5": "3 seconds"}, "trial_id": "mouselab_quiz_control", "trial_type": "survey-multi-choice", "trial_index": 18, "time_elapsed": 579746, "internal_node_id": "0.0-2.2-4.2"}}, {"uniqueid": "w45844825:a39578745", "current_trial": 19, "dateTime": 1693580749499, "trialdata": {"success": true, "trial_type": "fullscreen", "trial_index": 19, "time_elapsed": 585220, "internal_node_id": "0.0-2.3-0.3-0.3"}}, {"uniqueid": "w45844825:a39578745", "current_trial": 20, "dateTime": 1693580788798, "trialdata": {"view_history": [{"page_index": 0, "viewing_time": 21360}, {"page_index": 1, "viewing_time": 7721}, {"page_index": 2, "viewing_time": 5002}, {"page_index": 3, "viewing_time": 5203}], "rt": 39287, "trial_id": "mouselab_instructions_1_control", "trial_type": "instructions", "trial_index": 20, "time_elapsed": 624519, "internal_node_id": "0.0-2.3-1.3"}}, {"uniqueid": "w45844825:a39578745", "current_trial": 21, "dateTime": 1693580800389, "trialdata": {"revealed_states": [], "clicked_states": [], "num_clicks_accrued": [0, 0, 0, 0, 0, 0, 0, 0, 0, 0, 0, 0, 0], "stateRewards": ["", 10, 10, 10, -10, -10, -10, -10, 10, -10, -10, 10, -10, -10, 10, 10, -10, 10, -10, -10, -10, 10, -10, -10, 10, -10, 10, 10, -10, -10, -10, -10, -10, -10], "withholdReward": false, "trial_id": "practice_1", "block": "test", "trialIndex": 6, "score": 13.5, "costs": 0, "simulationMode": [null, null, null, null, null], "rewards": [10, 10, 10, -10, -10], "path": ["0", "0", "1", "2", "3", "4", "5"], "rt": [1083, 33, 100, 743, 260], "actions": ["up", "up", "up", "right", "up"], "actionTimes": [3500, 4110, 4737, 6052, 6871], "queries": {"click": {"state": {"target": [], "time": []}, "edge": {"target": [], "time": []}}, "mouseover": {"state": {"target": [], "time": []}, "edge": {"target": [], "time": []}}, "mouseout": {"state": {"target": ["0"], "time": [944]}, "edge": {"target": [], "time": []}}}, "displayed_time": "7.45", "trialTime": 8929, "trial_type": "mouselab-mdp", "trial_index": 21, "time_elapsed": 636109, "internal_node_id": "0.0-2.3-2.3-0.3"}}, {"uniqueid": "w45844825:a39578745", "current_trial": 22, "dateTime": 1693580811103, "trialdata": {"revealed_states": [], "clicked_states": [], "num_clicks_accrued": [0, 0, 0, 0, 0, 0, 0, 0, 0, 0, 0, 0, 0], "stateRewards": ["", 10, -10, 10, 10, -10, -10, -10, 10, -10, 10, -10, 10, -10, 10, 10, 10, -10, -10, 10, 10, 10, 10, 10, 10, -10, 10, -10, -10, -10, -10, -10, -10, -10], "withholdReward": false, "trial_id": "practice_2", "block": "test", "trialIndex": 7, "score": 33.5, "costs": 0, "simulationMode": [null, null, null, null, null], "rewards": [10, -10, 10, 10, 10], "path": ["0", "0", "12", "13", "14", "19", "20"], "rt": [929, 196, 205, 407, 211], "actions": ["right", "right", "right", "down", "right"], "actionTimes": [3324, 4102, 4862, 5930, 6694], "queries": {"click": {"state": {"target": [], "time": []}, "edge": {"target": [], "time": []}}, "mouseover": {"state": {"target": [], "time": []}, "edge": {"target": [], "time": []}}, "mouseout": {"state": {"target": ["0"], "time": [883]}, "edge": {"target": [], "time": []}}}, "displayed_time": "7.24", "trialTime": 8240, "trial_type": "mouselab-mdp", "trial_index": 22, "time_elapsed": 646822, "internal_node_id": "0.0-2.3-2.3-1.3"}}, {"uniqueid": "w45844825:a39578745", "current_trial": 23, "dateTime": 1693580831753, "trialdata": {"view_history": [{"page_index": 0, "viewing_time": 18336}, {"page_index": 1, "viewing_time": 2304}], "rt": 20640, "trial_id": "mouselab_instructions_2_control", "trial_type": "instructions", "trial_index": 23, "time_elapsed": 667474, "internal_node_id": "0.0-2.3-3.3"}}, {"uniqueid": "w45844825:a39578745", "current_trial": 24, "dateTime": 1693580963829, "trialdata": {"rt": 132067, "response": {"Q0": "The cost for clicking on nodes may vary between nodes.", "Q1": "The better I perform the higher my bonus will be.", "Q2": "No, the amount of cash at each node of the web may be different each time.", "Q3": "To get the highest total score.", "Q4": "Only before moving the spider.", "Q5": "3 seconds"}, "question_order": [0, 1, 2, 3, 4, 5], "correct": {"Q0": "The cost for clicking on nodes may vary between nodes.", "Q1": "The better I perform the higher my bonus will be.", "Q2": "No, the amount of cash at each node of the web may be different each time.", "Q3": "To get the highest total score.", "Q4": "Only before moving the spider.", "Q5": "3 seconds"}, "trial_id": "mouselab_quiz_control", "trial_type": "survey-multi-choice", "trial_index": 24, "time_elapsed": 799550, "internal_node_id": "0.0-2.3-4.3"}}, {"uniqueid": "w45844825:a39578745", "current_trial": 25, "dateTime": 1693580973013, "trialdata": {"rt": 9167, "response": {"Q0": "No"}, "question_order": [0], "trial_id": "repeat_check", "trial_type": "survey-multi-choice", "trial_index": 25, "time_elapsed": 808733, "internal_node_id": "0.0-4.0-0.0"}}, {"uniqueid": "w45844825:a39578745", "current_trial": 26, "dateTime": 1693580985773, "trialdata": {"rt": 12750, "stimulus": "\n<h1> Get ready to start the game! </h1>\n\nThank you for reading the instructions. Get ready start with the 40 rounds of this game.\n<br><br>\nIf you need to take a break, feel free to take one after the end of a round, before continuing to the next one.\n<br><br>\nRemember, the more money the spider gets, the bigger your bonus will be!\n<br><br>\n<div style='text-align: center;'>Press <code>space</code> to begin.</div>\n\n<br><br>\n(If, at any point, the <code>space</code> key does not take you to the next page, click once on the text and try again.)", "response": " ", "trial_id": "mdp_ready", "trial_type": "html-keyboard-response", "trial_index": 26, "time_elapsed": 821494, "internal_node_id": "0.0-6.0-0.0"}}, {"uniqueid": "w45844825:a39578745", "current_trial": 27, "dateTime": 1693581009969, "trialdata": {"revealed_states": [], "clicked_states": [], "num_clicks_accrued": [0, 0, 0, 0, 0, 0, 0, 0, 0, 0, 0, 0, 0], "stateRewards": ["", -1, -3, -6, -2, -7, 80, -45, -3, -38, -72, 76, 2, 1, 7, 4, -62, 14, -74, 14, -87, -21, -88, -2, 1, -7, -10, 66, 56, -76, 10, -29, -72, -70], "withholdReward": false, "trial_id": "mdp_trial_1", "block": "test", "trialIndex": 8, "score": 68, "costs": 0, "simulationMode": [null, null, null, null, null], "rewards": [-1, -3, -6, -2, 80], "path": ["0", "0", "1", "2", "3", "4", "6"], "rt": [1466, 118, 802, 166, 568], "actions": ["up", "up", "up", "right", "right"], "actionTimes": [6218, 6907, 8268, 9020, 10173], "queries": {"click": {"state": {"target": [], "time": []}, "edge": {"target": [], "time": []}}, "mouseover": {"state": {"target": [], "time": []}, "edge": {"target": [], "time": []}}, "mouseout": {"state": {"target": [], "time": []}, "edge": {"target": [], "time": []}}}, "displayed_time": "18.75", "trialTime": 21598, "trial_type": "mouselab-mdp", "trial_index": 27, "time_elapsed": 845689, "internal_node_id": "0.0-6.0-1.0-0.0"}}, {"uniqueid": "w45844825:a39578745", "current_trial": 28, "dateTime": 1693581029885, "trialdata": {"revealed_states": [], "clicked_states": [], "num_clicks_accrued": [0, 0, 0, 0, 0, 0, 0, 0, 0, 0, 0, 0, 0], "stateRewards": ["", 1, 1, -3, 7, 49, 78, 26, -5, 26, 48, -43, -1, -3, 2, -5, 4, -1, -60, 10, -35, 51, 81, -2, 1, -7, -5, -39, -86, -54, 4, -3, 74, 77], "withholdReward": false, "trial_id": "mdp_trial_2", "block": "test", "trialIndex": 9, "score": 59, "costs": 0, "simulationMode": [null, null, null, null, null], "rewards": [-1, -3, 2, 10, 51], "path": ["0", "0", "12", "13", "14", "19", "21"], "rt": [4912, 996, 1033, 308, 213], "actions": ["right", "right", "right", "down", "down"], "actionTimes": [7936, 9497, 11068, 11973, 12766], "queries": {"click": {"state": {"target": [], "time": []}, "edge": {"target": [], "time": []}}, "mouseover": {"state": {"target": [], "time": []}, "edge": {"target": [], "time": []}}, "mouseout": {"state": {"target": ["0"], "time": [2120]}, "edge": {"target": [], "time": []}}}, "displayed_time": "17.03", "trialTime": 17983, "trial_type": "mouselab-mdp", "trial_index": 28, "time_elapsed": 865605, "internal_node_id": "0.0-6.0-1.0-1.0"}}, {"uniqueid": "w45844825:a39578745", "current_trial": 29, "dateTime": 1693581049278, "trialdata": {"revealed_states": [], "clicked_states": [], "num_clicks_accrued": [0, 0, 0, 0, 0, 0, 0, 0, 0, 0, 0, 0, 0], "stateRewards": ["", 1, -3, -2, 14, 49, -40, -39, 2, 26, -61, 73, 1, -4, -8, 12, 79, 29, -65, -13, 55, -26, 27, -1, 3, 3, 9, -17, -60, -18, -8, 35, -88, 69], "withholdReward": false, "trial_id": "mdp_trial_3", "block": "test", "trialIndex": 10, "score": 32, "costs": 0, "simulationMode": [null, null, null, null, null], "rewards": [-1, 3, 3, -8, 35], "path": ["0", "0", "23", "24", "25", "30", "31"], "rt": [1019, 1015, 1476, 618, 641], "actions": ["left", "left", "left", "down", "right"], "actionTimes": [3006, 4556, 6593, 7812, 9014], "queries": {"click": {"state": {"target": [], "time": []}, "edge": {"target": [], "time": []}}, "mouseover": {"state": {"target": [], "time": []}, "edge": {"target": [], "time": []}}, "mouseout": {"state": {"target": ["0"], "time": [977]}, "edge": {"target": [], "time": []}}}, "displayed_time": "15.99", "trialTime": 16980, "trial_type": "mouselab-mdp", "trial_index": 29, "time_elapsed": 884998, "internal_node_id": "0.0-6.0-1.0-2.0"}}, {"uniqueid": "w45844825:a39578745", "current_trial": 30, "dateTime": 1693581068989, "trialdata": {"revealed_states": [], "clicked_states": [], "num_clicks_accrued": [0, 0, 0, 0, 0, 0, 0, 0, 0, 0, 0, 0, 0], "stateRewards": ["", 1, 4, 5, 8, -55, -11, 8, 16, -37, 77, -22, -2, 3, -8, -10, 45, 87, -67, 4, 17, -33, -22, -1, -3, 7, 6, -39, -85, 75, -1, 7, -48, 45], "withholdReward": false, "trial_id": "mdp_trial_4", "block": "test", "trialIndex": 11, "score": -11, "costs": 0, "simulationMode": [null, null, null, null, null], "rewards": [1, 4, 5, 16, -37], "path": ["0", "0", "1", "2", "3", "8", "9"], "rt": [1188, 288, 717, 547, 121], "actions": ["up", "up", "up", "left", "up"], "actionTimes": [3367, 4214, 5485, 6589, 7297], "queries": {"click": {"state": {"target": [], "time": []}, "edge": {"target": [], "time": []}}, "mouseover": {"state": {"target": [], "time": []}, "edge": {"target": [], "time": []}}, "mouseout": {"state": {"target": ["0"], "time": [733]}, "edge": {"target": [], "time": []}}}, "displayed_time": "16.19", "trialTime": 17343, "trial_type": "mouselab-mdp", "trial_index": 30, "time_elapsed": 904709, "internal_node_id": "0.0-6.0-1.0-3.0"}}, {"uniqueid": "w45844825:a39578745", "current_trial": 31, "dateTime": 1693581088802, "trialdata": {"revealed_states": [], "clicked_states": [], "num_clicks_accrued": [0, 0, 0, 0, 0, 0, 0, 0, 0, 0, 0, 0, 0], "stateRewards": ["", -2, 3, 3, -14, 62, 36, 49, 16, 11, 17, -84, 2, -1, 6, 2, -82, -73, 49, -6, -87, 48, 50, -1, -2, -1, -16, -11, 37, -44, 4, 55, 73, -10], "withholdReward": false, "trial_id": "mdp_trial_5", "block": "test", "trialIndex": 12, "score": 58, "costs": 0, "simulationMode": [null, null, null, null, null], "rewards": [2, -1, 6, 2, 49], "path": ["0", "0", "12", "13", "14", "15", "18"], "rt": [2877, 1866, 894, 534, 204], "actions": ["right", "right", "right", "up", "left"], "actionTimes": [4724, 7160, 8630, 9747, 10481], "queries": {"click": {"state": {"target": [], "time": []}, "edge": {"target": [], "time": []}}, "mouseover": {"state": {"target": [], "time": []}, "edge": {"target": [], "time": []}}, "mouseout": {"state": {"target": ["0"], "time": [803]}, "edge": {"target": [], "time": []}}}, "displayed_time": "15.85", "trialTime": 17335, "trial_type": "mouselab-mdp", "trial_index": 31, "time_elapsed": 924522, "internal_node_id": "0.0-6.0-1.0-4.0"}}, {"uniqueid": "w45844825:a39578745", "current_trial": 32, "dateTime": 1693581109035, "trialdata": {"revealed_states": [], "clicked_states": [], "num_clicks_accrued": [0, 0, 0, 0, 0, 0, 0, 0, 0, 0, 0, 0, 0], "stateRewards": ["", -2, -1, -4, -15, -14, -67, 32, -3, -59, 63, 31, 2, -1, -7, -15, 71, -66, -27, -3, -54, -39, 72, 2, 1, 1, -13, 77, -40, 35, -9, 35, 75, 57], "withholdReward": false, "trial_id": "mdp_trial_6", "block": "test", "trialIndex": 13, "score": 10, "costs": 0, "simulationMode": [null, null, null, null, null], "rewards": [-2, -1, -4, -15, 32], "path": ["0", "0", "1", "2", "3", "4", "7"], "rt": [1485, 736, 316, 34, 139], "actions": ["up", "up", "up", "right", "down"], "actionTimes": [4641, 5964, 6814, 7433, 8147], "queries": {"click": {"state": {"target": [], "time": []}, "edge": {"target": [], "time": []}}, "mouseover": {"state": {"target": [], "time": []}, "edge": {"target": [], "time": []}}, "mouseout": {"state": {"target": ["0"], "time": [769]}, "edge": {"target": [], "time": []}}}, "displayed_time": "17.16", "trialTime": 17762, "trial_type": "mouselab-mdp", "trial_index": 32, "time_elapsed": 944755, "internal_node_id": "0.0-6.0-1.0-5.0"}}, {"uniqueid": "w45844825:a39578745", "current_trial": 33, "dateTime": 1693581128071, "trialdata": {"revealed_states": [], "clicked_states": [], "num_clicks_accrued": [0, 0, 0, 0, 0, 0, 0, 0, 0, 0, 0, 0, 0], "stateRewards": ["", 2, -2, 7, -11, -76, -65, -23, 16, -58, 30, 81, 1, 2, 7, 14, 9, 55, -2, 6, 11, -15, 31, -1, -1, -3, 2, 15, 2, 46, 15, 18, 45, -34], "withholdReward": false, "trial_id": "mdp_trial_7", "block": "test", "trialIndex": 14, "score": 28, "costs": 0, "simulationMode": [null, null, null, null, null], "rewards": [-1, -1, -3, 15, 18], "path": ["0", "0", "23", "24", "25", "30", "31"], "rt": [1058, 545, 197, 254, 172], "actions": ["left", "left", "left", "down", "right"], "actionTimes": [2846, 3946, 4687, 5489, 6241], "queries": {"click": {"state": {"target": [], "time": []}, "edge": {"target": [], "time": []}}, "mouseover": {"state": {"target": [], "time": []}, "edge": {"target": [], "time": []}}, "mouseout": {"state": {"target": ["0"], "time": [706]}, "edge": {"target": [], "time": []}}}, "displayed_time": "15.79", "trialTime": 16450, "trial_type": "mouselab-mdp", "trial_index": 33, "time_elapsed": 963792, "internal_node_id": "0.0-6.0-1.0-6.0"}}, {"uniqueid": "w45844825:a39578745", "current_trial": 34, "dateTime": 1693581148528, "trialdata": {"revealed_states": [], "clicked_states": [], "num_clicks_accrued": [0, 0, 0, 0, 0, 0, 0, 0, 0, 0, 0, 0, 0], "stateRewards": ["", -2, -1, -1, 5, -54, -87, 35, 2, -8, 20, -22, 1, 3, 6, 13, -75, -32, -55, -3, 56, 62, -22, -1, -4, -1, -7, -51, 84, 70, 7, -15, 5, 55], "withholdReward": false, "trial_id": "mdp_trial_8", "block": "test", "trialIndex": 15, "score": 63, "costs": 0, "simulationMode": [null, null, null, null, null], "rewards": [1, 3, 6, -3, 56], "path": ["0", "0", "12", "13", "14", "19", "20"], "rt": [1109, 106, 474, 242, 400], "actions": ["right", "right", "right", "down", "right"], "actionTimes": [3796, 4471, 5487, 6317, 7311], "queries": {"click": {"state": {"target": [], "time": []}, "edge": {"target": [], "time": []}}, "mouseover": {"state": {"target": [], "time": []}, "edge": {"target": [], "time": []}}, "mouseout": {"state": {"target": ["0"], "time": [1453]}, "edge": {"target": [], "time": []}}}, "displayed_time": "16.69", "trialTime": 17948, "trial_type": "mouselab-mdp", "trial_index": 34, "time_elapsed": 984248, "internal_node_id": "0.0-6.0-1.0-7.0"}}, {"uniqueid": "w45844825:a39578745", "current_trial": 35, "dateTime": 1693581170121, "trialdata": {"revealed_states": [], "clicked_states": [], "num_clicks_accrued": [0, 0, 0, 0, 0, 0, 0, 0, 0, 0, 0, 0, 0], "stateRewards": ["", -2, -3, 8, 14, -73, 73, 84, -12, -2, -50, -17, 2, 1, -2, -9, -44, -27, -33, 16, -63, -47, -66, -2, 1, 4, -5, -33, -11, 50, 9, 38, -79, 31], "withholdReward": false, "trial_id": "mdp_trial_9", "block": "test", "trialIndex": 16, "score": -30, "costs": 0, "simulationMode": [null, null, null, null, null], "rewards": [2, 1, -2, 16, -47], "path": ["0", "0", "12", "13", "14", "19", "21"], "rt": [1141, 192, 235, 311, 368], "actions": ["right", "right", "right", "down", "down"], "actionTimes": [4622, 5419, 6234, 7110, 8099], "queries": {"click": {"state": {"target": [], "time": []}, "edge": {"target": [], "time": []}}, "mouseover": {"state": {"target": [], "time": []}, "edge": {"target": [], "time": []}}, "mouseout": {"state": {"target": ["0"], "time": [1909]}, "edge": {"target": [], "time": []}}}, "displayed_time": "17.48", "trialTime": 18738, "trial_type": "mouselab-mdp", "trial_index": 35, "time_elapsed": 1005841, "internal_node_id": "0.0-6.0-1.0-8.0"}}, {"uniqueid": "w45844825:a39578745", "current_trial": 36, "dateTime": 1693581190356, "trialdata": {"revealed_states": [], "clicked_states": [], "num_clicks_accrued": [0, 0, 0, 0, 0, 0, 0, 0, 0, 0, 0, 0, 0], "stateRewards": ["", 1, 4, -8, -13, -13, -87, -77, -10, -44, 54, 42, 2, -3, -4, 12, -9, -80, 52, 9, 84, -2, -65, 1, -4, -5, -6, 8, 80, 32, 13, -59, -5, -13], "withholdReward": false, "trial_id": "mdp_trial_10", "block": "test", "trialIndex": 17, "score": -93, "costs": 0, "simulationMode": [null, null, null, null, null], "rewards": [1, 4, -8, -13, -77], "path": ["0", "0", "1", "2", "3", "4", "7"], "rt": [671, 583, 289, 147, 431], "actions": ["up", "up", "up", "right", "down"], "actionTimes": [2797, 3934, 4804, 5520, 6522], "queries": {"click": {"state": {"target": [], "time": []}, "edge": {"target": [], "time": []}}, "mouseover": {"state": {"target": [], "time": []}, "edge": {"target": [], "time": []}}, "mouseout": {"state": {"target": ["0"], "time": [715]}, "edge": {"target": [], "time": []}}}, "displayed_time": "16.13", "trialTime": 17355, "trial_type": "mouselab-mdp", "trial_index": 36, "time_elapsed": 1026076, "internal_node_id": "0.0-6.0-1.0-9.0"}}, {"uniqueid": "w45844825:a39578745", "current_trial": 37, "dateTime": 1693581210857, "trialdata": {"revealed_states": [], "clicked_states": [], "num_clicks_accrued": [0, 0, 0, 0, 0, 0, 0, 0, 0, 0, 0, 0, 0], "stateRewards": ["", 1, 2, -8, 9, 18, -83, -11, 6, -64, -48, 17, -2, -2, -5, -3, -24, -3, -86, -2, 48, -41, -22, -2, 4, 7, 8, 81, 13, -48, 10, 61, 19, 57], "withholdReward": false, "trial_id": "mdp_trial_11", "block": "test", "trialIndex": 18, "score": 30, "costs": 0, "simulationMode": [null, null, null, null, null], "rewards": [-2, 4, 7, 8, 13], "path": ["0", "0", "23", "24", "25", "26", "28"], "rt": [2570, 439, 514, 639, 221], "actions": ["left", "left", "left", "up", "right"], "actionTimes": [5241, 6226, 7292, 8538, 9295], "queries": {"click": {"state": {"target": [], "time": []}, "edge": {"target": [], "time": []}}, "mouseover": {"state": {"target": [], "time": []}, "edge": {"target": [], "time": []}}, "mouseout": {"state": {"target": ["0"], "time": [1275]}, "edge": {"target": [], "time": []}}}, "displayed_time": "16.68", "trialTime": 17746, "trial_type": "mouselab-mdp", "trial_index": 37, "time_elapsed": 1046577, "internal_node_id": "0.0-6.0-1.0-10.0"}}, {"uniqueid": "w45844825:a39578745", "current_trial": 38, "dateTime": 1693581230112, "trialdata": {"revealed_states": [], "clicked_states": [], "num_clicks_accrued": [0, 0, 0, 0, 0, 0, 0, 0, 0, 0, 0, 0, 0], "stateRewards": ["", 2, -1, 3, -12, -83, 6, -33, 9, 28, 24, -50, -2, -1, -2, -5, -87, 37, 82, 12, 80, -5, 10, -2, -3, -6, 9, 22, -1, 16, 9, 77, -62, 58], "withholdReward": false, "trial_id": "mdp_trial_12", "block": "test", "trialIndex": 19, "score": -97, "costs": 0, "simulationMode": [null, null, null, null, null], "rewards": [-2, -1, -2, -5, -87], "path": ["0", "0", "12", "13", "14", "15", "16"], "rt": [725, 161, 189, 200, 308], "actions": ["right", "right", "right", "up", "up"], "actionTimes": [2735, 3470, 4177, 4950, 5822], "queries": {"click": {"state": {"target": [], "time": []}, "edge": {"target": [], "time": []}}, "mouseover": {"state": {"target": [], "time": []}, "edge": {"target": [], "time": []}}, "mouseout": {"state": {"target": ["0"], "time": [628]}, "edge": {"target": [], "time": []}}}, "displayed_time": "16.02", "trialTime": 16586, "trial_type": "mouselab-mdp", "trial_index": 38, "time_elapsed": 1065830, "internal_node_id": "0.0-6.0-1.0-11.0"}}, {"uniqueid": "w45844825:a39578745", "current_trial": 39, "dateTime": 1693581250602, "trialdata": {"revealed_states": [], "clicked_states": [], "num_clicks_accrued": [0, 0, 0, 0, 0, 0, 0, 0, 0, 0, 0, 0, 0], "stateRewards": ["", 1, -3, -4, -11, -56, 61, -47, -16, -28, -9, 69, -2, -3, -4, -8, 40, -86, 59, -4, 80, 27, 54, -1, 3, -1, 8, 67, 23, 50, 6, 83, -43, -29], "withholdReward": false, "trial_id": "mdp_trial_13", "block": "test", "trialIndex": 20, "score": 67, "costs": 0, "simulationMode": [null, null, null, null, null], "rewards": [-2, -3, -4, -4, 80], "path": ["0", "0", "12", "13", "14", "19", "20"], "rt": [879, 115, 128, 335, 627], "actions": ["right", "right", "right", "down", "right"], "actionTimes": [3727, 4403, 5086, 5985, 7181], "queries": {"click": {"state": {"target": [], "time": []}, "edge": {"target": [], "time": []}}, "mouseover": {"state": {"target": [], "time": []}, "edge": {"target": [], "time": []}}, "mouseout": {"state": {"target": ["0"], "time": [1152]}, "edge": {"target": [], "time": []}}}, "displayed_time": "16.85", "trialTime": 17798, "trial_type": "mouselab-mdp", "trial_index": 39, "time_elapsed": 1086322, "internal_node_id": "0.0-6.0-1.0-12.0"}}, {"uniqueid": "w45844825:a39578745", "current_trial": 40, "dateTime": 1693581270019, "trialdata": {"revealed_states": [], "clicked_states": [], "num_clicks_accrued": [0, 0, 0, 0, 0, 0, 0, 0, 0, 0, 0, 0, 0], "stateRewards": ["", 1, -2, 7, -14, 88, -56, -44, -14, 64, -51, -57, -2, 3, -4, -9, -11, 19, -77, -1, 68, 75, -67, -1, 1, -2, 5, -37, 70, -34, -10, -72, 63, -41], "withholdReward": false, "trial_id": "mdp_trial_14", "block": "test", "trialIndex": 21, "score": -89, "costs": 0, "simulationMode": [null, null, null, null, null], "rewards": [-2, 3, -4, -9, -77], "path": ["0", "0", "12", "13", "14", "15", "18"], "rt": [591, 348, 171, 377, 433], "actions": ["right", "right", "right", "up", "left"], "actionTimes": [2584, 3494, 4233, 5205, 6180], "queries": {"click": {"state": {"target": [], "time": []}, "edge": {"target": [], "time": []}}, "mouseover": {"state": {"target": [], "time": []}, "edge": {"target": [], "time": []}}, "mouseout": {"state": {"target": ["0"], "time": [444]}, "edge": {"target": [], "time": []}}}, "displayed_time": "15.99", "trialTime": 16586, "trial_type": "mouselab-mdp", "trial_index": 40, "time_elapsed": 1105739, "internal_node_id": "0.0-6.0-1.0-13.0"}}, {"uniqueid": "w45844825:a39578745", "current_trial": 41, "dateTime": 1693581290648, "trialdata": {"revealed_states": [], "clicked_states": [], "num_clicks_accrued": [0, 0, 0, 0, 0, 0, 0, 0, 0, 0, 0, 0, 0], "stateRewards": ["", 1, -2, -3, 14, -42, -87, -37, -11, -50, 33, -44, -2, 4, -7, 13, 48, -75, -66, 12, 23, -2, 82, 1, -4, 3, 12, 51, -15, -26, -11, -52, -29, 82], "withholdReward": false, "trial_id": "mdp_trial_15", "block": "test", "trialIndex": 22, "score": 5, "costs": 0, "simulationMode": [null, null, null, null, null], "rewards": [-2, 4, -7, 12, -2], "path": ["0", "0", "12", "13", "14", "19", "21"], "rt": [673, 158, 22, 341, 44], "actions": ["right", "right", "right", "down", "down"], "actionTimes": [3665, 4349, 4971, 5890, 6494], "queries": {"click": {"state": {"target": [], "time": []}, "edge": {"target": [], "time": []}}, "mouseover": {"state": {"target": [], "time": []}, "edge": {"target": [], "time": []}}, "mouseout": {"state": {"target": ["0"], "time": [1206]}, "edge": {"target": [], "time": []}}}, "displayed_time": "16.99", "trialTime": 17863, "trial_type": "mouselab-mdp", "trial_index": 41, "time_elapsed": 1126369, "internal_node_id": "0.0-6.0-1.0-14.0"}}, {"uniqueid": "w45844825:a39578745", "current_trial": 42, "dateTime": 1693581310512, "trialdata": {"revealed_states": [], "clicked_states": [], "num_clicks_accrued": [0, 0, 0, 0, 0, 0, 0, 0, 0, 0, 0, 0, 0], "stateRewards": ["", 1, 4, 7, -16, -84, -6, -46, -12, -7, -49, -26, -1, 2, -4, 2, 22, 37, -64, 1, 88, -13, -10, 1, -4, -2, 5, 2, -10, -34, 9, 66, 55, 38], "withholdReward": false, "trial_id": "mdp_trial_16", "block": "test", "trialIndex": 23, "score": 86, "costs": 0, "simulationMode": [null, null, null, null, null], "rewards": [-1, 2, -4, 1, 88], "path": ["0", "0", "12", "13", "14", "19", "20"], "rt": [801, 174, 46, 391, 164], "actions": ["right", "right", "right", "down", "right"], "actionTimes": [2977, 3695, 4314, 5257, 6007], "queries": {"click": {"state": {"target": [], "time": []}, "edge": {"target": [], "time": []}}, "mouseover": {"state": {"target": [], "time": []}, "edge": {"target": [], "time": []}}, "mouseout": {"state": {"target": ["0"], "time": [451]}, "edge": {"target": [], "time": []}}}, "displayed_time": "16.18", "trialTime": 17057, "trial_type": "mouselab-mdp", "trial_index": 42, "time_elapsed": 1146232, "internal_node_id": "0.0-6.0-1.0-15.0"}}, {"uniqueid": "w45844825:a39578745", "current_trial": 43, "dateTime": 1693581334161, "trialdata": {"revealed_states": [], "clicked_states": [], "num_clicks_accrued": [0, 0, 0, 0, 0, 0, 0, 0, 0, 0, 0, 0, 0], "stateRewards": ["", 2, -1, 1, 10, -52, 86, -22, -2, -14, -63, 38, 1, 3, 7, -8, 11, -32, -27, 9, -71, 40, -87, -2, -1, 5, -7, 12, 31, -57, 13, 86, -58, 29], "withholdReward": false, "trial_id": "mdp_trial_17", "block": "test", "trialIndex": 24, "score": 38, "costs": 0, "simulationMode": [null, null, null, null, null], "rewards": [2, -1, 1, -2, 38], "path": ["0", "0", "1", "2", "3", "8", "11"], "rt": [830, 156, 36, 342, 243], "actions": ["up", "up", "up", "left", "left"], "actionTimes": [6887, 7648, 8232, 9201, 10016], "queries": {"click": {"state": {"target": [], "time": []}, "edge": {"target": [], "time": []}}, "mouseover": {"state": {"target": [], "time": []}, "edge": {"target": [], "time": []}}, "mouseout": {"state": {"target": ["0"], "time": [4485]}, "edge": {"target": [], "time": []}}}, "displayed_time": "20.07", "trialTime": 20781, "trial_type": "mouselab-mdp", "trial_index": 43, "time_elapsed": 1169881, "internal_node_id": "0.0-6.0-1.0-16.0"}}, {"uniqueid": "w45844825:a39578745", "current_trial": 44, "dateTime": 1693581353656, "trialdata": {"revealed_states": [], "clicked_states": [], "num_clicks_accrued": [0, 0, 0, 0, 0, 0, 0, 0, 0, 0, 0, 0, 0], "stateRewards": ["", -2, -4, 4, -11, -63, -60, -7, 2, -14, 81, -43, -1, -1, -5, 7, 10, 69, 40, 8, -83, 52, 60, 1, 2, 5, -5, 16, 64, 14, -3, 29, 7, -51], "withholdReward": false, "trial_id": "mdp_trial_18", "block": "test", "trialIndex": 25, "score": -76, "costs": 0, "simulationMode": [null, null, null, null, null], "rewards": [-2, -4, 4, -11, -63], "path": ["0", "0", "1", "2", "3", "4", "5"], "rt": [650, 106, 74, 929, 177], "actions": ["up", "up", "up", "right", "up"], "actionTimes": [3040, 3702, 4329, 5812, 6579], "queries": {"click": {"state": {"target": [], "time": []}, "edge": {"target": [], "time": []}}, "mouseover": {"state": {"target": [], "time": []}, "edge": {"target": [], "time": []}}, "mouseout": {"state": {"target": ["0"], "time": [477]}, "edge": {"target": [], "time": []}}}, "displayed_time": "16.39", "trialTime": 16993, "trial_type": "mouselab-mdp", "trial_index": 44, "time_elapsed": 1189376, "internal_node_id": "0.0-6.0-1.0-17.0"}}, {"uniqueid": "w45844825:a39578745", "current_trial": 45, "dateTime": 1693581373862, "trialdata": {"revealed_states": [], "clicked_states": [], "num_clicks_accrued": [0, 0, 0, 0, 0, 0, 0, 0, 0, 0, 0, 0, 0], "stateRewards": ["", 2, -3, -4, -1, 25, -16, 16, 10, -71, -20, -55, 1, 3, -4, -9, 1, 32, 11, -6, 32, -50, -41, -1, 4, 4, -8, 7, -81, 70, 2, -52, 45, -10], "withholdReward": false, "trial_id": "mdp_trial_19", "block": "test", "trialIndex": 26, "score": 54, "costs": 0, "simulationMode": [null, null, null, null, null], "rewards": [-1, 4, 4, 2, 45], "path": ["0", "0", "23", "24", "25", "30", "32"], "rt": [896, 66, 28, 911, 477], "actions": ["left", "left", "left", "down", "down"], "actionTimes": [3199, 3828, 4432, 5912, 6949], "queries": {"click": {"state": {"target": [], "time": []}, "edge": {"target": [], "time": []}}, "mouseover": {"state": {"target": [], "time": []}, "edge": {"target": [], "time": []}}, "mouseout": {"state": {"target": ["0"], "time": [603]}, "edge": {"target": [], "time": []}}}, "displayed_time": "16.31", "trialTime": 17319, "trial_type": "mouselab-mdp", "trial_index": 45, "time_elapsed": 1209582, "internal_node_id": "0.0-6.0-1.0-18.0"}}, {"uniqueid": "w45844825:a39578745", "current_trial": 46, "dateTime": 1693581395121, "trialdata": {"revealed_states": [], "clicked_states": [], "num_clicks_accrued": [0, 0, 0, 0, 0, 0, 0, 0, 0, 0, 0, 0, 0], "stateRewards": ["", -1, -2, -8, 8, -27, -82, 19, -14, -62, 4, 1, -2, 2, 6, 10, 73, -51, -2, 2, 73, -48, 54, -1, 2, -4, 11, -25, 47, 86, 15, 33, 43, -42], "withholdReward": false, "trial_id": "mdp_trial_20", "block": "test", "trialIndex": 27, "score": 45, "costs": 0, "simulationMode": [null, null, null, null, null], "rewards": [-1, 2, -4, 15, 33], "path": ["0", "0", "23", "24", "25", "30", "31"], "rt": [887, 54, 40, 348, 308], "actions": ["left", "left", "left", "down", "right"], "actionTimes": [4579, 5170, 5774, 6677, 7545], "queries": {"click": {"state": {"target": [], "time": []}, "edge": {"target": [], "time": []}}, "mouseover": {"state": {"target": [], "time": []}, "edge": {"target": [], "time": []}}, "mouseout": {"state": {"target": ["0"], "time": [1107]}, "edge": {"target": [], "time": []}}}, "displayed_time": "17.70", "trialTime": 18420, "trial_type": "mouselab-mdp", "trial_index": 46, "time_elapsed": 1230830, "internal_node_id": "0.0-6.0-1.0-19.0"}}, {"uniqueid": "w45844825:a39578745", "current_trial": 47, "dateTime": 1693581415865, "trialdata": {"revealed_states": [], "clicked_states": [], "num_clicks_accrued": [0, 0, 0, 0, 0, 0, 0, 0, 0, 0, 0, 0, 0], "stateRewards": ["", -2, 1, -7, 9, 8, 25, 61, -7, -17, 69, -81, 1, 4, -4, -11, 16, 67, 44, 3, 6, -45, -54, -2, 3, 6, -11, -15, 32, -47, 3, -39, -6, -88], "withholdReward": false, "trial_id": "mdp_trial_21", "block": "test", "trialIndex": 28, "score": 28, "costs": 0, "simulationMode": [null, null, null, null, null], "rewards": [-2, 3, 6, -11, 32], "path": ["0", "0", "23", "24", "25", "26", "28"], "rt": [685, 262, 314, 204, 195], "actions": ["left", "left", "left", "up", "right"], "actionTimes": [3577, 4451, 5349, 6105, 6857], "queries": {"click": {"state": {"target": [], "time": []}, "edge": {"target": [], "time": []}}, "mouseover": {"state": {"target": [], "time": []}, "edge": {"target": [], "time": []}}, "mouseout": {"state": {"target": ["0"], "time": [672]}, "edge": {"target": [], "time": []}}}, "displayed_time": "16.89", "trialTime": 17488, "trial_type": "mouselab-mdp", "trial_index": 47, "time_elapsed": 1251586, "internal_node_id": "0.0-6.0-1.0-20.0"}}, {"uniqueid": "w45844825:a39578745", "current_trial": 48, "dateTime": 1693581435827, "trialdata": {"revealed_states": [], "clicked_states": [], "num_clicks_accrued": [0, 0, 0, 0, 0, 0, 0, 0, 0, 0, 0, 0, 0], "stateRewards": ["", -1, 1, 8, -3, -24, 11, -65, -6, -77, 48, 44, -2, 1, -2, -7, -55, -35, 33, 8, -28, 19, -53, -1, -1, -5, -5, -70, 10, 44, 8, -58, -70, 51], "withholdReward": false, "trial_id": "mdp_trial_22", "block": "test", "trialIndex": 29, "score": 52, "costs": 0, "simulationMode": [null, null, null, null, null], "rewards": [-1, -1, -5, 8, 51], "path": ["0", "0", "23", "24", "25", "30", "33"], "rt": [505, 37, 140, 35, 102], "actions": ["left", "left", "left", "down", "left"], "actionTimes": [2928, 3515, 4215, 4833, 5503], "queries": {"click": {"state": {"target": [], "time": []}, "edge": {"target": [], "time": []}}, "mouseover": {"state": {"target": [], "time": []}, "edge": {"target": [], "time": []}}, "mouseout": {"state": {"target": ["0"], "time": [346]}, "edge": {"target": [], "time": []}}}, "displayed_time": "16.43", "trialTime": 16975, "trial_type": "mouselab-mdp", "trial_index": 48, "time_elapsed": 1271547, "internal_node_id": "0.0-6.0-1.0-21.0"}}, {"uniqueid": "w45844825:a39578745", "current_trial": 49, "dateTime": 1693581457818, "trialdata": {"revealed_states": [], "clicked_states": [], "num_clicks_accrued": [0, 0, 0, 0, 0, 0, 0, 0, 0, 0, 0, 0, 0], "stateRewards": ["", -1, 3, -5, -2, -13, -9, -34, -7, -81, 32, 35, -2, -2, 1, -14, -32, 81, 7, 4, 82, 56, -8, -1, 3, -8, 6, -24, -24, -53, 2, 38, 61, 54], "withholdReward": false, "trial_id": "mdp_trial_23", "block": "test", "trialIndex": 30, "score": 83, "costs": 0, "simulationMode": [null, null, null, null, null], "rewards": [-2, -2, 1, 4, 82], "path": ["0", "0", "12", "13", "14", "19", "20"], "rt": [549, 37, 50, 1570, 579], "actions": ["right", "right", "right", "down", "right"], "actionTimes": [2279, 2881, 3451, 6048, 7186], "queries": {"click": {"state": {"target": [], "time": []}, "edge": {"target": [], "time": []}}, "mouseover": {"state": {"target": [], "time": []}, "edge": {"target": [], "time": []}}, "mouseout": {"state": {"target": ["0"], "time": [305]}, "edge": {"target": [], "time": []}}}, "displayed_time": "15.73", "trialTime": 18618, "trial_type": "mouselab-mdp", "trial_index": 49, "time_elapsed": 1293538, "internal_node_id": "0.0-6.0-1.0-22.0"}}, {"uniqueid": "w45844825:a39578745", "current_trial": 50, "dateTime": 1693581479214, "trialdata": {"revealed_states": [], "clicked_states": [], "num_clicks_accrued": [0, 0, 0, 0, 0, 0, 0, 0, 0, 0, 0, 0, 0], "stateRewards": ["", 2, -1, 5, 8, 75, -35, -77, 1, -9, -81, -58, 1, 2, -7, 5, 77, -16, 19, 16, -10, -18, 40, -2, 3, 7, -5, 64, 1, -62, 10, 27, 10, 65], "withholdReward": false, "trial_id": "mdp_trial_24", "block": "test", "trialIndex": 31, "score": -15, "costs": 0, "simulationMode": [null, null, null, null, null], "rewards": [1, 2, -7, 5, -16], "path": ["0", "0", "12", "13", "14", "15", "17"], "rt": [749, 335, 499, 265, 274], "actions": ["right", "right", "right", "up", "right"], "actionTimes": [4200, 5074, 6133, 6918, 7764], "queries": {"click": {"state": {"target": [], "time": []}, "edge": {"target": [], "time": []}}, "mouseover": {"state": {"target": [], "time": []}, "edge": {"target": [], "time": []}}, "mouseout": {"state": {"target": ["0"], "time": [660]}, "edge": {"target": [], "time": []}}}, "displayed_time": "17.45", "trialTime": 18053, "trial_type": "mouselab-mdp", "trial_index": 50, "time_elapsed": 1314934, "internal_node_id": "0.0-6.0-1.0-23.0"}}, {"uniqueid": "w45844825:a39578745", "current_trial": 51, "dateTime": 1693581499457, "trialdata": {"revealed_states": [], "clicked_states": [], "num_clicks_accrued": [0, 0, 0, 0, 0, 0, 0, 0, 0, 0, 0, 0, 0], "stateRewards": ["", 1, 1, 6, -14, -40, 37, 16, -13, 33, -68, 49, 2, 4, 3, 6, 55, 27, 32, 10, -65, 20, -87, 2, 1, -6, -5, -42, 12, 29, -8, 16, 76, -33], "withholdReward": false, "trial_id": "mdp_trial_25", "block": "test", "trialIndex": 32, "score": 21, "costs": 0, "simulationMode": [null, null, null, null, null], "rewards": [2, 1, -6, -5, 29], "path": ["0", "0", "23", "24", "25", "26", "29"], "rt": [1882, 143, 228, 71, 30], "actions": ["left", "left", "left", "up", "left"], "actionTimes": [3898, 4599, 5407, 6033, 6682], "queries": {"click": {"state": {"target": [], "time": []}, "edge": {"target": [], "time": []}}, "mouseover": {"state": {"target": [], "time": []}, "edge": {"target": [], "time": []}}, "mouseout": {"state": {"target": ["0"], "time": [745]}, "edge": {"target": [], "time": []}}}, "displayed_time": "16.02", "trialTime": 16742, "trial_type": "mouselab-mdp", "trial_index": 51, "time_elapsed": 1335177, "internal_node_id": "0.0-6.0-1.0-24.0"}}, {"uniqueid": "w45844825:a39578745", "current_trial": 52, "dateTime": 1693581519146, "trialdata": {"revealed_states": [], "clicked_states": [], "num_clicks_accrued": [0, 0, 0, 0, 0, 0, 0, 0, 0, 0, 0, 0, 0], "stateRewards": ["", 2, 4, -5, 7, 81, 35, 6, 11, 14, -72, 42, -1, 2, 3, -7, -77, -44, -40, -15, -85, 51, -32, -2, -1, -5, 7, -74, 47, 52, 16, -49, 48, -46], "withholdReward": false, "trial_id": "mdp_trial_26", "block": "test", "trialIndex": 33, "score": -75, "costs": 0, "simulationMode": [null, null, null, null, null], "rewards": [-2, -1, -5, 7, -74], "path": ["0", "0", "23", "24", "25", "26", "27"], "rt": [2236, 332, 301, 72, 95], "actions": ["left", "left", "left", "up", "up"], "actionTimes": [4327, 5269, 6137, 6776, 7445], "queries": {"click": {"state": {"target": [], "time": []}, "edge": {"target": [], "time": []}}, "mouseover": {"state": {"target": [], "time": []}, "edge": {"target": [], "time": []}}, "mouseout": {"state": {"target": ["0"], "time": [531]}, "edge": {"target": [], "time": []}}}, "displayed_time": "16.09", "trialTime": 16919, "trial_type": "mouselab-mdp", "trial_index": 52, "time_elapsed": 1354865, "internal_node_id": "0.0-6.0-1.0-25.0"}}, {"uniqueid": "w45844825:a39578745", "current_trial": 53, "dateTime": 1693581546287, "trialdata": {"revealed_states": [], "clicked_states": [], "num_clicks_accrued": [0, 0, 0, 0, 0, 0, 0, 0, 0, 0, 0, 0, 0], "stateRewards": ["", -2, 3, -1, -9, 44, 48, -37, -3, 71, -39, 87, -1, 3, -4, 4, -21, 59, -15, -8, -1, 28, -38, 2, 4, 4, 8, -85, -72, -63, 14, 58, 63, -46], "withholdReward": false, "trial_id": "mdp_trial_27", "block": "test", "trialIndex": 34, "score": -48, "costs": 0, "simulationMode": [null, null, null, null, null], "rewards": [-1, 3, -4, -8, -38], "path": ["0", "0", "12", "13", "14", "19", "22"], "rt": [1094, 143, 24, 323, 326], "actions": ["right", "right", "right", "down", "left"], "actionTimes": [10473, 11172, 11790, 12650, 13557], "queries": {"click": {"state": {"target": [], "time": []}, "edge": {"target": [], "time": []}}, "mouseover": {"state": {"target": [], "time": []}, "edge": {"target": [], "time": []}}, "mouseout": {"state": {"target": ["0"], "time": [7357]}, "edge": {"target": [], "time": []}}}, "displayed_time": "23.43", "trialTime": 24896, "trial_type": "mouselab-mdp", "trial_index": 53, "time_elapsed": 1382007, "internal_node_id": "0.0-6.0-1.0-26.0"}}, {"uniqueid": "w45844825:a39578745", "current_trial": 54, "dateTime": 1693581568547, "trialdata": {"revealed_states": [], "clicked_states": [], "num_clicks_accrued": [0, 0, 0, 0, 0, 0, 0, 0, 0, 0, 0, 0, 0], "stateRewards": ["", 1, -1, 4, -2, -75, -75, 84, -9, -60, -79, 59, 2, -4, 8, 9, -17, -82, 80, 14, -4, 49, 49, -1, 3, 6, -11, -33, 34, 55, 9, -57, 5, 59], "withholdReward": false, "trial_id": "mdp_trial_28", "block": "test", "trialIndex": 35, "score": -67, "costs": 0, "simulationMode": [null, null, null, null, null], "rewards": [2, -4, 8, 9, -82], "path": ["0", "0", "12", "13", "14", "15", "17"], "rt": [656, 162, 99, 4389, 227], "actions": ["right", "right", "right", "up", "right"], "actionTimes": [3217, 3936, 4586, 9569, 10362], "queries": {"click": {"state": {"target": [], "time": []}, "edge": {"target": [], "time": []}}, "mouseover": {"state": {"target": [], "time": []}, "edge": {"target": [], "time": []}}, "mouseout": {"state": {"target": ["0"], "time": [636]}, "edge": {"target": [], "time": []}}}, "displayed_time": "16.56", "trialTime": 19112, "trial_type": "mouselab-mdp", "trial_index": 54, "time_elapsed": 1404267, "internal_node_id": "0.0-6.0-1.0-27.0"}}, {"uniqueid": "w45844825:a39578745", "current_trial": 55, "dateTime": 1693581588838, "trialdata": {"revealed_states": [], "clicked_states": [], "num_clicks_accrued": [0, 0, 0, 0, 0, 0, 0, 0, 0, 0, 0, 0, 0], "stateRewards": ["", -1, -3, -5, -14, -13, -47, 79, 8, -60, -64, 41, -1, 2, 3, 13, -46, 61, -79, -11, -64, -65, 23, 1, -2, 6, -14, 46, 32, 21, 7, 75, -66, 15], "withholdReward": false, "trial_id": "mdp_trial_29", "block": "test", "trialIndex": 36, "score": -54, "costs": 0, "simulationMode": [null, null, null, null, null], "rewards": [1, -2, 6, 7, -66], "path": ["0", "0", "23", "24", "25", "30", "32"], "rt": [772, 281, 1232, 337, 108], "actions": ["left", "left", "left", "down", "down"], "actionTimes": [3361, 4182, 5976, 6905, 7599], "queries": {"click": {"state": {"target": [], "time": []}, "edge": {"target": [], "time": []}}, "mouseover": {"state": {"target": [], "time": []}, "edge": {"target": [], "time": []}}, "mouseout": {"state": {"target": ["0"], "time": [717]}, "edge": {"target": [], "time": []}}}, "displayed_time": "16.59", "trialTime": 17259, "trial_type": "mouselab-mdp", "trial_index": 55, "time_elapsed": 1424558, "internal_node_id": "0.0-6.0-1.0-28.0"}}, {"uniqueid": "w45844825:a39578745", "current_trial": 56, "dateTime": 1693581609024, "trialdata": {"revealed_states": [], "clicked_states": [], "num_clicks_accrued": [0, 0, 0, 0, 0, 0, 0, 0, 0, 0, 0, 0, 0], "stateRewards": ["", -1, 2, 5, -6, 13, -64, -47, 8, -79, -80, -33, 1, 2, -2, -16, 56, -71, -10, 3, 29, 44, 85, -1, 4, 5, 4, -36, -56, 19, 8, 52, -13, -2], "withholdReward": false, "trial_id": "mdp_trial_30", "block": "test", "trialIndex": 37, "score": -64, "costs": 0, "simulationMode": [null, null, null, null, null], "rewards": [-1, 2, 5, -6, -64], "path": ["0", "0", "1", "2", "3", "4", "6"], "rt": [1243, 39, 52, 1258, 65], "actions": ["up", "up", "up", "right", "right"], "actionTimes": [3879, 4502, 5106, 6918, 7530], "queries": {"click": {"state": {"target": [], "time": []}, "edge": {"target": [], "time": []}}, "mouseover": {"state": {"target": [], "time": []}, "edge": {"target": [], "time": []}}, "mouseout": {"state": {"target": ["0"], "time": [910]}, "edge": {"target": [], "time": []}}}, "displayed_time": "16.66", "trialTime": 17125, "trial_type": "mouselab-mdp", "trial_index": 56, "time_elapsed": 1444744, "internal_node_id": "0.0-6.0-1.0-29.0"}}, {"uniqueid": "w45844825:a39578745", "current_trial": 57, "dateTime": 1693581629504, "trialdata": {"revealed_states": [], "clicked_states": [], "num_clicks_accrued": [0, 0, 0, 0, 0, 0, 0, 0, 0, 0, 0, 0, 0], "stateRewards": ["", 2, -4, -4, 13, -80, 62, 13, -11, 57, -13, -44, 1, 4, 3, -4, -29, -88, 15, 16, -58, 68, -45, -1, -3, -1, -9, -44, -86, -19, -7, -36, 59, 66], "withholdReward": false, "trial_id": "mdp_trial_31", "block": "test", "trialIndex": 38, "score": 20, "costs": 0, "simulationMode": [null, null, null, null, null], "rewards": [2, -4, -4, 13, 13], "path": ["0", "0", "1", "2", "3", "4", "7"], "rt": [1211, 241, 213, 395, 210], "actions": ["up", "up", "up", "right", "down"], "actionTimes": [3474, 4327, 5074, 6028, 6788], "queries": {"click": {"state": {"target": [], "time": []}, "edge": {"target": [], "time": []}}, "mouseover": {"state": {"target": [], "time": []}, "edge": {"target": [], "time": []}}, "mouseout": {"state": {"target": ["0"], "time": [165]}, "edge": {"target": [], "time": []}}}, "displayed_time": "16.28", "trialTime": 17324, "trial_type": "mouselab-mdp", "trial_index": 57, "time_elapsed": 1465223, "internal_node_id": "0.0-6.0-1.0-30.0"}}, {"uniqueid": "w45844825:a39578745", "current_trial": 58, "dateTime": 1693581652317, "trialdata": {"revealed_states": [], "clicked_states": [], "num_clicks_accrued": [0, 0, 0, 0, 0, 0, 0, 0, 0, 0, 0, 0, 0], "stateRewards": ["", -2, 1, -3, -16, -39, -52, 30, -7, -41, -59, 11, 2, 1, 8, 2, -11, -26, -42, -13, 87, -59, -48, -1, -1, -1, 16, -79, 31, 50, -1, -84, 34, -82], "withholdReward": false, "trial_id": "mdp_trial_32", "block": "test", "trialIndex": 39, "score": -50, "costs": 0, "simulationMode": [null, null, null, null, null], "rewards": [2, 1, 8, -13, -48], "path": ["0", "0", "12", "13", "14", "19", "22"], "rt": [2366, 37, 497, 210, 360], "actions": ["right", "right", "right", "down", "left"], "actionTimes": [6578, 7186, 8259, 9058, 9991], "queries": {"click": {"state": {"target": [], "time": []}, "edge": {"target": [], "time": []}}, "mouseover": {"state": {"target": [], "time": []}, "edge": {"target": [], "time": []}}, "mouseout": {"state": {"target": ["0"], "time": [811]}, "edge": {"target": [], "time": []}}}, "displayed_time": "18.21", "trialTime": 19550, "trial_type": "mouselab-mdp", "trial_index": 58, "time_elapsed": 1488037, "internal_node_id": "0.0-6.0-1.0-31.0"}}, {"uniqueid": "w45844825:a39578745", "current_trial": 59, "dateTime": 1693581681657, "trialdata": {"revealed_states": [], "clicked_states": [], "num_clicks_accrued": [0, 0, 0, 0, 0, 0, 0, 0, 0, 0, 0, 0, 0], "stateRewards": ["", -1, 1, 6, -6, 70, 66, 67, -16, -75, -35, 37, -1, 4, 4, -6, 47, -9, 63, 15, 21, -63, 13, 1, 3, -6, 10, 79, -29, 18, -15, 9, -67, -19], "withholdReward": false, "trial_id": "mdp_trial_33", "block": "test", "trialIndex": 40, "score": -8, "costs": 0, "simulationMode": [null, null, null, null, null], "rewards": [-1, 4, 4, -6, -9], "path": ["0", "0", "12", "13", "14", "15", "17"], "rt": [1070, 321, 36, 1318, 234], "actions": ["right", "right", "right", "up", "right"], "actionTimes": [11008, 11940, 12579, 14485, 15305], "queries": {"click": {"state": {"target": [], "time": []}, "edge": {"target": [], "time": []}}, "mouseover": {"state": {"target": [], "time": []}, "edge": {"target": [], "time": []}}, "mouseout": {"state": {"target": ["0"], "time": [8479]}, "edge": {"target": [], "time": []}}}, "displayed_time": "23.98", "trialTime": 25856, "trial_type": "mouselab-mdp", "trial_index": 59, "time_elapsed": 1517377, "internal_node_id": "0.0-6.0-1.0-32.0"}}, {"uniqueid": "w45844825:a39578745", "current_trial": 60, "dateTime": 1693581703260, "trialdata": {"revealed_states": [], "clicked_states": [], "num_clicks_accrued": [0, 0, 0, 0, 0, 0, 0, 0, 0, 0, 0, 0, 0], "stateRewards": ["", -1, -3, -6, 14, 41, 18, 63, -14, 80, 21, 17, -2, -4, -2, -5, 13, 70, 8, -4, -64, -10, -20, 2, -1, 4, -1, -17, -55, 42, -7, 47, 54, 15], "withholdReward": false, "trial_id": "mdp_trial_34", "block": "test", "trialIndex": 41, "score": 46, "costs": 0, "simulationMode": [null, null, null, null, null], "rewards": [2, -1, 4, -1, 42], "path": ["0", "0", "23", "24", "25", "26", "29"], "rt": [968, 161, 480, 184, 345], "actions": ["left", "left", "left", "up", "left"], "actionTimes": [3594, 4321, 5357, 6246, 6980], "queries": {"click": {"state": {"target": [], "time": []}, "edge": {"target": [], "time": []}}, "mouseover": {"state": {"target": [], "time": []}, "edge": {"target": [], "time": []}}, "mouseout": {"state": {"target": ["0"], "time": [1035]}, "edge": {"target": [], "time": []}}}, "displayed_time": "16.63", "trialTime": 18660, "trial_type": "mouselab-mdp", "trial_index": 60, "time_elapsed": 1538981, "internal_node_id": "0.0-6.0-1.0-33.0"}}, {"uniqueid": "w45844825:a39578745", "current_trial": 61, "dateTime": 1693581723782, "trialdata": {"revealed_states": [], "clicked_states": [], "num_clicks_accrued": [0, 0, 0, 0, 0, 0, 0, 0, 0, 0, 0, 0, 0], "stateRewards": ["", -2, -3, -5, 8, 27, 11, 43, -6, -24, -87, 69, -2, 1, 1, 9, 19, 48, -37, 9, -14, 45, 62, 1, 2, 1, 16, -81, -41, 22, 4, -6, -63, 47], "withholdReward": false, "trial_id": "mdp_trial_35", "block": "test", "trialIndex": 42, "score": 53, "costs": 0, "simulationMode": [null, null, null, null, null], "rewards": [-2, -3, -5, -6, 69], "path": ["0", "0", "1", "2", "3", "8", "11"], "rt": [1675, 322, 267, 354, 367], "actions": ["up", "up", "up", "left", "left"], "actionTimes": [4203, 5082, 5875, 6780, 7709], "queries": {"click": {"state": {"target": [], "time": []}, "edge": {"target": [], "time": []}}, "mouseover": {"state": {"target": [], "time": []}, "edge": {"target": [], "time": []}}, "mouseout": {"state": {"target": ["0"], "time": [1009]}, "edge": {"target": [], "time": []}}}, "displayed_time": "16.54", "trialTime": 17080, "trial_type": "mouselab-mdp", "trial_index": 61, "time_elapsed": 1559502, "internal_node_id": "0.0-6.0-1.0-34.0"}}, {"uniqueid": "w45844825:a39578745", "current_trial": 62, "dateTime": 1693581745767, "trialdata": {"revealed_states": [], "clicked_states": [], "num_clicks_accrued": [0, 0, 0, 0, 0, 0, 0, 0, 0, 0, 0, 0, 0], "stateRewards": ["", 2, 3, -1, 16, -78, -11, 46, 2, -20, 79, -67, 2, 3, 2, 11, -83, -42, -58, -11, -67, -22, 55, 2, -1, -1, -16, -83, -82, 23, -11, -29, 13, 13], "withholdReward": false, "trial_id": "mdp_trial_36", "block": "test", "trialIndex": 43, "score": -61, "costs": 0, "simulationMode": [null, null, null, null, null], "rewards": [2, 3, -1, 2, -67], "path": ["0", "0", "1", "2", "3", "8", "11"], "rt": [2088, 47, 66, 255, 264], "actions": ["up", "up", "up", "left", "left"], "actionTimes": [4987, 5603, 6185, 7014, 7843], "queries": {"click": {"state": {"target": [], "time": []}, "edge": {"target": [], "time": []}}, "mouseover": {"state": {"target": [], "time": []}, "edge": {"target": [], "time": []}}, "mouseout": {"state": {"target": ["0"], "time": [960]}, "edge": {"target": [], "time": []}}}, "displayed_time": "17.00", "trialTime": 18001, "trial_type": "mouselab-mdp", "trial_index": 62, "time_elapsed": 1581435, "internal_node_id": "0.0-6.0-1.0-35.0"}}, {"uniqueid": "w45844825:a39578745", "current_trial": 63, "dateTime": 1693581773210, "trialdata": {"revealed_states": [], "clicked_states": [], "num_clicks_accrued": [0, 0, 0, 0, 0, 0, 0, 0, 0, 0, 0, 0, 0], "stateRewards": ["", 2, 3, 6, -12, -29, 12, 87, 4, 35, -30, 67, 2, 3, -5, -9, 44, 69, -8, 1, 45, -8, 28, -2, -1, -8, 11, -12, -5, 81, 9, 87, 82, 88], "withholdReward": false, "trial_id": "mdp_trial_37", "block": "test", "trialIndex": 44, "score": 82, "costs": 0, "simulationMode": [null, null, null, null, null], "rewards": [2, 3, 6, 4, 67], "path": ["0", "0", "1", "2", "3", "8", "11"], "rt": [2204, 52, 63, 347, 138], "actions": ["up", "up", "up", "left", "left"], "actionTimes": [10690, 11315, 11900, 12810, 13482], "queries": {"click": {"state": {"target": [], "time": []}, "edge": {"target": [], "time": []}}, "mouseover": {"state": {"target": [], "time": []}, "edge": {"target": [], "time": []}}, "mouseout": {"state": {"target": ["0"], "time": [6970]}, "edge": {"target": [], "time": []}}}, "displayed_time": "22.52", "trialTime": 23442, "trial_type": "mouselab-mdp", "trial_index": 63, "time_elapsed": 1608930, "internal_node_id": "0.0-6.0-1.0-36.0"}}, {"uniqueid": "w45844825:a39578745", "current_trial": 64, "dateTime": 1693581794351, "trialdata": {"revealed_states": [], "clicked_states": [], "num_clicks_accrued": [0, 0, 0, 0, 0, 0, 0, 0, 0, 0, 0, 0, 0], "stateRewards": ["", 2, -3, -2, 14, -4, 85, 46, 15, -28, 41, 31, -1, -1, -1, 5, 62, 79, 57, 12, -73, -64, 86, -1, 1, -3, -5, 68, 11, -32, 8, -80, -21, -56], "withholdReward": false, "trial_id": "mdp_trial_38", "block": "test", "trialIndex": 45, "score": 96, "costs": 0, "simulationMode": [null, null, null, null, null], "rewards": [2, -3, -2, 14, 85], "path": ["0", "0", "1", "2", "3", "4", "6"], "rt": [1000, 69, 25, 467, 248], "actions": ["up", "up", "up", "right", "right"], "actionTimes": [3413, 4062, 4679, 5770, 6746], "queries": {"click": {"state": {"target": [], "time": []}, "edge": {"target": [], "time": []}}, "mouseover": {"state": {"target": [], "time": []}, "edge": {"target": [], "time": []}}, "mouseout": {"state": {"target": ["0"], "time": [589]}, "edge": {"target": [], "time": []}}}, "displayed_time": "16.42", "trialTime": 17329, "trial_type": "mouselab-mdp", "trial_index": 64, "time_elapsed": 1630057, "internal_node_id": "0.0-6.0-1.0-37.0"}}, {"uniqueid": "w45844825:a39578745", "current_trial": 65, "dateTime": 1693581816594, "trialdata": {"revealed_states": [], "clicked_states": [], "num_clicks_accrued": [0, 0, 0, 0, 0, 0, 0, 0, 0, 0, 0, 0, 0], "stateRewards": ["", 1, 4, 5, -5, 58, -80, 75, 6, 25, -39, 46, 2, -2, 4, 2, 59, 31, -22, -12, -61, 15, 72, 1, -2, -7, 8, 77, 76, -23, -7, 71, -15, -3], "withholdReward": false, "trial_id": "mdp_trial_39", "block": "test", "trialIndex": 46, "score": 63, "costs": 0, "simulationMode": [null, null, null, null, null], "rewards": [1, 4, 5, -5, 58], "path": ["0", "0", "1", "2", "3", "4", "5"], "rt": [944, 282, 225, 223, 259], "actions": ["up", "up", "up", "right", "up"], "actionTimes": [4059, 4904, 5689, 6485, 7349], "queries": {"click": {"state": {"target": [], "time": []}, "edge": {"target": [], "time": []}}, "mouseover": {"state": {"target": [], "time": []}, "edge": {"target": [], "time": []}}, "mouseout": {"state": {"target": ["0"], "time": [712]}, "edge": {"target": [], "time": []}}}, "displayed_time": "17.13", "trialTime": 18176, "trial_type": "mouselab-mdp", "trial_index": 65, "time_elapsed": 1652314, "internal_node_id": "0.0-6.0-1.0-38.0"}}, {"uniqueid": "w45844825:a39578745", "current_trial": 66, "dateTime": 1693581838229, "trialdata": {"revealed_states": [], "clicked_states": [], "num_clicks_accrued": [0, 0, 0, 0, 0, 0, 0, 0, 0, 0, 0, 0, 0], "stateRewards": ["", 2, 3, 8, 11, 25, -80, 6, -4, -56, 84, -23, -2, -4, -3, 4, -51, -9, -61, -15, -64, 67, -35, 1, -1, -7, -6, 83, 59, -15, 12, -79, 56, 41], "withholdReward": false, "trial_id": "mdp_trial_40", "block": "test", "trialIndex": 47, "score": -56, "costs": 0, "simulationMode": [null, null, null, null, null], "rewards": [2, 3, 8, 11, -80], "path": ["0", "0", "1", "2", "3", "4", "6"], "rt": [938, 263, 58, 1397, 66], "actions": ["up", "up", "up", "right", "right"], "actionTimes": [2934, 3798, 4409, 6354, 6982], "queries": {"click": {"state": {"target": [], "time": []}, "edge": {"target": [], "time": []}}, "mouseover": {"state": {"target": [], "time": []}, "edge": {"target": [], "time": []}}, "mouseout": {"state": {"target": ["0"], "time": [488]}, "edge": {"target": [], "time": []}}}, "displayed_time": "16.00", "trialTime": 18377, "trial_type": "mouselab-mdp", "trial_index": 66, "time_elapsed": 1673949, "internal_node_id": "0.0-6.0-1.0-39.0"}}, {"uniqueid": "w45844825:a39578745", "current_trial": 67, "dateTime": 1693581907439, "trialdata": {"rt": 67194, "response": {"Q0": "$-16 to 16", "Q1": "$-16 to $16", "Q2": "$-88 to $88", "Q3": "The cost for clicking on nodes varied between nodes.", "Q4": "Very unmotivated"}, "question_order": [0, 1, 2, 3, 4], "trial_id": "final_quiz_control", "trial_type": "survey-multi-choice", "trial_index": 67, "time_elapsed": 1743138, "internal_node_id": "0.0-6.0-2.0"}}, {"uniqueid": "w45844825:a39578745", "current_trial": 68, "dateTime": 1693582023012, "trialdata": {"rt": 114430, "response": {"Q0": "i decided to start from the right side then to the top section then to the left section, exploring all options in each section . ", "Q1": "no i got bored towards the end ", "Q2": "not very difficult "}, "trial_id": "self_report_control", "trial_type": "survey-text", "trial_index": 68, "time_elapsed": 1858733, "internal_node_id": "0.0-6.0-3.0"}}, {"uniqueid": "w45844825:a39578745", "current_trial": 69, "dateTime": 1693582056948, "trialdata": {"rt": 33222, "response": {"gender": "female", "age": "34", "colorblind": "0", "effort": "1"}, "trial_type": "survey-html-form", "trial_index": 69, "time_elapsed": 1892669, "internal_node_id": "0.0-6.0-4.0"}}, {"uniqueid": "w45844825:a39578745", "current_trial": 70, "dateTime": 1693582114848, "trialdata": {"rt": 57832, "response": {"Q0": "how to find the values of noduels to start with ", "Q1": "i have not done this before ", "Q2": ""}, "trial_type": "survey-text", "trial_index": 70, "time_elapsed": 1950569, "internal_node_id": "0.0-6.0-5.0"}}, {"uniqueid": "w45844825:a39578745", "current_trial": 71, "dateTime": 1693582154749, "trialdata": {"rt": 39878, "stimulus": "<h1>Completion Code Instructions (1/2)</h1>\n<br><br><br><br>\nYou have reached the end of the experiment! The completion code consists of two parts: (1) a code with 2 characters (2) a code with 6 characters. On this page, you will receive the second part of the code. The first part of the completion code will be on the next page.\n<br><br>\nThe second part of your completion code is: <b>EWEK22</b>\n<br><br>\nPlease note this down. Then, press 'Next' in order to find the first part of your completion code. Once the data has been saved, you will receive this code either in this window or in the original browser window where you started the experiment.\n <br><br>\n<h2 style='color: red;'>Note: this is <strong>NOT</strong> the full completion code. Copy this down and click 'Next' to get the full completion code on the next page.</h2>", "response": 0, "trial_type": "html-button-response", "trial_index": 71, "time_elapsed": 1990470, "internal_node_id": "0.0-6.0-6.0"}}, {"uniqueid": "w45844825:a39578745", "current_trial": 72, "dateTime": 1693582155802, "trialdata": {"success": true, "trial_type": "fullscreen", "trial_index": 72, "time_elapsed": 1991523, "internal_node_id": "0.0-7.0"}}], "questiondata": {"params": {"CODE": "C6DMOQA6", "MIN_TIME": 14, "inspectCost": 1, "startTime": "Fri Sep 01 2023 15:56:02 GMT+0100 (British Summer Time)", "bonusRate": 0.002, "variance": "1_2_4_8_44", "branching": "31123"}, "final_score": 293}, "eventdata": [{"eventtype": "initialized", "value": null, "timestamp": 1693580161183, "interval": 0}, {"eventtype": "window_resize", "value": [1600, 806], "timestamp": 1693580161183, "interval": 0}, {"eventtype": "window_resize", "value": [1600, 806], "timestamp": 1693580161834, "interval": 651}, {"eventtype": "window_resize", "value": [1600, 900], "timestamp": 1693580171711, "interval": 9877}, {"eventtype": "focus", "value": "off", "timestamp": 1693580517019, "interval": 345308}, {"eventtype": "focus", "value": "on", "timestamp": 1693580517020, "interval": 1}, {"eventtype": "window_resize", "value": [1600, 806], "timestamp": 1693580517301, "interval": 281}, {"eventtype": "window_resize", "value": [1600, 900], "timestamp": 1693580519938, "interval": 2637}, {"eventtype": "focus", "value": "off", "timestamp": 1693580597171, "interval": 77233}, {"eventtype": "focus", "value": "on", "timestamp": 1693580597172, "interval": 1}, {"eventtype": "window_resize", "value": [1600, 806], "timestamp": 1693580597424, "interval": 252}, {"eventtype": "window_resize", "value": [1600, 900], "timestamp": 1693580599286, "interval": 1862}, {"eventtype": "focus", "value": "off", "timestamp": 1693580746714, "interval": 147428}, {"eventtype": "focus", "value": "on", "timestamp": 1693580746715, "interval": 1}, {"eventtype": "window_resize", "value": [1600, 806], "timestamp": 1693580746989, "interval": 274}, {"eventtype": "window_resize", "value": [1600, 900], "timestamp": 1693580748839, "interval": 1850}], "useragent": "Mozilla/5.0 (Windows NT 10.0; Win64; x64) AppleWebKit/537.36 (KHTML, like Gecko) Chrome/115.0.0.0 Safari/537.36 Edg/115.0.1901.200", "mode": "live", "id": "w45844825:a39578745", "status": "user data saved", "Beginhit": "2023-09-01 14:55:58.074846", "Beginexp": "2023-09-01 14:56:15.014709", "Endhit": "2023-09-01 15:29:30.315596", "psiturkStatus": 3, "browser": "<redacted>", "platform": "windows", "language": "en-GB"}