{"condition": 0, "counterbalance": 0, "assignmentId": "a26123628", "workerId": "w19919896", "hitId": "h33272208", "currenttrial": 14, "bonus": 0, "data": [{"uniqueid": "w19919896:a26123628", "current_trial": 0, "dateTime": 1691159437831, "trialdata": {"success": true, "trial_type": "fullscreen", "trial_index": 0, "time_elapsed": 11676, "internal_node_id": "0.0-0.0"}}, {"uniqueid": "w19919896:a26123628", "current_trial": 1, "dateTime": 1691159470062, "trialdata": {"view_history": [{"page_index": 0, "viewing_time": 32177}], "rt": 32180, "trial_id": "exp_instructions_control", "trial_type": "instructions", "trial_index": 1, "time_elapsed": 43910, "internal_node_id": "0.0-1.0"}}, {"uniqueid": "w19919896:a26123628", "current_trial": 2, "dateTime": 1691159473406, "trialdata": {"success": true, "trial_type": "fullscreen", "trial_index": 2, "time_elapsed": 47253, "internal_node_id": "0.0-2.0-0.0"}}, {"uniqueid": "w19919896:a26123628", "current_trial": 3, "dateTime": 1691159704611, "trialdata": {"view_history": [{"page_index": 0, "viewing_time": 99460}, {"page_index": 1, "viewing_time": 100683}, {"page_index": 2, "viewing_time": 18137}, {"page_index": 3, "viewing_time": 12904}], "rt": 231184, "trial_id": "mouselab_instructions_1_control", "trial_type": "instructions", "trial_index": 3, "time_elapsed": 278458, "internal_node_id": "0.0-2.0-1.0"}}, {"uniqueid": "w19919896:a26123628", "current_trial": 4, "dateTime": 1691159745612, "trialdata": {"revealed_states": [], "clicked_states": ["15"], "num_clicks_accrued": [0, 0, 0, 0, 0, 0, 0, 0, 0, 0, 0, 0, 0], "stateRewards": ["", 10, -10, 10, 10, -10, 10, -10, 10, 10, -10, 10, 10, 10, 10, 10, -10, 10, -10, -10, 10, 10, -10, -10, 10, 10, -10, -10, -10, -10, -10, -10, -10, -10], "withholdReward": false, "trial_id": "practice_1", "block": "test", "trialIndex": 0, "score": 53, "costs": -0.5, "simulationMode": [null, null, null, null, null], "rewards": [10, 10, 10, 10, 10], "path": ["0", "0", "12", "13", "14", "15", "17"], "rt": [17447, 473, 644, 1110, 2315], "actions": ["right", "right", "right", "up", "right"], "actionTimes": [24832, 25860, 27036, 28664, 31546], "queries": {"click": {"state": {"target": ["15"], "time": [12231]}, "edge": {"target": [], "time": []}}, "mouseover": {"state": {"target": ["13", "15", "18", "26", "25", "30"], "time": [11463, 11663, 14514, 15174, 15426, 15679]}, "edge": {"target": [], "time": []}}, "mouseout": {"state": {"target": ["13", "12", "0", "13", "15", "18", "26", "25", "30", "32", "0", "12"], "time": [1639, 4751, 11374, 11580, 14456, 14648, 15392, 15546, 36575, 36657, 37379, 37418]}, "edge": {"target": [], "time": []}}}, "displayed_time": "32.10", "trialTime": 39262, "trial_type": "mouselab-mdp", "trial_index": 4, "time_elapsed": 319452, "internal_node_id": "0.0-2.0-2.0-0.0"}}, {"uniqueid": "w19919896:a26123628", "current_trial": 5, "dateTime": 1691159778204, "trialdata": {"revealed_states": [], "clicked_states": ["26", "30"], "num_clicks_accrued": [0, 0, 0, 0, 0, 0, 0, 0, 0, 0, 0, 0, 0], "stateRewards": ["", -10, -10, -10, -10, -10, 10, -10, 10, 10, 10, -10, -10, -10, -10, 10, -10, -10, 10, 10, -10, -10, -10, 10, -10, 10, -10, -10, -10, -10, 10, -10, 10, -10], "withholdReward": false, "trial_id": "practice_2", "block": "test", "trialIndex": 1, "score": 12.5, "costs": -1, "simulationMode": [null, null, null, null, null], "rewards": [10, -10, 10, 10, -10], "path": ["0", "0", "23", "24", "25", "30", "33"], "rt": [13437, 99, 184, 108, 755], "actions": ["left", "left", "left", "down", "left"], "actionTimes": [16970, 17612, 18368, 19031, 20321], "queries": {"click": {"state": {"target": ["26", "30"], "time": [9885, 11921]}, "edge": {"target": [], "time": []}}, "mouseover": {"state": {"target": ["31", "23", "0", "23", "24", "24", "25", "30", "25", "26", "25", "30", "31"], "time": [4869, 5745, 5893, 6416, 6469, 6831, 7163, 7941, 8389, 8452, 10198, 10414, 15007]}, "edge": {"target": [], "time": []}}, "mouseout": {"state": {"target": ["20", "19", "12", "0", "31", "23", "0", "23", "24", "24", "25", "30", "25", "26", "25", "30", "31", "19", "22", "24", "16", "20", "21"], "time": [1772, 1806, 2200, 3574, 4903, 5772, 6388, 6442, 6670, 6894, 7905, 8354, 8416, 10156, 10353, 14981, 15038, 28330, 28371, 28553, 28866, 29786, 29905]}, "edge": {"target": [], "time": []}}}, "displayed_time": "20.86", "trialTime": 31407, "trial_type": "mouselab-mdp", "trial_index": 5, "time_elapsed": 352050, "internal_node_id": "0.0-2.0-2.0-1.0"}}, {"uniqueid": "w19919896:a26123628", "current_trial": 6, "dateTime": 1691159805112, "trialdata": {"view_history": [{"page_index": 0, "viewing_time": 15113}, {"page_index": 1, "viewing_time": 11785}], "rt": 26900, "trial_id": "mouselab_instructions_2_control", "trial_type": "instructions", "trial_index": 6, "time_elapsed": 378960, "internal_node_id": "0.0-2.0-3.0"}}, {"uniqueid": "w19919896:a26123628", "current_trial": 7, "dateTime": 1691159870261, "trialdata": {"rt": 65124, "response": {"Q0": "The cost for clicking on nodes may vary between nodes.", "Q1": "I will receive a $1 bonus if I perform well, otherwise I will receive no bonus.", "Q2": "No, the structure of the web will be different each time.", "Q3": "To get the highest total score.", "Q4": "Only before moving the spider.", "Q5": "3 seconds"}, "question_order": [0, 1, 2, 3, 4, 5], "correct": {"Q0": "The cost for clicking on nodes may vary between nodes.", "Q1": "The better I perform the higher my bonus will be.", "Q2": "No, the amount of cash at each node of the web may be different each time.", "Q3": "To get the highest total score.", "Q4": "Only before moving the spider.", "Q5": "3 seconds"}, "trial_id": "mouselab_quiz_control", "trial_type": "survey-multi-choice", "trial_index": 7, "time_elapsed": 444109, "internal_node_id": "0.0-2.0-4.0"}}, {"uniqueid": "w19919896:a26123628", "current_trial": 8, "dateTime": 1691159886545, "trialdata": {"success": true, "trial_type": "fullscreen", "trial_index": 8, "time_elapsed": 460392, "internal_node_id": "0.0-2.1-0.1"}}, {"uniqueid": "w19919896:a26123628", "current_trial": 9, "dateTime": 1691159978885, "trialdata": {"view_history": [{"page_index": 0, "viewing_time": 12537}, {"page_index": 1, "viewing_time": 4888}, {"page_index": 2, "viewing_time": 11218}, {"page_index": 3, "viewing_time": 63673}], "rt": 92317, "trial_id": "mouselab_instructions_1_control", "trial_type": "instructions", "trial_index": 9, "time_elapsed": 552733, "internal_node_id": "0.0-2.1-1.1"}}, {"uniqueid": "w19919896:a26123628", "current_trial": 10, "dateTime": 1691160013318, "trialdata": {"revealed_states": [], "clicked_states": ["6", "8"], "num_clicks_accrued": [0, 0, 0, 0, 0, 0, 0, 0, 0, 0, 0, 0, 0], "stateRewards": ["", 10, -10, 10, 10, -10, 10, -10, 10, 10, -10, 10, 10, 10, 10, 10, -10, 10, -10, -10, 10, 10, -10, -10, 10, 10, -10, -10, -10, -10, -10, -10, -10, -10], "withholdReward": false, "trial_id": "practice_1", "block": "test", "trialIndex": 2, "score": 32.5, "costs": -1, "simulationMode": [null, null, null, null, null], "rewards": [10, -10, 10, 10, 10], "path": ["0", "0", "1", "2", "3", "8", "9"], "rt": [18811, 530, 339, 483, 1846], "actions": ["up", "up", "up", "left", "up"], "actionTimes": [22002, 23078, 23948, 24953, 27329], "queries": {"click": {"state": {"target": ["6", "8"], "time": [11264, 13363]}, "edge": {"target": [], "time": []}}, "mouseover": {"state": {"target": ["0", "10", "9", "1", "12", "1", "2", "3", "4", "4", "6", "4", "3", "8", "3"], "time": [5362, 5431, 5472, 6186, 6251, 6858, 7310, 7766, 8241, 8838, 10879, 11602, 11715, 11954, 15530]}, "edge": {"target": [], "time": []}}, "mouseout": {"state": {"target": ["0", "0", "10", "9", "1", "12", "1", "2", "3", "4", "4", "6", "4", "3", "8", "3", "13", "31", "32", "32"], "time": [5019, 5394, 5461, 5538, 6234, 6291, 7276, 7733, 8202, 8322, 10581, 11563, 11674, 11885, 15475, 15571, 32174, 32334, 32399, 32484]}, "edge": {"target": [], "time": []}}}, "displayed_time": "27.85", "trialTime": 33158, "trial_type": "mouselab-mdp", "trial_index": 10, "time_elapsed": 587164, "internal_node_id": "0.0-2.1-2.1-0.1"}}, {"uniqueid": "w19919896:a26123628", "current_trial": 11, "dateTime": 1691160051269, "trialdata": {"revealed_states": [], "clicked_states": ["28", "29", "27", "33", "31", "32"], "num_clicks_accrued": [0, 0, 0, 0, 0, 0, 0, 0, 0, 0, 0, 0, 0], "stateRewards": ["", -10, -10, -10, -10, -10, 10, -10, 10, 10, 10, -10, -10, -10, -10, 10, -10, -10, 10, 10, -10, -10, -10, 10, -10, 10, -10, -10, -10, -10, 10, -10, 10, -10], "withholdReward": false, "trial_id": "practice_2", "block": "test", "trialIndex": 3, "score": 30.5, "costs": -3, "simulationMode": [null, null, null, null, null], "rewards": [10, -10, 10, 10, 10], "path": ["0", "0", "23", "24", "25", "30", "32"], "rt": [25341, 769, 341, 229, 321], "actions": ["left", "left", "left", "down", "down"], "actionTimes": [28525, 29845, 30767, 31526, 32377], "queries": {"click": {"state": {"target": ["28", "29", "27", "33", "31", "32"], "time": [8795, 10457, 14218, 19521, 22504, 24815]}, "edge": {"target": [], "time": []}}, "mouseover": {"state": {"target": ["23", "24", "25", "26", "28", "26", "29", "29", "27", "0", "23", "24", "25", "30", "33", "30", "31", "32", "23", "0", "12"], "time": [5108, 5664, 6392, 7198, 8311, 9059, 9133, 9497, 13260, 14925, 16818, 16946, 17014, 18329, 19179, 19746, 22121, 23490, 26954, 26997, 27036]}, "edge": {"target": [], "time": []}}, "mouseout": {"state": {"target": ["33", "30", "31", "23", "0", "23", "24", "25", "26", "28", "26", "29", "29", "27", "0", "23", "24", "25", "30", "33", "30", "31", "31", "32", "31", "23", "0", "12"], "time": [984, 1041, 1241, 1440, 3222, 5627, 6363, 7096, 8283, 9042, 9121, 9219, 13084, 14783, 16733, 16917, 16986, 18271, 18842, 19703, 22091, 22598, 22913, 25021, 25227, 26982, 27025, 35173]}, "edge": {"target": [], "time": []}}}, "displayed_time": "32.91", "trialTime": 36608, "trial_type": "mouselab-mdp", "trial_index": 11, "time_elapsed": 625112, "internal_node_id": "0.0-2.1-2.1-1.1"}}, {"uniqueid": "w19919896:a26123628", "current_trial": 12, "dateTime": 1691160081920, "trialdata": {"view_history": [{"page_index": 0, "viewing_time": 27799}, {"page_index": 1, "viewing_time": 2815}], "rt": 30616, "trial_id": "mouselab_instructions_2_control", "trial_type": "instructions", "trial_index": 12, "time_elapsed": 655768, "internal_node_id": "0.0-2.1-3.1"}}, {"uniqueid": "w19919896:a26123628", "current_trial": 13, "dateTime": 1691160152127, "trialdata": {"rt": 70192, "response": {"Q0": "The cost for clicking on nodes may vary between nodes.", "Q1": "The better I perform the higher my bonus will be.", "Q2": "No, the structure of the web will be different each time.", "Q3": "To get the highest total score.", "Q4": "Only before moving the spider.", "Q5": "3 seconds"}, "question_order": [0, 1, 2, 3, 4, 5], "correct": {"Q0": "The cost for clicking on nodes may vary between nodes.", "Q1": "The better I perform the higher my bonus will be.", "Q2": "No, the amount of cash at each node of the web may be different each time.", "Q3": "To get the highest total score.", "Q4": "Only before moving the spider.", "Q5": "3 seconds"}, "trial_id": "mouselab_quiz_control", "trial_type": "survey-multi-choice", "trial_index": 13, "time_elapsed": 725975, "internal_node_id": "0.0-2.1-4.1"}}], "questiondata": {"params": {"CODE": "C6DMOQA6", "MIN_TIME": 14, "inspectCost": 1, "startTime": "Fri Aug 04 2023 16:30:23 GMT+0200 (South Africa Standard Time)", "bonusRate": 0.002, "variance": "1_2_4_8_44", "branching": "31123"}}, "eventdata": [{"eventtype": "initialized", "value": null, "timestamp": 1691159423139, "interval": 0}, {"eventtype": "window_resize", "value": [1024, 658], "timestamp": 1691159423139, "interval": 0}, {"eventtype": "window_resize", "value": [1024, 658], "timestamp": 1691159423712, "interval": 573}, {"eventtype": "window_resize", "value": [1366, 768], "timestamp": 1691159437247, "interval": 13535}, {"eventtype": "focus", "value": "off", "timestamp": 1691159877068, "interval": 439821}, {"eventtype": "focus", "value": "on", "timestamp": 1691159877070, "interval": 2}, {"eventtype": "window_resize", "value": [1024, 658], "timestamp": 1691159877501, "interval": 431}, {"eventtype": "window_resize", "value": [1366, 768], "timestamp": 1691159885885, "interval": 8384}, {"eventtype": "focus", "value": "off", "timestamp": 1691160157741, "interval": 271856}, {"eventtype": "focus", "value": "on", "timestamp": 1691160157747, "interval": 6}, {"eventtype": "window_resize", "value": [1024, 658], "timestamp": 1691160157989, "interval": 242}], "useragent": "Mozilla/5.0 (Windows NT 10.0; Win64; x64) AppleWebKit/537.36 (KHTML, like Gecko) Chrome/115.0.0.0 Safari/537.36 Edg/115.0.1901.188", "mode": "live", "id": "w19919896:a26123628", "status": "user data saved", "Beginhit": "2023-08-04 14:30:20.762693", "Beginexp": "2023-08-04 14:30:39.234877", "Endhit": null, "psiturkStatus": 6, "browser": "<redacted>", "platform": "windows", "language": "en-US", "excludeReason": "quizfail"}