{"condition": 1, "counterbalance": 0, "assignmentId": "a69587937", "workerId": "w22003944", "hitId": "h86430175", "currenttrial": 62, "bonus": 0, "data": [{"uniqueid": "w22003944:a69587937", "current_trial": 0, "dateTime": 1691142187598, "trialdata": {"success": true, "trial_type": "fullscreen", "trial_index": 0, "time_elapsed": 4357, "internal_node_id": "0.0-0.0"}}, {"uniqueid": "w22003944:a69587937", "current_trial": 1, "dateTime": 1691142206829, "trialdata": {"view_history": [{"page_index": 0, "viewing_time": 19225}], "rt": 19225, "trial_id": "exp_instructions_misaligned", "trial_type": "instructions", "trial_index": 1, "time_elapsed": 23587, "internal_node_id": "0.0-1.0"}}, {"uniqueid": "w22003944:a69587937", "current_trial": 2, "dateTime": 1691142211643, "trialdata": {"success": true, "trial_type": "fullscreen", "trial_index": 2, "time_elapsed": 28402, "internal_node_id": "0.0-2.0-0.0"}}, {"uniqueid": "w22003944:a69587937", "current_trial": 3, "dateTime": 1691142493012, "trialdata": {"view_history": [{"page_index": 0, "viewing_time": 89653}, {"page_index": 1, "viewing_time": 114838}, {"page_index": 2, "viewing_time": 37419}, {"page_index": 3, "viewing_time": 39454}], "rt": 281365, "trial_id": "mouselab_instructions_1_misaligned", "trial_type": "instructions", "trial_index": 3, "time_elapsed": 309771, "internal_node_id": "0.0-2.0-1.0"}}, {"uniqueid": "w22003944:a69587937", "current_trial": 4, "dateTime": 1691142616611, "trialdata": {"revealed_states": [], "clicked_states": ["12", "13", "15", "17", "14", "1", "3", "6", "2", "23", "24", "25", "26", "29", "4", "30", "32", "19", "21", "20", "27", "8", "11"], "num_clicks_accrued": [0, 0, 0, 0, 0, 0, 0, 0, 0, 0, 0, 0, 0], "stateRewards": ["", 10, -10, -10, 10, -10, 10, -10, -10, -10, 10, 10, -10, 10, -10, -10, -10, 10, 10, -10, -10, 10, 10, 10, -10, -10, 10, 10, 10, 10, 10, 10, -10, 10], "withholdReward": false, "trial_id": "practice_1", "block": "test", "trialIndex": 0, "score": 2, "costs": -11.5, "simulationMode": [null, null, null, null, null], "rewards": [10, -10, -10, 10, 10], "path": ["0", "0", "1", "2", "3", "4", "6"], "rt": [100440, 510, 72, 436, 189], "actions": ["up", "up", "up", "right", "right"], "actionTimes": [107031, 108055, 108633, 109581, 110282], "queries": {"click": {"state": {"target": ["12", "13", "15", "17", "14", "1", "3", "6", "2", "23", "24", "25", "26", "29", "4", "30", "32", "19", "21", "20", "27", "8", "11"], "time": [9322, 10331, 11698, 13376, 17573, 27479, 28939, 30554, 31636, 38349, 40704, 42226, 43636, 44716, 49999, 56163, 57234, 59936, 61534, 63697, 68668, 72494, 73646]}, "edge": {"target": [], "time": []}}, "mouseover": {"state": {"target": ["12", "13", "14", "15", "16", "17", "12", "0", "12", "13", "14", "15", "14", "0", "12", "0", "12", "13", "15", "14", "13", "12", "0", "1", "2", "3", "4", "6", "2", "10", "2", "12", "0", "23", "24", "25", "24", "24", "25", "26", "29", "20", "19", "12", "13", "7", "4", "2", "1", "1", "2", "3", "6", "0", "0", "23", "24", "25", "26", "26", "12", "0", "12", "13", "14", "15", "17", "13", "12", "0", "30", "32", "21", "19", "21", "20", "22", "25", "26", "27", "26", "25", "25", "24", "25", "26", "29", "26", "8", "11", "10", "1", "0", "1", "2", "3", "7", "1", "15", "17", "15", "14", "14", "19", "22", "0", "23", "24", "25", "25", "30", "30", "31", "0", "0", "1", "1", "24", "33", "31", "32", "21", "22", "12", "0"], "time": [8570, 9853, 10770, 11407, 12002, 13034, 14183, 14300, 15483, 16500, 16766, 17034, 17324, 20200, 21433, 23264, 23816, 23915, 24302, 24816, 24964, 24999, 25235, 27015, 27733, 28563, 29481, 30372, 30980, 31096, 31331, 34578, 34937, 37994, 38545, 39415, 39961, 40346, 41144, 43127, 44277, 46696, 46909, 47100, 47691, 49566, 49791, 50559, 50726, 50945, 50993, 51182, 51276, 51961, 52241, 52290, 52493, 52574, 52664, 53092, 54241, 54439, 54489, 54511, 54558, 54689, 54996, 55207, 55240, 55292, 55789, 56673, 59176, 59691, 60492, 63221, 64886, 67369, 68071, 68219, 69186, 69453, 70037, 70558, 70659, 70904, 71153, 71705, 72002, 72902, 74337, 74569, 74786, 74917, 74951, 75024, 76087, 76418, 78337, 78782, 79049, 79267, 79387, 79934, 80234, 80333, 80350, 80382, 80634, 81017, 81183, 82225, 85867, 86430, 99417, 100860, 101210, 101312, 101412, 102144, 102718, 104518, 104544, 104610, 104827]}, "edge": {"target": [], "time": []}}, "mouseout": {"state": {"target": ["12", "1", "2", "3", "2", "1", "1", "0", "12", "13", "14", "15", "16", "17", "12", "0", "12", "13", "14", "15", "14", "0", "12", "0", "12", "13", "15", "14", "13", "12", "0", "1", "2", "3", "4", "6", "2", "10", "2", "2", "12", "0", "23", "24", "25", "24", "24", "25", "26", "29", "26", "20", "19", "12", "13", "7", "4", "2", "1", "1", "2", "3", "4", "6", "0", "0", "23", "24", "25", "26", "26", "12", "0", "12", "13", "14", "15", "17", "13", "12", "0", "30", "30", "32", "21", "19", "21", "20", "22", "25", "26", "27", "26", "25", "25", "24", "25", "26", "29", "26", "8", "11", "10", "1", "0", "1", "2", "3", "7", "1", "15", "17", "15", "14", "14", "19", "22", "0", "23", "24", "25", "25", "30", "30", "31", "0", "0", "1", "1", "24", "33", "31", "32", "21", "22", "12", "0", "1", "30", "32", "1", "0", "12", "12"], "time": [null, 2029, 2070, 3043, 3370, 5670, 5939, 7185, 9686, 10685, 11344, 11885, 12684, 13900, 14251, 14786, 16417, 16716, 16966, 17283, 18000, 21416, 21639, 23549, 23864, 24022, 24499, 24947, 24998, 25034, 25721, 27632, 28483, 29430, 30131, 30863, 31030, 31214, 31785, 32462, 34647, 37861, 38515, 39311, 39926, 40211, 41110, 42960, 44193, 46515, 46558, 46897, 46925, 47647, 49431, 49732, 50391, 50701, 50774, 50981, 51024, 51207, 51263, 51528, 52196, 52258, 52461, 52547, 52595, 52707, 53109, 54274, 54473, 54508, 54523, 54572, 54724, 55024, 55224, 55282, 55394, 56263, 56507, 57354, 59212, 60341, 63024, 64088, 67009, 68020, 68121, 69104, 69270, 69508, 70319, 70618, 70785, 71136, 71691, 71741, 72769, 74252, 74352, 74620, 74884, 74934, 74968, 75207, 76101, 76486, 78749, 79034, 79132, 79283, 79432, 79965, 80267, 80349, 80365, 80623, 80849, 81065, 81417, 85849, 85886, 98579, 99894, 100910, 101243, 101344, 101894, 102631, 102730, 104530, 104584, 104800, 104876, 115773, 115927, 116164, 117646, 118296, 118422, 119496]}, "edge": {"target": [], "time": []}}}, "displayed_time": "110.79", "trialTime": 122492, "trial_type": "mouselab-mdp", "trial_index": 4, "time_elapsed": 433368, "internal_node_id": "0.0-2.0-2.0-0.0"}}, {"uniqueid": "w22003944:a69587937", "current_trial": 5, "dateTime": 1691142702253, "trialdata": {"revealed_states": [], "clicked_states": ["23", "24", "25", "30", "32", "12", "13", "14", "19", "21", "15", "26", "1", "2", "3", "8", "11", "4", "6", "7", "5", "9", "10", "29", "33", "31", "28", "27", "16", "17", "18", "20", "22"], "num_clicks_accrued": [0, 0, 0, 0, 0, 0, 0, 0, 0, 0, 0, 0, 0], "stateRewards": ["", -10, -10, 10, 10, -10, 10, -10, 10, 10, -10, 10, -10, 10, 10, -10, 10, 10, 10, -10, -10, 10, -10, -10, 10, -10, -10, 10, -10, 10, -10, -10, 10, -10], "withholdReward": false, "trial_id": "practice_2", "block": "test", "trialIndex": 1, "score": -3, "costs": -16.5, "simulationMode": [null, null, null, null, null], "rewards": [-10, -10, 10, 10, 10], "path": ["0", "0", "1", "2", "3", "8", "11"], "rt": [68185, 535, 293, 232, 283], "actions": ["up", "up", "up", "left", "left"], "actionTimes": [72251, 73295, 74103, 74824, 75628], "queries": {"click": {"state": {"target": ["23", "24", "25", "30", "32", "12", "13", "14", "19", "21", "15", "26", "1", "2", "3", "8", "11", "4", "6", "7", "5", "9", "10", "29", "33", "31", "28", "27", "16", "17", "18", "20", "22"], "time": [8098, 9242, 10482, 11784, 13256, 16461, 18286, 19487, 21804, 23220, 25504, 28022, 30601, 32739, 33805, 35538, 37068, 40477, 42099, 44328, 45341, 46532, 48605, 56496, 58237, 59443, 60483, 61794, 62826, 64836, 65999, 67833, 68930]}, "edge": {"target": [], "time": []}}, "mouseover": {"state": {"target": ["0", "23", "24", "25", "30", "32", "12", "13", "14", "13", "14", "19", "21", "14", "15", "16", "28", "26", "29", "26", "27", "29", "1", "2", "3", "2", "3", "8", "11", "8", "11", "3", "4", "6", "7", "7", "4", "5", "9", "9", "8", "10", "28", "29", "25", "33", "30", "31", "24", "28", "27", "16", "17", "17", "17", "17", "17", "15", "18", "13", "22", "19", "20", "19", "22", "0"], "time": [6874, 7793, 8675, 10057, 11174, 12840, 16072, 16723, 17677, 17938, 18606, 20878, 22671, 25026, 25222, 26069, 27554, 27602, 27637, 27770, 28335, 28852, 30035, 30869, 31901, 32317, 33434, 34401, 35273, 35400, 35866, 37950, 38000, 40882, 42532, 43570, 44621, 44799, 46082, 46365, 46941, 47214, 49900, 56282, 56895, 57747, 58695, 58745, 60044, 60345, 60867, 62545, 63311, 63528, 64134, 64301, 64642, 65115, 65392, 67010, 67126, 67392, 67661, 68242, 68542, 70391]}, "edge": {"target": [], "time": []}}, "mouseout": {"state": {"target": ["0", "0", "23", "24", "25", "25", "30", "30", "32", "12", "13", "14", "13", "14", "19", "21", "19", "14", "15", "16", "28", "26", "29", "26", "27", "29", "1", "2", "3", "2", "3", "8", "11", "8", "11", "3", "4", "6", "7", "7", "4", "5", "9", "9", "9", "8", "10", "28", "29", "29", "25", "33", "30", "31", "24", "28", "27", "16", "17", "17", "17", "17", "17", "15", "18", "13", "22", "19", "20", "19", "22", "0", "0"], "time": [6176, 7695, 8408, 9940, 10492, 11067, 11917, 12656, 15673, 16689, 17558, 17871, 18575, 20780, 22454, 24915, 24953, 25070, 25837, 27426, 27569, 27620, 27737, 28159, 28570, 29252, 30693, 31734, 32302, 33318, 34378, 35084, 35344, 35672, 37243, 37968, 40850, 42418, 42583, 44431, 44681, 46021, 46132, 46668, 46882, 47031, 48914, 49914, 56588, 56795, 57529, 58678, 58728, 59980, 60095, 60726, 62227, 63283, 63328, 64018, 64150, 64344, 65075, 65159, 66877, 67043, 67376, 67425, 68210, 68276, 70174, 70993, 80356]}, "edge": {"target": [], "time": []}}}, "displayed_time": "76.14", "trialTime": 85442, "trial_type": "mouselab-mdp", "trial_index": 5, "time_elapsed": 519011, "internal_node_id": "0.0-2.0-2.0-1.0"}}, {"uniqueid": "w22003944:a69587937", "current_trial": 6, "dateTime": 1691142763831, "trialdata": {"view_history": [{"page_index": 0, "viewing_time": 38957}, {"page_index": 1, "viewing_time": 22618}], "rt": 61575, "trial_id": "mouselab_instructions_2_misaligned", "trial_type": "instructions", "trial_index": 6, "time_elapsed": 580590, "internal_node_id": "0.0-2.0-3.0"}}, {"uniqueid": "w22003944:a69587937", "current_trial": 7, "dateTime": 1691142803127, "trialdata": {"rt": 39292, "response": {"Q0": "The cost for clicking on nodes may vary between nodes.", "Q1": "The better I perform the higher my bonus will be.", "Q2": "No, the amount of cash at each node of the web may be different each time.", "Q3": "To get the highest total score.", "Q4": "Only before moving the spider.", "Q5": "10 seconds"}, "question_order": [0, 1, 2, 3, 4, 5], "correct": {"Q0": "The cost for clicking on nodes may vary between nodes.", "Q1": "The better I perform the higher my bonus will be.", "Q2": "No, the amount of cash at each node of the web may be different each time.", "Q3": "To get the highest total score.", "Q4": "Only before moving the spider.", "Q5": "3 seconds"}, "trial_id": "mouselab_quiz_misaligned", "trial_type": "survey-multi-choice", "trial_index": 7, "time_elapsed": 619886, "internal_node_id": "0.0-2.0-4.0"}}, {"uniqueid": "w22003944:a69587937", "current_trial": 8, "dateTime": 1691142812731, "trialdata": {"success": true, "trial_type": "fullscreen", "trial_index": 8, "time_elapsed": 629490, "internal_node_id": "0.0-2.1-0.1"}}, {"uniqueid": "w22003944:a69587937", "current_trial": 9, "dateTime": 1691142933241, "trialdata": {"view_history": [{"page_index": 0, "viewing_time": 91864}, {"page_index": 1, "viewing_time": 11114}, {"page_index": 2, "viewing_time": 2775}, {"page_index": 3, "viewing_time": 14754}], "rt": 120507, "trial_id": "mouselab_instructions_1_misaligned", "trial_type": "instructions", "trial_index": 9, "time_elapsed": 750000, "internal_node_id": "0.0-2.1-1.1"}}, {"uniqueid": "w22003944:a69587937", "current_trial": 10, "dateTime": 1691142953143, "trialdata": {"revealed_states": [], "clicked_states": ["3"], "num_clicks_accrued": [0, 0, 0, 0, 0, 0, 0, 0, 0, 0, 0, 0, 0], "stateRewards": ["", 10, -10, -10, 10, -10, 10, -10, -10, -10, 10, 10, -10, 10, -10, -10, -10, 10, 10, -10, -10, 10, 10, 10, -10, -10, 10, 10, 10, 10, 10, 10, -10, 10], "withholdReward": false, "trial_id": "practice_1", "block": "test", "trialIndex": 2, "score": 13, "costs": -0.5, "simulationMode": [null, null, null, null, null], "rewards": [10, -10, -10, 10, 10], "path": ["0", "0", "23", "24", "25", "26", "29"], "rt": [6937, 324, 146, 699, 168], "actions": ["left", "left", "left", "up", "left"], "actionTimes": [11447, 12290, 12928, 14144, 14831], "queries": {"click": {"state": {"target": ["3"], "time": [7627]}, "edge": {"target": [], "time": []}}, "mouseover": {"state": {"target": ["0", "1", "2", "3", "2", "1", "0"], "time": [5532, 6596, 6880, 7113, 8064, 8631, 9013]}, "edge": {"target": [], "time": []}}, "mouseout": {"state": {"target": ["0", "0", "0", "0", "1", "2", "3", "2", "1", "0"], "time": [1814, 2081, 4197, 6430, 6779, 7030, 7947, 8547, 8813, 9119]}, "edge": {"target": [], "time": []}}}, "displayed_time": "15.35", "trialTime": 19639, "trial_type": "mouselab-mdp", "trial_index": 10, "time_elapsed": 769901, "internal_node_id": "0.0-2.1-2.1-0.1"}}, {"uniqueid": "w22003944:a69587937", "current_trial": 11, "dateTime": 1691142964124, "trialdata": {"revealed_states": [], "clicked_states": ["24"], "num_clicks_accrued": [0, 0, 0, 0, 0, 0, 0, 0, 0, 0, 0, 0, 0], "stateRewards": ["", -10, -10, 10, 10, -10, 10, -10, 10, 10, -10, 10, -10, 10, 10, -10, 10, 10, 10, -10, -10, 10, -10, -10, 10, -10, -10, 10, -10, 10, -10, -10, 10, -10], "withholdReward": false, "trial_id": "practice_2", "block": "test", "trialIndex": 3, "score": -7, "costs": -0.5, "simulationMode": [null, null, null, null, null], "rewards": [-10, 10, -10, -10, 10], "path": ["0", "0", "23", "24", "25", "30", "32"], "rt": [3985, 126, 161, 1, 394], "actions": ["left", "left", "left", "down", "down"], "actionTimes": [5571, 6208, 6875, 7382, 8309], "queries": {"click": {"state": {"target": ["24"], "time": [4097]}, "edge": {"target": [], "time": []}}, "mouseover": {"state": {"target": ["0", "12", "13", "12", "0", "23", "24", "31"], "time": [1732, 3063, 3237, 3529, 3562, 3630, 3729, 4289]}, "edge": {"target": [], "time": []}}, "mouseout": {"state": {"target": ["0", "0", "12", "13", "12", "0", "23", "24", "31"], "time": [1197, 3022, 3163, 3497, 3546, 3597, 3696, 4246, 4301]}, "edge": {"target": [], "time": []}}}, "displayed_time": "8.85", "trialTime": 10688, "trial_type": "mouselab-mdp", "trial_index": 11, "time_elapsed": 780882, "internal_node_id": "0.0-2.1-2.1-1.1"}}, {"uniqueid": "w22003944:a69587937", "current_trial": 12, "dateTime": 1691142975008, "trialdata": {"view_history": [{"page_index": 0, "viewing_time": 4756}, {"page_index": 1, "viewing_time": 6126}], "rt": 10882, "trial_id": "mouselab_instructions_2_misaligned", "trial_type": "instructions", "trial_index": 12, "time_elapsed": 791767, "internal_node_id": "0.0-2.1-3.1"}}, {"uniqueid": "w22003944:a69587937", "current_trial": 13, "dateTime": 1691143027529, "trialdata": {"rt": 52517, "response": {"Q0": "The cost for clicking on nodes may vary between nodes.", "Q1": "The better I perform the higher my bonus will be.", "Q2": "No, the amount of cash at each node of the web may be different each time.", "Q3": "To get the highest total score.", "Q4": "Only before moving the spider.", "Q5": "3 seconds"}, "question_order": [0, 1, 2, 3, 4, 5], "correct": {"Q0": "The cost for clicking on nodes may vary between nodes.", "Q1": "The better I perform the higher my bonus will be.", "Q2": "No, the amount of cash at each node of the web may be different each time.", "Q3": "To get the highest total score.", "Q4": "Only before moving the spider.", "Q5": "3 seconds"}, "trial_id": "mouselab_quiz_misaligned", "trial_type": "survey-multi-choice", "trial_index": 13, "time_elapsed": 844288, "internal_node_id": "0.0-2.1-4.1"}}, {"uniqueid": "w22003944:a69587937", "current_trial": 14, "dateTime": 1691143064434, "trialdata": {"rt": 36892, "stimulus": "\n<h1> Get ready to start the game! </h1>\n\nThank you for reading the instructions. Get ready start with the 40 rounds of this game.\n<br><br>\nIf you need to take a break, feel free to take one after the end of a round, before continuing to the next one.\n<br><br>\nRemember, the more money the spider gets, the bigger your bonus will be!\n<br><br>\n<div style='text-align: center;'>Press <code>space</code> to begin.</div>\n\n<br><br>\n(If, at any point, the <code>space</code> key does not take you to the next page, click once on the text and try again.)", "response": " ", "trial_id": "mdp_ready", "trial_type": "html-keyboard-response", "trial_index": 14, "time_elapsed": 881192, "internal_node_id": "0.0-4.0-0.0"}}, {"uniqueid": "w22003944:a69587937", "current_trial": 15, "dateTime": 1691143085014, "trialdata": {"revealed_states": [], "clicked_states": [], "num_clicks_accrued": [0, 0, 0, 0, 0, 0, 0, 0, 0, 0, 0, 0, 0], "stateRewards": ["", -2, -4, 6, 14, -34, 49, 36, -8, -3, 32, -4, 1, -2, 1, -8, -20, -71, -57, -7, -86, -62, -16, -2, -3, -5, 11, 23, -21, 53, 5, -5, 85, 73], "withholdReward": false, "trial_id": "mdp_trial_1", "block": "test", "trialIndex": 4, "score": 80, "costs": 0, "simulationMode": [null, null, null, null, null], "rewards": [-2, -3, -5, 5, 85], "path": ["0", "0", "23", "24", "25", "30", "32"], "rt": [2995, 17, 60, 352, 42], "actions": ["left", "left", "left", "down", "down"], "actionTimes": [5143, 5678, 6237, 7113, 7670], "queries": {"click": {"state": {"target": [], "time": []}, "edge": {"target": [], "time": []}}, "mouseover": {"state": {"target": [], "time": []}, "edge": {"target": [], "time": []}}, "mouseout": {"state": {"target": ["0", "20"], "time": [1764, 18408]}, "edge": {"target": [], "time": []}}}, "displayed_time": "16.15", "trialTime": 20287, "trial_type": "mouselab-mdp", "trial_index": 15, "time_elapsed": 901772, "internal_node_id": "0.0-4.0-1.0-0.0"}}, {"uniqueid": "w22003944:a69587937", "current_trial": 16, "dateTime": 1691143104585, "trialdata": {"revealed_states": [], "clicked_states": ["15"], "num_clicks_accrued": [0, 0, 0, 0, 0, 0, 0, 0, 0, 0, 0, 0, 0], "stateRewards": ["", -2, 2, 5, -14, -56, 64, 84, -5, 52, 39, 85, -2, 1, 7, 8, 21, 29, -78, -9, -10, -69, 10, -2, -1, -7, 15, 72, 20, 41, -2, 52, 80, 22], "withholdReward": false, "trial_id": "mdp_trial_2", "block": "test", "trialIndex": 5, "score": -73.55, "costs": -1.55, "simulationMode": [null, null, null, null, null], "rewards": [-2, 1, 7, -9, -69], "path": ["0", "0", "12", "13", "14", "19", "21"], "rt": [3235, 144, 358, 150, 55], "actions": ["right", "right", "right", "down", "down"], "actionTimes": [4841, 5481, 6346, 7005, 7576], "queries": {"click": {"state": {"target": ["15"], "time": [2825]}, "edge": {"target": [], "time": []}}, "mouseover": {"state": {"target": ["0", "12", "13", "15", "14"], "time": [1922, 2119, 2204, 2355, 2988]}, "edge": {"target": [], "time": []}}, "mouseout": {"state": {"target": ["20", "12", "1", "0", "12", "13", "15", "14"], "time": [894, 920, 975, 1953, 2169, 2252, 2970, 17176]}, "edge": {"target": [], "time": []}}}, "displayed_time": "15.61", "trialTime": 19323, "trial_type": "mouselab-mdp", "trial_index": 16, "time_elapsed": 921343, "internal_node_id": "0.0-4.0-1.0-1.0"}}, {"uniqueid": "w22003944:a69587937", "current_trial": 17, "dateTime": 1691143124953, "trialdata": {"revealed_states": [], "clicked_states": [], "num_clicks_accrued": [0, 0, 0, 0, 0, 0, 0, 0, 0, 0, 0, 0, 0], "stateRewards": ["", -2, 2, -5, -6, 10, -66, -58, -10, -11, -63, -70, -1, -4, -5, 7, 66, -64, -43, -3, 45, -37, 4, -2, -2, -6, -4, -30, 33, 43, 15, -32, -65, -59], "withholdReward": false, "trial_id": "mdp_trial_3", "block": "test", "trialIndex": 6, "score": -78, "costs": 0, "simulationMode": [null, null, null, null, null], "rewards": [-2, 2, -5, -10, -63], "path": ["0", "0", "1", "2", "3", "8", "10"], "rt": [1529, 75, 117, 376, 35], "actions": ["up", "up", "up", "left", "down"], "actionTimes": [6199, 6794, 7417, 8313, 8868], "queries": {"click": {"state": {"target": [], "time": []}, "edge": {"target": [], "time": []}}, "mouseover": {"state": {"target": ["12"], "time": [5398]}, "edge": {"target": [], "time": []}}, "mouseout": {"state": {"target": ["0"], "time": [4050]}, "edge": {"target": [], "time": []}}}, "displayed_time": "18.67", "trialTime": 20075, "trial_type": "mouselab-mdp", "trial_index": 17, "time_elapsed": 941710, "internal_node_id": "0.0-4.0-1.0-2.0"}}, {"uniqueid": "w22003944:a69587937", "current_trial": 18, "dateTime": 1691143144669, "trialdata": {"revealed_states": [], "clicked_states": ["23"], "num_clicks_accrued": [0, 0, 0, 0, 0, 0, 0, 0, 0, 0, 0, 0, 0], "stateRewards": ["", -1, -3, -7, -7, -76, 30, -49, 11, -70, 56, 2, 1, 4, -3, -14, -59, -83, -25, -9, -21, -67, -73, -2, 4, 4, -9, -11, -32, 60, 9, -87, 22, -64], "withholdReward": false, "trial_id": "mdp_trial_4", "block": "test", "trialIndex": 7, "score": -13.75, "costs": 0.25, "simulationMode": [null, null, null, null, null], "rewards": [-2, 4, 4, -9, -11], "path": ["0", "0", "23", "24", "25", "26", "27"], "rt": [3453, 95, 318, 258, 117], "actions": ["left", "left", "left", "up", "up"], "actionTimes": [6220, 6829, 7650, 8424, 9052], "queries": {"click": {"state": {"target": ["23"], "time": [4687]}, "edge": {"target": [], "time": []}}, "mouseover": {"state": {"target": ["23", "24", "25", "24", "24", "23"], "time": [3365, 3482, 3532, 3884, 4132, 4466]}, "edge": {"target": [], "time": []}}, "mouseout": {"state": {"target": ["12", "16", "15", "18", "12", "23", "24", "25", "24", "24", "23"], "time": [1383, 1415, 1818, 1832, 1966, 3450, 3516, 3869, 3915, 4432, 4864]}, "edge": {"target": [], "time": []}}}, "displayed_time": "16.77", "trialTime": 19431, "trial_type": "mouselab-mdp", "trial_index": 18, "time_elapsed": 961427, "internal_node_id": "0.0-4.0-1.0-3.0"}}, {"uniqueid": "w22003944:a69587937", "current_trial": 19, "dateTime": 1691143168397, "trialdata": {"revealed_states": [], "clicked_states": ["7", "26", "17", "19"], "num_clicks_accrued": [0, 0, 0, 0, 0, 0, 0, 0, 0, 0, 0, 0, 0], "stateRewards": ["", -1, 3, -7, 16, -32, -74, -48, 2, 10, 15, -30, 1, 1, -2, 10, 12, -83, 67, 13, -66, 47, 65, -2, 4, 2, -14, -8, -57, 24, 9, 65, 12, 46], "withholdReward": false, "trial_id": "mdp_trial_5", "block": "test", "trialIndex": 8, "score": 52.6, "costs": -7.3999999999999995, "simulationMode": [null, null, null, null, null], "rewards": [1, 1, -2, 13, 47], "path": ["0", "0", "12", "13", "14", "19", "21"], "rt": [13494, 108, 400, 42, 293], "actions": ["right", "right", "right", "down", "down"], "actionTimes": [16923, 17540, 18447, 19004, 19825], "queries": {"click": {"state": {"target": ["7", "26", "17", "19"], "time": [5388, 8440, 9676, 13958]}, "edge": {"target": [], "time": []}}, "mouseover": {"state": {"target": ["7", "12", "0", "31", "30", "31", "32", "30", "25", "26", "25", "24", "23", "0", "14", "17", "14", "19", "19", "21", "19", "22"], "time": [4883, 5631, 6632, 6782, 6848, 7048, 7431, 7631, 7898, 8180, 8681, 8881, 8947, 9015, 9214, 9480, 10083, 10264, 10396, 10780, 12437, 14796]}, "edge": {"target": [], "time": []}}, "mouseout": {"state": {"target": ["23", "23", "0", "7", "12", "0", "31", "30", "31", "32", "30", "25", "26", "25", "24", "23", "0", "14", "17", "14", "19", "19", "21", "19", "22"], "time": [988, 2784, 3081, 5549, 6615, 6665, 6815, 6998, 7282, 7531, 7815, 8055, 8615, 8834, 8914, 8998, 9048, 9330, 9950, 10130, 10316, 10449, 12366, 14763, 14948]}, "edge": {"target": [], "time": []}}}, "displayed_time": "20.34", "trialTime": 23466, "trial_type": "mouselab-mdp", "trial_index": 19, "time_elapsed": 985156, "internal_node_id": "0.0-4.0-1.0-4.0"}}, {"uniqueid": "w22003944:a69587937", "current_trial": 20, "dateTime": 1691143186849, "trialdata": {"revealed_states": [], "clicked_states": ["3"], "num_clicks_accrued": [0, 0, 0, 0, 0, 0, 0, 0, 0, 0, 0, 0, 0], "stateRewards": ["", 1, -1, 1, -14, -10, 67, -28, -11, 72, 40, -65, -1, 1, 1, -2, 8, -55, 34, -10, 61, 33, -15, 2, -4, 7, 4, -75, 63, -21, -16, 61, 19, 21], "withholdReward": false, "trial_id": "mdp_trial_6", "block": "test", "trialIndex": 9, "score": -75.95, "costs": -0.95, "simulationMode": [null, null, null, null, null], "rewards": [1, -1, 1, -11, -65], "path": ["0", "0", "1", "2", "3", "8", "11"], "rt": [4743, 3, 6, 458, 417], "actions": ["up", "up", "up", "left", "left"], "actionTimes": [6219, 6728, 7264, 8252, 9174], "queries": {"click": {"state": {"target": ["3"], "time": [4480]}, "edge": {"target": [], "time": []}}, "mouseover": {"state": {"target": ["2", "3", "7"], "time": [3891, 3940, 4907]}, "edge": {"target": [], "time": []}}, "mouseout": {"state": {"target": ["0", "2", "3", "3", "7"], "time": [1158, 3907, 4595, 4757, 4941]}, "edge": {"target": [], "time": []}}}, "displayed_time": "15.48", "trialTime": 18116, "trial_type": "mouselab-mdp", "trial_index": 20, "time_elapsed": 1003607, "internal_node_id": "0.0-4.0-1.0-5.0"}}, {"uniqueid": "w22003944:a69587937", "current_trial": 21, "dateTime": 1691143204192, "trialdata": {"revealed_states": [], "clicked_states": [], "num_clicks_accrued": [0, 0, 0, 0, 0, 0, 0, 0, 0, 0, 0, 0, 0], "stateRewards": ["", 1, 2, 7, 13, 88, -71, 27, 3, 60, 5, -53, -2, 2, -6, -1, -30, 79, 47, -4, -14, 46, 68, 1, 1, 8, 10, -14, 86, 48, -11, -67, -44, 5], "withholdReward": false, "trial_id": "mdp_trial_7", "block": "test", "trialIndex": 10, "score": -48, "costs": 0, "simulationMode": [null, null, null, null, null], "rewards": [1, 2, 7, 13, -71], "path": ["0", "0", "1", "2", "3", "4", "6"], "rt": [2470, 332, 72, 526, 37], "actions": ["up", "up", "up", "right", "right"], "actionTimes": [3642, 4485, 5074, 6113, 6658], "queries": {"click": {"state": {"target": [], "time": []}, "edge": {"target": [], "time": []}}, "mouseover": {"state": {"target": [], "time": []}, "edge": {"target": [], "time": []}}, "mouseout": {"state": {"target": ["0"], "time": [8985]}, "edge": {"target": [], "time": []}}}, "displayed_time": "15.18", "trialTime": 17007, "trial_type": "mouselab-mdp", "trial_index": 21, "time_elapsed": 1020951, "internal_node_id": "0.0-4.0-1.0-6.0"}}, {"uniqueid": "w22003944:a69587937", "current_trial": 22, "dateTime": 1691143271322, "trialdata": {"revealed_states": [], "clicked_states": [], "num_clicks_accrued": [0, 0, 0, 0, 0, 0, 0, 0, 0, 0, 0, 0, 0], "stateRewards": ["", -2, -3, 1, -14, 48, -49, 67, -1, -35, -48, 3, -2, 1, -4, -5, 86, -84, 39, 1, 48, 41, -42, -1, -4, 2, -7, 18, -86, 17, 7, -9, 57, -69], "withholdReward": false, "trial_id": "mdp_trial_8", "block": "test", "trialIndex": 11, "score": 44, "costs": 0, "simulationMode": [null, null, null, null, null], "rewards": [-2, 1, -4, 1, 48], "path": ["0", "0", "12", "13", "14", "19", "20"], "rt": [1103, 222, 194, 82, 358], "actions": ["right", "right", "right", "down", "right"], "actionTimes": [3788, 4544, 5247, 5835, 6711], "queries": {"click": {"state": {"target": [], "time": []}, "edge": {"target": [], "time": []}}, "mouseover": {"state": {"target": ["0"], "time": [3539]}, "edge": {"target": [], "time": []}}, "mouseout": {"state": {"target": ["0", "0", "19", "20", "20"], "time": [2369, 8890, 66188, 66218, 66569]}, "edge": {"target": [], "time": []}}}, "displayed_time": "16.69", "trialTime": 66842, "trial_type": "mouselab-mdp", "trial_index": 22, "time_elapsed": 1088080, "internal_node_id": "0.0-4.0-1.0-7.0"}}, {"uniqueid": "w22003944:a69587937", "current_trial": 23, "dateTime": 1691143289611, "trialdata": {"revealed_states": [], "clicked_states": [], "num_clicks_accrued": [0, 0, 0, 0, 0, 0, 0, 0, 0, 0, 0, 0, 0], "stateRewards": ["", 1, -3, 4, 13, -72, 52, 5, 5, -58, 5, 14, 2, 1, 3, -14, -86, -4, 73, 6, -58, -50, 49, 2, -3, -4, 2, 33, -41, 42, -11, 81, 45, 53], "withholdReward": false, "trial_id": "mdp_trial_9", "block": "test", "trialIndex": 12, "score": 12, "costs": 0, "simulationMode": [null, null, null, null, null], "rewards": [1, -3, 4, 5, 5], "path": ["0", "0", "1", "2", "3", "8", "10"], "rt": [1184, 20, 545, 123, 223], "actions": ["up", "up", "up", "left", "down"], "actionTimes": [2508, 3035, 4093, 4721, 5455], "queries": {"click": {"state": {"target": [], "time": []}, "edge": {"target": [], "time": []}}, "mouseover": {"state": {"target": ["0"], "time": [1537]}, "edge": {"target": [], "time": []}}, "mouseout": {"state": {"target": ["22", "12", "0"], "time": [353, 452, 16676]}, "edge": {"target": [], "time": []}}}, "displayed_time": "15.32", "trialTime": 17978, "trial_type": "mouselab-mdp", "trial_index": 23, "time_elapsed": 1106370, "internal_node_id": "0.0-4.0-1.0-8.0"}}, {"uniqueid": "w22003944:a69587937", "current_trial": 24, "dateTime": 1691143307686, "trialdata": {"revealed_states": [], "clicked_states": [], "num_clicks_accrued": [0, 0, 0, 0, 0, 0, 0, 0, 0, 0, 0, 0, 0], "stateRewards": ["", -1, 4, -6, -5, -22, -38, -38, -2, -56, 88, 14, -1, -1, -7, -6, 61, -60, 21, 11, 57, 31, -30, -2, -2, 6, -9, -44, -70, -44, -15, 34, 16, -78], "withholdReward": false, "trial_id": "mdp_trial_10", "block": "test", "trialIndex": 13, "score": 59, "costs": 0, "simulationMode": [null, null, null, null, null], "rewards": [-1, -1, -7, 11, 57], "path": ["0", "0", "12", "13", "14", "19", "20"], "rt": [1737, 291, 629, 17, 241], "actions": ["right", "right", "right", "down", "right"], "actionTimes": [3954, 4760, 5898, 6437, 7175], "queries": {"click": {"state": {"target": [], "time": []}, "edge": {"target": [], "time": []}}, "mouseover": {"state": {"target": ["12"], "time": [2750]}, "edge": {"target": [], "time": []}}, "mouseout": {"state": {"target": ["0", "12"], "time": [1834, 2802]}, "edge": {"target": [], "time": []}}}, "displayed_time": "16.22", "trialTime": 17729, "trial_type": "mouselab-mdp", "trial_index": 24, "time_elapsed": 1124445, "internal_node_id": "0.0-4.0-1.0-9.0"}}, {"uniqueid": "w22003944:a69587937", "current_trial": 25, "dateTime": 1691143326298, "trialdata": {"revealed_states": [], "clicked_states": [], "num_clicks_accrued": [0, 0, 0, 0, 0, 0, 0, 0, 0, 0, 0, 0, 0], "stateRewards": ["", -2, 2, 3, -7, 76, 63, 21, 15, 35, -8, -44, 1, 1, -2, -12, 23, 24, 76, -9, 46, 66, -49, -2, -1, 7, 12, 40, -71, -45, -6, 38, -49, 46], "withholdReward": false, "trial_id": "mdp_trial_11", "block": "test", "trialIndex": 14, "score": 44, "costs": 0, "simulationMode": [null, null, null, null, null], "rewards": [-2, -1, 7, -6, 46], "path": ["0", "0", "23", "24", "25", "30", "33"], "rt": [1042, 155, 471, 449, 407], "actions": ["left", "left", "left", "down", "left"], "actionTimes": [3644, 4319, 5302, 6264, 7170], "queries": {"click": {"state": {"target": [], "time": []}, "edge": {"target": [], "time": []}}, "mouseover": {"state": {"target": ["12"], "time": [2614]}, "edge": {"target": [], "time": []}}, "mouseout": {"state": {"target": ["12", "1", "0", "12"], "time": [1763, 1812, 2188, 2651]}, "edge": {"target": [], "time": []}}}, "displayed_time": "16.61", "trialTime": 18256, "trial_type": "mouselab-mdp", "trial_index": 25, "time_elapsed": 1143057, "internal_node_id": "0.0-4.0-1.0-10.0"}}, {"uniqueid": "w22003944:a69587937", "current_trial": 26, "dateTime": 1691143344036, "trialdata": {"revealed_states": [], "clicked_states": [], "num_clicks_accrued": [0, 0, 0, 0, 0, 0, 0, 0, 0, 0, 0, 0, 0], "stateRewards": ["", 2, 3, 8, 11, 25, -80, 6, -4, -56, 84, -23, -2, -4, -3, 4, -51, -9, -61, -15, -64, 67, -35, 1, -1, -7, -6, 83, 59, -15, 12, -79, 56, 41], "withholdReward": false, "trial_id": "mdp_trial_12", "block": "test", "trialIndex": 15, "score": -74, "costs": 0, "simulationMode": [null, null, null, null, null], "rewards": [1, -1, -7, 12, -79], "path": ["0", "0", "23", "24", "25", "30", "31"], "rt": [961, 301, 251, 62, 412], "actions": ["left", "left", "left", "down", "right"], "actionTimes": [2673, 3483, 4234, 4814, 5748], "queries": {"click": {"state": {"target": [], "time": []}, "edge": {"target": [], "time": []}}, "mouseover": {"state": {"target": [], "time": []}, "edge": {"target": [], "time": []}}, "mouseout": {"state": {"target": ["0"], "time": [1383]}, "edge": {"target": [], "time": []}}}, "displayed_time": "15.71", "trialTime": 17432, "trial_type": "mouselab-mdp", "trial_index": 26, "time_elapsed": 1160794, "internal_node_id": "0.0-4.0-1.0-11.0"}}, {"uniqueid": "w22003944:a69587937", "current_trial": 27, "dateTime": 1691143362129, "trialdata": {"revealed_states": [], "clicked_states": [], "num_clicks_accrued": [0, 0, 0, 0, 0, 0, 0, 0, 0, 0, 0, 0, 0], "stateRewards": ["", 1, 1, 4, 11, 83, -66, 18, -16, -23, 5, 25, 1, -3, 1, -12, 18, 24, -86, -11, -64, 36, 40, 2, 1, -6, 13, 55, 29, 72, -2, 81, -72, -41], "withholdReward": false, "trial_id": "mdp_trial_13", "block": "test", "trialIndex": 16, "score": -5, "costs": 0, "simulationMode": [null, null, null, null, null], "rewards": [1, 1, 4, -16, 5], "path": ["0", "0", "1", "2", "3", "8", "10"], "rt": [955, 129, 103, 161, 168], "actions": ["up", "up", "up", "left", "down"], "actionTimes": [3050, 3700, 4302, 4978, 5650], "queries": {"click": {"state": {"target": [], "time": []}, "edge": {"target": [], "time": []}}, "mouseover": {"state": {"target": ["0"], "time": [2105]}, "edge": {"target": [], "time": []}}, "mouseout": {"state": {"target": ["0", "0"], "time": [1148, 2147]}, "edge": {"target": [], "time": []}}}, "displayed_time": "16.10", "trialTime": 17711, "trial_type": "mouselab-mdp", "trial_index": 27, "time_elapsed": 1178887, "internal_node_id": "0.0-4.0-1.0-12.0"}}, {"uniqueid": "w22003944:a69587937", "current_trial": 28, "dateTime": 1691143380492, "trialdata": {"revealed_states": [], "clicked_states": [], "num_clicks_accrued": [0, 0, 0, 0, 0, 0, 0, 0, 0, 0, 0, 0, 0], "stateRewards": ["", 2, -1, -2, -5, -47, -57, -33, -11, 31, -18, -72, -2, 1, -4, -8, -46, -53, -50, 15, -85, -9, 39, -2, -2, 1, 14, -1, -8, 53, -12, -41, -74, 62], "withholdReward": false, "trial_id": "mdp_trial_14", "block": "test", "trialIndex": 17, "score": -53, "costs": 0, "simulationMode": [null, null, null, null, null], "rewards": [2, -1, -2, -5, -47], "path": ["0", "0", "1", "2", "3", "4", "5"], "rt": [456, 1093, 94, 52, 226], "actions": ["up", "up", "up", "right", "up"], "actionTimes": [3058, 4661, 5274, 5832, 6592], "queries": {"click": {"state": {"target": [], "time": []}, "edge": {"target": [], "time": []}}, "mouseover": {"state": {"target": [], "time": []}, "edge": {"target": [], "time": []}}, "mouseout": {"state": {"target": ["0", "0"], "time": [2178, 17427]}, "edge": {"target": [], "time": []}}}, "displayed_time": "16.61", "trialTime": 17944, "trial_type": "mouselab-mdp", "trial_index": 28, "time_elapsed": 1197249, "internal_node_id": "0.0-4.0-1.0-13.0"}}, {"uniqueid": "w22003944:a69587937", "current_trial": 29, "dateTime": 1691143399338, "trialdata": {"revealed_states": [], "clicked_states": [], "num_clicks_accrued": [0, 0, 0, 0, 0, 0, 0, 0, 0, 0, 0, 0, 0], "stateRewards": ["", -1, 4, -5, 9, 29, -75, -42, -16, 24, -28, -41, 2, -3, 1, 10, 60, 47, 55, -1, -53, 22, -40, 2, -3, -6, 4, -26, 44, 54, 15, -76, 42, 14], "withholdReward": false, "trial_id": "mdp_trial_15", "block": "test", "trialIndex": 18, "score": 21, "costs": 0, "simulationMode": [null, null, null, null, null], "rewards": [2, -3, 1, -1, 22], "path": ["0", "0", "12", "13", "14", "19", "21"], "rt": [968, 196, 224, 163, 311], "actions": ["right", "right", "right", "down", "down"], "actionTimes": [3453, 4178, 4906, 5578, 6409], "queries": {"click": {"state": {"target": [], "time": []}, "edge": {"target": [], "time": []}}, "mouseover": {"state": {"target": ["0", "12"], "time": [2529, 3382]}, "edge": {"target": [], "time": []}}, "mouseout": {"state": {"target": ["1", "0", "0", "0", "12"], "time": [35, 1080, 2081, 2537, 3413]}, "edge": {"target": [], "time": []}}}, "displayed_time": "16.49", "trialTime": 18512, "trial_type": "mouselab-mdp", "trial_index": 29, "time_elapsed": 1216095, "internal_node_id": "0.0-4.0-1.0-14.0"}}, {"uniqueid": "w22003944:a69587937", "current_trial": 30, "dateTime": 1691143418256, "trialdata": {"revealed_states": [], "clicked_states": [], "num_clicks_accrued": [0, 0, 0, 0, 0, 0, 0, 0, 0, 0, 0, 0, 0], "stateRewards": ["", 2, -3, 5, -14, -63, -9, -24, -11, -54, -43, 68, 2, -2, -4, 7, -64, 30, 47, 12, -74, 11, 86, 1, -3, 3, 10, -71, -42, -52, -1, -29, -16, 69], "withholdReward": false, "trial_id": "mdp_trial_16", "block": "test", "trialIndex": 19, "score": -66, "costs": 0, "simulationMode": [null, null, null, null, null], "rewards": [2, -2, -4, 12, -74], "path": ["0", "0", "12", "13", "14", "19", "20"], "rt": [515, 45, 959, 564, 197], "actions": ["right", "right", "right", "down", "right"], "actionTimes": [3334, 3892, 5390, 6476, 7192], "queries": {"click": {"state": {"target": [], "time": []}, "edge": {"target": [], "time": []}}, "mouseover": {"state": {"target": [], "time": []}, "edge": {"target": [], "time": []}}, "mouseout": {"state": {"target": ["0", "0"], "time": [2410, 17923]}, "edge": {"target": [], "time": []}}}, "displayed_time": "16.82", "trialTime": 18570, "trial_type": "mouselab-mdp", "trial_index": 30, "time_elapsed": 1235015, "internal_node_id": "0.0-4.0-1.0-15.0"}}, {"uniqueid": "w22003944:a69587937", "current_trial": 31, "dateTime": 1691143438223, "trialdata": {"revealed_states": [], "clicked_states": [], "num_clicks_accrued": [0, 0, 0, 0, 0, 0, 0, 0, 0, 0, 0, 0, 0], "stateRewards": ["", -2, -3, 4, 1, 33, -53, 15, 9, -12, 61, -6, -2, 4, 6, -11, 47, -43, -7, -11, 46, 23, -28, -1, -1, 3, -10, 11, 76, -76, 10, 18, -38, 87], "withholdReward": false, "trial_id": "mdp_trial_17", "block": "test", "trialIndex": 20, "score": 20, "costs": 0, "simulationMode": [null, null, null, null, null], "rewards": [-2, 4, 6, -11, 23], "path": ["0", "0", "12", "13", "14", "19", "21"], "rt": [1112, 274, 660, 88, 75], "actions": ["right", "right", "right", "down", "down"], "actionTimes": [3386, 4166, 5335, 5932, 6505], "queries": {"click": {"state": {"target": [], "time": []}, "edge": {"target": [], "time": []}}, "mouseover": {"state": {"target": [], "time": []}, "edge": {"target": [], "time": []}}, "mouseout": {"state": {"target": ["0", "12", "1", "1"], "time": [1657, 18220, 18440, 18955]}, "edge": {"target": [], "time": []}}}, "displayed_time": "16.27", "trialTime": 19587, "trial_type": "mouselab-mdp", "trial_index": 31, "time_elapsed": 1254981, "internal_node_id": "0.0-4.0-1.0-16.0"}}, {"uniqueid": "w22003944:a69587937", "current_trial": 32, "dateTime": 1691143455038, "trialdata": {"revealed_states": [], "clicked_states": [], "num_clicks_accrued": [0, 0, 0, 0, 0, 0, 0, 0, 0, 0, 0, 0, 0], "stateRewards": ["", 1, 2, 2, -15, -84, 28, -26, 13, 31, 86, 30, -2, 1, -1, -8, 66, -40, -1, -10, -32, 57, -17, 1, 2, -2, 9, -23, 77, 85, 12, -32, -62, -35], "withholdReward": false, "trial_id": "mdp_trial_18", "block": "test", "trialIndex": 21, "score": -44, "costs": 0, "simulationMode": [null, null, null, null, null], "rewards": [-2, 1, -1, -10, -32], "path": ["0", "0", "12", "13", "14", "19", "20"], "rt": [672, 339, 757, 550, 335], "actions": ["right", "right", "right", "down", "right"], "actionTimes": [1547, 2402, 3670, 4730, 5581], "queries": {"click": {"state": {"target": [], "time": []}, "edge": {"target": [], "time": []}}, "mouseover": {"state": {"target": [], "time": []}, "edge": {"target": [], "time": []}}, "mouseout": {"state": {"target": [], "time": []}, "edge": {"target": [], "time": []}}}, "displayed_time": "14.88", "trialTime": 16496, "trial_type": "mouselab-mdp", "trial_index": 32, "time_elapsed": 1271796, "internal_node_id": "0.0-4.0-1.0-17.0"}}, {"uniqueid": "w22003944:a69587937", "current_trial": 33, "dateTime": 1691143476095, "trialdata": {"revealed_states": [], "clicked_states": [], "num_clicks_accrued": [0, 0, 0, 0, 0, 0, 0, 0, 0, 0, 0, 0, 0], "stateRewards": ["", 2, 3, -3, 12, -43, 81, -82, -15, 58, -7, -75, -1, -1, 3, -5, 50, -25, -8, 4, 66, 65, -66, 2, -4, 2, -1, -10, 10, 37, 11, 88, -37, 8], "withholdReward": false, "trial_id": "mdp_trial_19", "block": "test", "trialIndex": 22, "score": -29, "costs": 0, "simulationMode": [null, null, null, null, null], "rewards": [-1, -1, 3, -5, -25], "path": ["0", "0", "12", "13", "14", "15", "17"], "rt": [1601, 211, 245, 76, 158], "actions": ["right", "right", "right", "up", "right"], "actionTimes": [4580, 5302, 6068, 6664, 7334], "queries": {"click": {"state": {"target": [], "time": []}, "edge": {"target": [], "time": []}}, "mouseover": {"state": {"target": [], "time": []}, "edge": {"target": [], "time": []}}, "mouseout": {"state": {"target": ["0"], "time": [2636]}, "edge": {"target": [], "time": []}}}, "displayed_time": "16.98", "trialTime": 20734, "trial_type": "mouselab-mdp", "trial_index": 33, "time_elapsed": 1292853, "internal_node_id": "0.0-4.0-1.0-18.0"}}, {"uniqueid": "w22003944:a69587937", "current_trial": 34, "dateTime": 1691143494321, "trialdata": {"revealed_states": [], "clicked_states": [], "num_clicks_accrued": [0, 0, 0, 0, 0, 0, 0, 0, 0, 0, 0, 0, 0], "stateRewards": ["", 2, 3, -2, -8, -8, -41, 74, 15, -23, -80, 1, 1, 3, 3, -15, -63, -78, 67, 13, 75, -41, 86, 2, -2, 6, -3, -8, -49, 50, -6, 83, 74, 80], "withholdReward": false, "trial_id": "mdp_trial_20", "block": "test", "trialIndex": 23, "score": -46, "costs": 0, "simulationMode": [null, null, null, null, null], "rewards": [2, 3, -2, -8, -41], "path": ["0", "0", "1", "2", "3", "4", "6"], "rt": [1382, 2, 333, 499, 386], "actions": ["up", "up", "up", "right", "right"], "actionTimes": [3449, 3967, 4831, 5857, 6761], "queries": {"click": {"state": {"target": [], "time": []}, "edge": {"target": [], "time": []}}, "mouseover": {"state": {"target": [], "time": []}, "edge": {"target": [], "time": []}}, "mouseout": {"state": {"target": ["0", "1"], "time": [806, 1525]}, "edge": {"target": [], "time": []}}}, "displayed_time": "16.07", "trialTime": 17789, "trial_type": "mouselab-mdp", "trial_index": 34, "time_elapsed": 1311079, "internal_node_id": "0.0-4.0-1.0-19.0"}}, {"uniqueid": "w22003944:a69587937", "current_trial": 35, "dateTime": 1691143518374, "trialdata": {"revealed_states": [], "clicked_states": [], "num_clicks_accrued": [0, 0, 0, 0, 0, 0, 0, 0, 0, 0, 0, 0, 0], "stateRewards": ["", 1, 3, -2, 15, 51, 15, -19, 11, 67, -45, -73, 2, 4, -2, -13, 36, 9, -28, 10, -30, 31, 16, 1, 2, -1, -16, 14, -22, 36, -1, 88, -5, 45], "withholdReward": false, "trial_id": "mdp_trial_21", "block": "test", "trialIndex": 24, "score": -37, "costs": 0, "simulationMode": [null, null, null, null, null], "rewards": [2, 4, -2, -13, -28], "path": ["0", "0", "12", "13", "14", "15", "18"], "rt": [907, 277, 133, 81, 241], "actions": ["right", "right", "right", "up", "left"], "actionTimes": [3709, 4491, 5131, 5728, 6489], "queries": {"click": {"state": {"target": [], "time": []}, "edge": {"target": [], "time": []}}, "mouseover": {"state": {"target": [], "time": []}, "edge": {"target": [], "time": []}}, "mouseout": {"state": {"target": ["0", "1", "2", "1"], "time": [21342, 21392, 21425, 22526]}, "edge": {"target": [], "time": []}}}, "displayed_time": "16.80", "trialTime": 23712, "trial_type": "mouselab-mdp", "trial_index": 35, "time_elapsed": 1335131, "internal_node_id": "0.0-4.0-1.0-20.0"}}, {"uniqueid": "w22003944:a69587937", "current_trial": 36, "dateTime": 1691143538284, "trialdata": {"revealed_states": [], "clicked_states": ["3", "8", "11", "6"], "num_clicks_accrued": [0, 0, 0, 0, 0, 0, 0, 0, 0, 0, 0, 0, 0], "stateRewards": ["", 1, 4, 5, 8, -55, -11, 8, 16, -37, 77, -22, -2, 3, -8, -10, 45, 87, -67, 4, 17, -33, -22, -1, -3, 7, 6, -39, -85, 75, -1, 7, -48, 45], "withholdReward": false, "trial_id": "mdp_trial_22", "block": "test", "trialIndex": 25, "score": -43.8, "costs": -6.800000000000001, "simulationMode": [null, null, null, null, null, null], "rewards": [1, 4, 5, 8, -55], "path": ["0", "0", "1", "2", "3", "4", "5"], "rt": [10035, 171, 588, 428, 97, 565], "actions": ["up", "up", "up", "up", "right", "up"], "actionTimes": [11153, 11328, 12451, 13388, 14024, 15091], "queries": {"click": {"state": {"target": ["3", "8", "11", "6"], "time": [2955, 4908, 6318, 9369]}, "edge": {"target": [], "time": []}}, "mouseover": {"state": {"target": ["1", "2", "3", "2", "8", "11", "3", "16", "16", "6", "18"], "time": [1611, 1801, 2179, 3645, 4362, 5744, 6880, 6927, 7560, 7826, 10010]}, "edge": {"target": [], "time": []}}, "mouseout": {"state": {"target": ["1", "2", "3", "2", "8", "11", "8", "3", "16", "16", "6", "18", "13"], "time": [1745, 1963, 3278, 4227, 5527, 6860, 6877, 6894, 6961, 7610, 9727, 18724, 18906]}, "edge": {"target": [], "time": []}}}, "displayed_time": "15.61", "trialTime": 19514, "trial_type": "mouselab-mdp", "trial_index": 36, "time_elapsed": 1355043, "internal_node_id": "0.0-4.0-1.0-21.0"}}, {"uniqueid": "w22003944:a69587937", "current_trial": 37, "dateTime": 1691143556026, "trialdata": {"revealed_states": [], "clicked_states": ["24", "16"], "num_clicks_accrued": [0, 0, 0, 0, 0, 0, 0, 0, 0, 0, 0, 0, 0], "stateRewards": ["", 2, -1, 8, -2, -16, 69, -39, -7, -13, -27, -86, 2, -2, 2, 13, -34, -16, -20, -5, 19, 81, 32, -2, -1, 2, -14, 20, 80, 58, 4, 70, 12, 73], "withholdReward": false, "trial_id": "mdp_trial_23", "block": "test", "trialIndex": 26, "score": 75.5, "costs": -2.5, "simulationMode": [null, null, null, null, null], "rewards": [2, -2, 2, -5, 81], "path": ["0", "0", "12", "13", "14", "19", "21"], "rt": [6660, 282, 620, 70, 144], "actions": ["right", "right", "right", "down", "down"], "actionTimes": [7930, 8726, 9881, 10467, 11105], "queries": {"click": {"state": {"target": ["24", "16"], "time": [1902, 3410]}, "edge": {"target": [], "time": []}}, "mouseover": {"state": {"target": ["0", "0", "24", "13", "14", "15", "16", "15", "14", "19", "21", "22"], "time": [1311, 1395, 1694, 2428, 2545, 2779, 3152, 3945, 4127, 4243, 4378, 7427]}, "edge": {"target": [], "time": []}}, "mouseout": {"state": {"target": ["13", "12", "0", "0", "24", "13", "14", "15", "16", "15", "14", "19", "21", "22", "12"], "time": [229, 362, 1329, 1411, 2079, 2475, 2678, 3049, 3860, 4060, 4193, 4327, 7296, 12510, 14376]}, "edge": {"target": [], "time": []}}}, "displayed_time": "15.27", "trialTime": 17174, "trial_type": "mouselab-mdp", "trial_index": 37, "time_elapsed": 1372784, "internal_node_id": "0.0-4.0-1.0-22.0"}}, {"uniqueid": "w22003944:a69587937", "current_trial": 38, "dateTime": 1691143574257, "trialdata": {"revealed_states": [], "clicked_states": ["19", "30", "3", "29"], "num_clicks_accrued": [0, 0, 0, 0, 0, 0, 0, 0, 0, 0, 0, 0, 0], "stateRewards": ["", 1, 1, 1, -3, -7, -1, -41, -10, 20, -72, -63, 1, -4, -2, 2, -66, 30, -84, -2, 49, 23, 71, -1, -4, 4, -12, 67, 5, 18, -16, 88, 56, -5], "withholdReward": false, "trial_id": "mdp_trial_24", "block": "test", "trialIndex": 27, "score": -1.1999999999999993, "costs": -6.199999999999999, "simulationMode": [null, null, null, null, null, null], "rewards": [-1, -4, 4, -12, 18], "path": ["0", "0", "23", "24", "25", "26", "29"], "rt": [7972, 161, 34, 103, 198, 104], "actions": ["left", "left", "left", "left", "up", "left"], "actionTimes": [10573, 10737, 11305, 11945, 12668, 13290], "queries": {"click": {"state": {"target": ["19", "30", "3", "29"], "time": [4891, 6700, 8253, 9516]}, "edge": {"target": [], "time": []}}, "mouseover": {"state": {"target": ["22", "19", "31", "30", "24", "3", "2", "1", "26", "29", "24"], "time": [4460, 4518, 6221, 6268, 7686, 8055, 8557, 8702, 8968, 9218, 9935]}, "edge": {"target": [], "time": []}}, "mouseout": {"state": {"target": ["0", "1", "22", "19", "31", "30", "30", "24", "3", "2", "1", "26", "29", "24"], "time": [1823, 2053, 4486, 5119, 6253, 7035, 7635, 7702, 8502, 8636, 8802, 9135, 9851, 9952]}, "edge": {"target": [], "time": []}}}, "displayed_time": "16.60", "trialTime": 17836, "trial_type": "mouselab-mdp", "trial_index": 38, "time_elapsed": 1391016, "internal_node_id": "0.0-4.0-1.0-23.0"}}, {"uniqueid": "w22003944:a69587937", "current_trial": 39, "dateTime": 1691143593324, "trialdata": {"revealed_states": [], "clicked_states": ["31", "14"], "num_clicks_accrued": [0, 0, 0, 0, 0, 0, 0, 0, 0, 0, 0, 0, 0], "stateRewards": ["", 1, 1, -3, 7, 49, 78, 26, -5, 26, 48, -43, -1, -3, 2, -5, 4, -1, -60, 10, -35, 51, 81, -2, 1, -7, -5, -39, -86, -54, 4, -3, 74, 77], "withholdReward": false, "trial_id": "mdp_trial_25", "block": "test", "trialIndex": 28, "score": 55.9, "costs": -3.0999999999999996, "simulationMode": [null, null, null, null, null], "rewards": [-1, -3, 2, 10, 51], "path": ["0", "0", "12", "13", "14", "19", "21"], "rt": [6230, 4, 61, 134, 366], "actions": ["right", "right", "right", "down", "down"], "actionTimes": [9874, 10392, 10990, 11655, 12544], "queries": {"click": {"state": {"target": ["31", "14"], "time": [4694, 9023]}, "edge": {"target": [], "time": []}}, "mouseover": {"state": {"target": ["31", "22", "16", "15", "15", "16", "15", "14"], "time": [4412, 5514, 5948, 6430, 6914, 7262, 7562, 7645]}, "edge": {"target": [], "time": []}}, "mouseout": {"state": {"target": ["23", "23", "31", "22", "16", "15", "15", "16", "15"], "time": [1982, 2131, 4929, 5546, 6396, 6463, 6962, 7546, 7613]}, "edge": {"target": [], "time": []}}}, "displayed_time": "17.65", "trialTime": 18704, "trial_type": "mouselab-mdp", "trial_index": 39, "time_elapsed": 1410083, "internal_node_id": "0.0-4.0-1.0-24.0"}}, {"uniqueid": "w22003944:a69587937", "current_trial": 40, "dateTime": 1691143610751, "trialdata": {"revealed_states": [], "clicked_states": ["8", "11"], "num_clicks_accrued": [0, 0, 0, 0, 0, 0, 0, 0, 0, 0, 0, 0, 0], "stateRewards": ["", 1, -1, 8, -3, 38, 85, -20, -4, 8, 23, 73, 2, -4, 6, -13, 44, 7, -28, -11, -77, 45, -69, 1, -1, -7, -11, 75, -51, -87, 7, 36, -53, -26], "withholdReward": false, "trial_id": "mdp_trial_26", "block": "test", "trialIndex": 29, "score": 73.3, "costs": -3.7, "simulationMode": [null, null, null, null, null, null], "rewards": [1, -1, 8, -4, 73], "path": ["0", "0", "1", "2", "3", "8", "11"], "rt": [5234, 224, 138, 280, 139, 184], "actions": ["up", "up", "up", "up", "left", "left"], "actionTimes": [6900, 7128, 7804, 8608, 9249, 9946], "queries": {"click": {"state": {"target": ["8", "11"], "time": [4148, 5514]}, "edge": {"target": [], "time": []}}, "mouseover": {"state": {"target": ["1", "2", "8", "11", "10", "1", "0"], "time": [3479, 3544, 3944, 5277, 6108, 6176, 6242]}, "edge": {"target": [], "time": []}}, "mouseout": {"state": {"target": ["14", "13", "1", "2", "8", "8", "11", "10", "1", "0"], "time": [711, 759, 3531, 3576, 4777, 5110, 6076, 6142, 6192, 6260]}, "edge": {"target": [], "time": []}}}, "displayed_time": "15.67", "trialTime": 16912, "trial_type": "mouselab-mdp", "trial_index": 40, "time_elapsed": 1427509, "internal_node_id": "0.0-4.0-1.0-25.0"}}, {"uniqueid": "w22003944:a69587937", "current_trial": 41, "dateTime": 1691143632670, "trialdata": {"revealed_states": [], "clicked_states": ["6"], "num_clicks_accrued": [0, 0, 0, 0, 0, 0, 0, 0, 0, 0, 0, 0, 0], "stateRewards": ["", 2, -3, -2, 14, -4, 85, 46, 15, -28, 41, 31, -1, -1, -1, 5, 62, 79, 57, 12, -73, -64, 86, -1, 1, -3, -5, 68, 11, -32, 8, -80, -21, -56], "withholdReward": false, "trial_id": "mdp_trial_27", "block": "test", "trialIndex": 30, "score": 93.85, "costs": -2.15, "simulationMode": [null, null, null, null, null], "rewards": [2, -3, -2, 14, 85], "path": ["0", "0", "1", "2", "3", "4", "6"], "rt": [5741, 151, 152, 77, 437], "actions": ["up", "up", "up", "right", "right"], "actionTimes": [6833, 7502, 8171, 8762, 9705], "queries": {"click": {"state": {"target": ["6"], "time": [2176]}, "edge": {"target": [], "time": []}}, "mouseover": {"state": {"target": ["6", "4", "7", "1"], "time": [1969, 3884, 5819, 5950]}, "edge": {"target": [], "time": []}}, "mouseout": {"state": {"target": ["0", "6", "4", "7", "1", "28", "26", "29", "25", "24"], "time": [652, 3818, 5184, 5851, 6104, 18113, 18330, 20646, 20865, 20979]}, "edge": {"target": [], "time": []}}}, "displayed_time": "15.09", "trialTime": 21379, "trial_type": "mouselab-mdp", "trial_index": 41, "time_elapsed": 1449429, "internal_node_id": "0.0-4.0-1.0-26.0"}}, {"uniqueid": "w22003944:a69587937", "current_trial": 42, "dateTime": 1691143651477, "trialdata": {"revealed_states": [], "clicked_states": ["29", "27", "17"], "num_clicks_accrued": [0, 0, 0, 0, 0, 0, 0, 0, 0, 0, 0, 0, 0], "stateRewards": ["", -2, 2, -5, 1, 42, -63, -58, -6, 2, 16, 81, -2, 4, 7, -10, 33, 3, -33, -2, -52, -84, -27, 2, -3, -3, 15, -74, -14, -5, -5, -84, 79, -31], "withholdReward": false, "trial_id": "mdp_trial_28", "block": "test", "trialIndex": 31, "score": -4.449999999999999, "costs": -6.449999999999999, "simulationMode": [null, null, null, null, null], "rewards": [-2, 4, 7, -10, 3], "path": ["0", "0", "12", "13", "14", "15", "17"], "rt": [12482, 106, 202, 25, 58], "actions": ["right", "right", "right", "up", "right"], "actionTimes": [13567, 14188, 14908, 15437, 16004], "queries": {"click": {"state": {"target": ["29", "27", "17"], "time": [1639, 5976, 9757]}, "edge": {"target": [], "time": []}}, "mouseover": {"state": {"target": ["28", "26", "29", "26", "27", "18", "15", "17"], "time": [1272, 1340, 1468, 4965, 5063, 6831, 6873, 7246]}, "edge": {"target": [], "time": []}}, "mouseout": {"state": {"target": ["24", "28", "26", "29", "26", "27", "18", "15", "17"], "time": [237, 1292, 1455, 2064, 5014, 6664, 6846, 7181, 10229]}, "edge": {"target": [], "time": []}}}, "displayed_time": "16.51", "trialTime": 18473, "trial_type": "mouselab-mdp", "trial_index": 42, "time_elapsed": 1468236, "internal_node_id": "0.0-4.0-1.0-27.0"}}, {"uniqueid": "w22003944:a69587937", "current_trial": 43, "dateTime": 1691143672041, "trialdata": {"revealed_states": [], "clicked_states": ["19", "32", "5"], "num_clicks_accrued": [0, 0, 0, 0, 0, 0, 0, 0, 0, 0, 0, 0, 0], "stateRewards": ["", -2, -4, -6, 12, -58, -70, -80, 2, 16, -88, -62, 1, 2, -5, 11, 77, -35, -44, -5, 18, -83, 87, 1, -3, -5, 13, -44, -21, -86, 10, -52, 8, 29], "withholdReward": false, "trial_id": "mdp_trial_29", "block": "test", "trialIndex": 32, "score": 5.15, "costs": -5.85, "simulationMode": [null, null, null, null, null], "rewards": [1, -3, -5, 10, 8], "path": ["0", "0", "23", "24", "25", "30", "32"], "rt": [11161, 26, 64, 466, 175], "actions": ["left", "left", "left", "down", "down"], "actionTimes": [15205, 15749, 16319, 17306, 17998], "queries": {"click": {"state": {"target": ["19", "32", "5"], "time": [4867, 7459, 10819]}, "edge": {"target": [], "time": []}}, "mouseover": {"state": {"target": ["12", "19", "21", "32", "21", "15", "16", "6", "5"], "time": [4424, 4542, 6206, 7176, 7990, 10239, 10294, 10380, 10624]}, "edge": {"target": [], "time": []}}, "mouseout": {"state": {"target": ["13", "12", "0", "12", "19", "21", "32", "21", "15", "16", "6", "5"], "time": [2872, 3056, 3589, 4440, 6073, 6374, 7922, 8006, 10271, 10322, 10461, 11138]}, "edge": {"target": [], "time": []}}}, "displayed_time": "18.50", "trialTime": 20183, "trial_type": "mouselab-mdp", "trial_index": 43, "time_elapsed": 1488800, "internal_node_id": "0.0-4.0-1.0-28.0"}}, {"uniqueid": "w22003944:a69587937", "current_trial": 44, "dateTime": 1691143690683, "trialdata": {"revealed_states": [], "clicked_states": ["17", "16", "19"], "num_clicks_accrued": [0, 0, 0, 0, 0, 0, 0, 0, 0, 0, 0, 0, 0], "stateRewards": ["", -2, -3, -3, 9, 79, 67, 22, -15, -56, 27, -85, -2, 4, -4, -15, -20, -32, 60, 15, 71, 57, 17, 1, 2, -8, 15, -37, -81, 82, 15, 21, -3, 2], "withholdReward": false, "trial_id": "mdp_trial_30", "block": "test", "trialIndex": 33, "score": 64.15, "costs": -5.85, "simulationMode": [null, null, null, null, null], "rewards": [-2, 4, -4, 15, 57], "path": ["0", "0", "12", "13", "14", "19", "21"], "rt": [9487, 329, 231, 552, 196], "actions": ["right", "right", "right", "down", "down"], "actionTimes": [10848, 11690, 12441, 13512, 14222], "queries": {"click": {"state": {"target": ["17", "16", "19"], "time": [2863, 6048, 9733]}, "edge": {"target": [], "time": []}}, "mouseover": {"state": {"target": ["13", "14", "17", "14", "23", "24", "26", "28", "16", "16", "16", "15", "14", "15", "16", "15", "14", "22", "19", "19", "21"], "time": [2343, 2362, 2696, 3161, 3410, 3444, 3543, 3726, 3829, 4178, 4793, 5159, 5227, 5811, 5859, 6412, 6460, 9127, 9325, 9614, 10175]}, "edge": {"target": [], "time": []}}, "mouseout": {"state": {"target": ["13", "14", "17", "14", "23", "24", "26", "28", "16", "16", "16", "15", "14", "15", "16", "16", "15", "14", "22", "19", "19", "19", "21"], "time": [2360, 2382, 3026, 3177, 3427, 3476, 3712, 3743, 3843, 4643, 5127, 5176, 5796, 5857, 6148, 6343, 6427, 6509, 9275, 9444, 9880, 10075, 10300]}, "edge": {"target": [], "time": []}}}, "displayed_time": "15.36", "trialTime": 18215, "trial_type": "mouselab-mdp", "trial_index": 44, "time_elapsed": 1507440, "internal_node_id": "0.0-4.0-1.0-29.0"}}, {"uniqueid": "w22003944:a69587937", "current_trial": 45, "dateTime": 1691143711078, "trialdata": {"revealed_states": [], "clicked_states": ["18", "21"], "num_clicks_accrued": [0, 0, 0, 0, 0, 0, 0, 0, 0, 0, 0, 0, 0], "stateRewards": ["", 1, 1, -2, 7, -31, -6, 76, 1, -36, -16, -53, 2, 1, 7, 13, -47, -10, 47, -7, 72, 46, -56, -2, -2, -2, 11, -80, 44, 38, 16, 67, 85, -78], "withholdReward": false, "trial_id": "mdp_trial_31", "block": "test", "trialIndex": 34, "score": 65.7, "costs": -4.3, "simulationMode": [null, null, null, null, null, null], "rewards": [2, 1, 7, 13, 47], "path": ["0", "0", "12", "13", "14", "15", "18"], "rt": [7216, 228, 142, 431, 388, 186], "actions": ["right", "right", "right", "right", "up", "left"], "actionTimes": [9898, 10130, 10795, 11759, 12664, 13345], "queries": {"click": {"state": {"target": ["18", "21"], "time": [5346, 8587]}, "edge": {"target": [], "time": []}}, "mouseover": {"state": {"target": ["23", "24", "25", "24", "28", "10", "2", "7", "18", "19", "21"], "time": [3103, 3120, 3304, 3443, 3576, 3851, 3977, 4814, 5046, 6926, 7327]}, "edge": {"target": [], "time": []}}, "mouseout": {"state": {"target": ["24", "23", "14", "19", "23", "24", "25", "24", "28", "10", "2", "7", "18", "19", "21", "21"], "time": [747, 764, 794, 1548, 3117, 3129, 3433, 3527, 3729, 3867, 4766, 4831, 5593, 7061, 8629, 8878]}, "edge": {"target": [], "time": []}}}, "displayed_time": "16.68", "trialTime": 20065, "trial_type": "mouselab-mdp", "trial_index": 45, "time_elapsed": 1527835, "internal_node_id": "0.0-4.0-1.0-30.0"}}, {"uniqueid": "w22003944:a69587937", "current_trial": 46, "dateTime": 1691143728359, "trialdata": {"revealed_states": [], "clicked_states": ["20", "17"], "num_clicks_accrued": [0, 0, 0, 0, 0, 0, 0, 0, 0, 0, 0, 0, 0], "stateRewards": ["", -1, 1, -6, -1, 80, 23, 2, -11, 73, -81, 59, 1, 3, 5, -1, -26, 28, -3, 16, -59, -13, -50, -2, -2, 2, 15, -50, 86, 17, -4, 37, 35, 44], "withholdReward": false, "trial_id": "mdp_trial_32", "block": "test", "trialIndex": 35, "score": 31.7, "costs": -4.3, "simulationMode": [null, null, null, null, null], "rewards": [1, 3, 5, -1, 28], "path": ["0", "0", "12", "13", "14", "15", "17"], "rt": [8113, 774, 212, 111, 34], "actions": ["right", "right", "right", "up", "right"], "actionTimes": [9550, 10822, 11542, 12184, 12733], "queries": {"click": {"state": {"target": ["20", "17"], "time": [2122, 5558]}, "edge": {"target": [], "time": []}}, "mouseover": {"state": {"target": ["22", "19", "22", "19", "20", "17", "14"], "time": [1515, 1548, 1715, 1831, 1900, 3797, 5797]}, "edge": {"target": [], "time": []}}, "mouseout": {"state": {"target": ["0", "22", "19", "22", "19", "20", "20", "20", "17", "14", "19"], "time": [735, 1531, 1664, 1813, 1867, 2136, 2364, 3613, 5679, 5830, 14929]}, "edge": {"target": [], "time": []}}}, "displayed_time": "15.44", "trialTime": 16825, "trial_type": "mouselab-mdp", "trial_index": 46, "time_elapsed": 1545118, "internal_node_id": "0.0-4.0-1.0-31.0"}}, {"uniqueid": "w22003944:a69587937", "current_trial": 47, "dateTime": 1691143746100, "trialdata": {"revealed_states": [], "clicked_states": ["6", "10"], "num_clicks_accrued": [0, 0, 0, 0, 0, 0, 0, 0, 0, 0, 0, 0, 0], "stateRewards": ["", -2, -3, -7, 7, -54, -69, -4, -14, -77, 22, 40, -2, -1, 5, 6, -35, 50, -60, 10, -28, 75, 57, 1, -4, -2, 2, 68, 34, -18, 12, 3, -21, -43], "withholdReward": false, "trial_id": "mdp_trial_33", "block": "test", "trialIndex": 36, "score": -8.3, "costs": -4.3, "simulationMode": [null, null, null, null, null], "rewards": [-2, -3, -7, -14, 22], "path": ["0", "0", "1", "2", "3", "8", "10"], "rt": [9296, 47, 90, 6, 789], "actions": ["up", "up", "up", "left", "down"], "actionTimes": [10935, 11493, 12103, 12619, 13919], "queries": {"click": {"state": {"target": ["6", "10"], "time": [3333, 6729]}, "edge": {"target": [], "time": []}}, "mouseover": {"state": {"target": ["6", "2", "10", "10", "23", "31", "30", "32", "0"], "time": [3180, 4297, 4514, 6580, 8213, 8480, 8947, 9582, 10262]}, "edge": {"target": [], "time": []}}, "mouseout": {"state": {"target": ["14", "13", "12", "6", "2", "10", "10", "10", "23", "31", "30", "32", "0", "13", "14"], "time": [596, 613, 1001, 3496, 4364, 6286, 6838, 6930, 8345, 8646, 9383, 10097, 10278, 15094, 15127]}, "edge": {"target": [], "time": []}}}, "displayed_time": "15.64", "trialTime": 17252, "trial_type": "mouselab-mdp", "trial_index": 47, "time_elapsed": 1562858, "internal_node_id": "0.0-4.0-1.0-32.0"}}, {"uniqueid": "w22003944:a69587937", "current_trial": 48, "dateTime": 1691143764467, "trialdata": {"revealed_states": [], "clicked_states": ["24", "30"], "num_clicks_accrued": [0, 0, 0, 0, 0, 0, 0, 0, 0, 0, 0, 0, 0], "stateRewards": ["", -2, 1, -7, 9, 8, 25, 61, -7, -17, 69, -81, 1, 4, -4, -11, 16, 67, 44, 3, 6, -45, -54, -2, 3, 6, -11, -15, 32, -47, 3, -39, -6, -88], "withholdReward": false, "trial_id": "mdp_trial_34", "block": "test", "trialIndex": 37, "score": 2.0999999999999996, "costs": -1.9, "simulationMode": [null, null, null, null, null], "rewards": [-2, 3, 6, 3, -6], "path": ["0", "0", "23", "24", "25", "30", "32"], "rt": [4417, 461, 304, 289, 6764], "actions": ["left", "left", "left", "down", "down"], "actionTimes": [5954, 6950, 7759, 8560, 15818], "queries": {"click": {"state": {"target": ["24", "30"], "time": [2943, 5279]}, "edge": {"target": [], "time": []}}, "mouseover": {"state": {"target": ["0", "24", "23", "24", "30"], "time": [1982, 2338, 2510, 2654, 4754]}, "edge": {"target": [], "time": []}}, "mouseout": {"state": {"target": ["13", "12", "0", "0", "24", "23", "24", "30", "23", "24", "25"], "time": [872, 1024, 1143, 2001, 2495, 2637, 3106, 5454, 10651, 10901, 11252]}, "edge": {"target": [], "time": []}}}, "displayed_time": "16.34", "trialTime": 17916, "trial_type": "mouselab-mdp", "trial_index": 48, "time_elapsed": 1581225, "internal_node_id": "0.0-4.0-1.0-33.0"}}, {"uniqueid": "w22003944:a69587937", "current_trial": 49, "dateTime": 1691143781234, "trialdata": {"revealed_states": [], "clicked_states": ["4"], "num_clicks_accrued": [0, 0, 0, 0, 0, 0, 0, 0, 0, 0, 0, 0, 0], "stateRewards": ["", -1, 4, 3, 12, -27, 34, -33, 3, -63, 1, 6, 2, 2, -6, -11, -77, -85, 68, -6, 51, 81, -60, -2, -2, 1, 15, 20, 15, 68, -10, -14, 6, -4], "withholdReward": false, "trial_id": "mdp_trial_35", "block": "test", "trialIndex": 38, "score": 50.45, "costs": -1.55, "simulationMode": [null, null, null, null, null], "rewards": [-1, 4, 3, 12, 34], "path": ["0", "0", "1", "2", "3", "4", "6"], "rt": [2603, 124, 5, 163, 465], "actions": ["up", "up", "up", "right", "right"], "actionTimes": [4338, 4976, 5478, 6176, 7152], "queries": {"click": {"state": {"target": ["4"], "time": [3203]}, "edge": {"target": [], "time": []}}, "mouseover": {"state": {"target": ["12", "7", "4", "7"], "time": [2797, 2913, 3014, 3413]}, "edge": {"target": [], "time": []}}, "mouseout": {"state": {"target": ["17", "12", "7", "4", "4", "7", "12", "13"], "time": [881, 2814, 2964, 3303, 3380, 3481, 13580, 13595]}, "edge": {"target": [], "time": []}}}, "displayed_time": "15.74", "trialTime": 16265, "trial_type": "mouselab-mdp", "trial_index": 49, "time_elapsed": 1597993, "internal_node_id": "0.0-4.0-1.0-34.0"}}, {"uniqueid": "w22003944:a69587937", "current_trial": 50, "dateTime": 1691143799206, "trialdata": {"revealed_states": [], "clicked_states": ["8"], "num_clicks_accrued": [0, 0, 0, 0, 0, 0, 0, 0, 0, 0, 0, 0, 0], "stateRewards": ["", 2, -2, -8, 9, -20, 55, -58, 14, 42, 2, 36, 1, -3, -5, 5, -58, 57, 60, 16, 57, 30, -70, -2, 1, 3, 10, 59, 23, 77, -13, -26, 88, -72], "withholdReward": false, "trial_id": "mdp_trial_36", "block": "test", "trialIndex": 39, "score": 40.45, "costs": -1.55, "simulationMode": [null, null, null, null, null], "rewards": [2, -2, -8, 14, 36], "path": ["0", "0", "1", "2", "3", "8", "11"], "rt": [2399, 513, 524, 52, 226], "actions": ["up", "up", "up", "left", "left"], "actionTimes": [5032, 6036, 7106, 7675, 8434], "queries": {"click": {"state": {"target": ["8"], "time": [3611]}, "edge": {"target": [], "time": []}}, "mouseover": {"state": {"target": ["10", "8", "10", "1", "13", "13"], "time": [3307, 3371, 3773, 4172, 4239, 4904]}, "edge": {"target": [], "time": []}}, "mouseout": {"state": {"target": ["16", "7", "10", "8", "10", "1", "13", "13", "22"], "time": [42, 1189, 3355, 3755, 3823, 4189, 4273, 14978, 15271]}, "edge": {"target": [], "time": []}}}, "displayed_time": "16.64", "trialTime": 17631, "trial_type": "mouselab-mdp", "trial_index": 50, "time_elapsed": 1615965, "internal_node_id": "0.0-4.0-1.0-35.0"}}, {"uniqueid": "w22003944:a69587937", "current_trial": 51, "dateTime": 1691143817428, "trialdata": {"revealed_states": [], "clicked_states": ["19"], "num_clicks_accrued": [0, 0, 0, 0, 0, 0, 0, 0, 0, 0, 0, 0, 0], "stateRewards": ["", 1, -4, 6, -3, 40, 76, -51, 5, -24, -63, 44, -2, -2, 8, 1, 76, -85, -58, 10, 59, 20, 11, -2, 3, -3, 3, -82, -10, 54, -7, -57, -6, -32], "withholdReward": false, "trial_id": "mdp_trial_37", "block": "test", "trialIndex": 40, "score": 71.45, "costs": -1.55, "simulationMode": [null, null, null, null, null], "rewards": [-2, -2, 8, 10, 59], "path": ["0", "0", "12", "13", "14", "19", "20"], "rt": [3124, 198, 182, 143, 242], "actions": ["right", "right", "right", "down", "right"], "actionTimes": [5811, 6500, 7199, 7862, 8610], "queries": {"click": {"state": {"target": ["19"], "time": [4573]}, "edge": {"target": [], "time": []}}, "mouseover": {"state": {"target": ["19", "21"], "time": [4051, 4783]}, "edge": {"target": [], "time": []}}, "mouseout": {"state": {"target": ["0", "0", "19", "21"], "time": [1103, 2234, 4750, 5851]}, "edge": {"target": [], "time": []}}}, "displayed_time": "16.69", "trialTime": 17851, "trial_type": "mouselab-mdp", "trial_index": 51, "time_elapsed": 1634185, "internal_node_id": "0.0-4.0-1.0-36.0"}}, {"uniqueid": "w22003944:a69587937", "current_trial": 52, "dateTime": 1691143835920, "trialdata": {"revealed_states": [], "clicked_states": ["24", "26"], "num_clicks_accrued": [0, 0, 0, 0, 0, 0, 0, 0, 0, 0, 0, 0, 0], "stateRewards": ["", -2, 3, -1, -9, 44, 48, -37, -3, 71, -39, 87, -1, 3, -4, 4, -21, 59, -15, -8, -1, 28, -38, 2, 4, 4, 8, -85, -72, -63, 14, 58, 63, -46], "withholdReward": false, "trial_id": "mdp_trial_38", "block": "test", "trialIndex": 41, "score": -68.9, "costs": -1.9, "simulationMode": [null, null, null, null, null], "rewards": [2, 4, 4, 8, -85], "path": ["0", "0", "23", "24", "25", "26", "27"], "rt": [4497, 486, 294, 204, 128], "actions": ["left", "left", "left", "up", "up"], "actionTimes": [7424, 8447, 9252, 9963, 10621], "queries": {"click": {"state": {"target": ["24", "26"], "time": [3849, 5468]}, "edge": {"target": [], "time": []}}, "mouseover": {"state": {"target": ["24", "26", "23"], "time": [3674, 5090, 7308]}, "edge": {"target": [], "time": []}}, "mouseout": {"state": {"target": ["21", "22", "24", "26", "26", "24", "23", "23", "0", "13", "14"], "time": [1981, 2044, 4174, 5558, 5675, 7125, 7639, 11392, 11422, 11473, 11488]}, "edge": {"target": [], "time": []}}}, "displayed_time": "16.93", "trialTime": 18091, "trial_type": "mouselab-mdp", "trial_index": 52, "time_elapsed": 1652678, "internal_node_id": "0.0-4.0-1.0-37.0"}}, {"uniqueid": "w22003944:a69587937", "current_trial": 53, "dateTime": 1691143852784, "trialdata": {"revealed_states": [], "clicked_states": ["15", "21"], "num_clicks_accrued": [0, 0, 0, 0, 0, 0, 0, 0, 0, 0, 0, 0, 0], "stateRewards": ["", 2, 4, 7, -6, -76, -81, 2, 5, -66, -3, 36, -2, -4, 6, -2, -69, 4, -49, -6, 67, 38, -67, 2, 1, 1, 6, -68, -21, 52, -16, -16, 6, -70], "withholdReward": false, "trial_id": "mdp_trial_39", "block": "test", "trialIndex": 42, "score": 28.3, "costs": -3.7, "simulationMode": [null, null, null, null, null, null], "rewards": [-2, -4, 6, -6, 38], "path": ["0", "0", "12", "13", "14", "19", "21"], "rt": [3058, 2024, 80, 279, 247, 657], "actions": ["right", "right", "right", "right", "down", "down"], "actionTimes": [4319, 6348, 6957, 7753, 8539, 9714], "queries": {"click": {"state": {"target": ["15", "21"], "time": [2884, 3669]}, "edge": {"target": [], "time": []}}, "mouseover": {"state": {"target": ["12", "13", "15", "15", "21", "19", "14"], "time": [1273, 1890, 2573, 2774, 3375, 5158, 5257]}, "edge": {"target": [], "time": []}}, "mouseout": {"state": {"target": ["14", "13", "12", "12", "13", "15", "15", "15", "21", "21", "19", "14"], "time": [561, 591, 706, 1858, 2073, 2591, 2968, 3040, 4040, 5090, 5223, 5290]}, "edge": {"target": [], "time": []}}}, "displayed_time": "15.26", "trialTime": 16357, "trial_type": "mouselab-mdp", "trial_index": 53, "time_elapsed": 1669542, "internal_node_id": "0.0-4.0-1.0-38.0"}}, {"uniqueid": "w22003944:a69587937", "current_trial": 54, "dateTime": 1691143870121, "trialdata": {"revealed_states": [], "clicked_states": ["30", "6", "17"], "num_clicks_accrued": [0, 0, 0, 0, 0, 0, 0, 0, 0, 0, 0, 0, 0], "stateRewards": ["", -2, -2, -7, -13, -10, 49, -68, -1, 84, 70, 88, 1, 4, 4, 12, -57, 25, 30, 8, -1, -77, 57, 2, 3, 2, 3, -18, -80, 23, -15, -41, 70, 11], "withholdReward": false, "trial_id": "mdp_trial_40", "block": "test", "trialIndex": 43, "score": 19.15, "costs": -5.85, "simulationMode": [null, null, null, null, null, null], "rewards": [-2, -2, -7, -13, 49], "path": ["0", "0", "1", "2", "3", "4", "6"], "rt": [7503, 290, 234, 225, 599, 237], "actions": ["up", "up", "up", "up", "right", "right"], "actionTimes": [9010, 9302, 10068, 10807, 11914, 12668], "queries": {"click": {"state": {"target": ["30", "6", "17"], "time": [2264, 3666, 6582]}, "edge": {"target": [], "time": []}}, "mouseover": {"state": {"target": ["31", "30", "32", "0", "6", "7", "1", "12", "13", "15", "17"], "time": [1966, 1999, 2482, 3121, 3531, 4117, 4229, 4686, 4715, 4848, 5181]}, "edge": {"target": [], "time": []}}, "mouseout": {"state": {"target": ["20", "19", "23", "31", "30", "32", "0", "6", "6", "7", "1", "12", "13", "15", "17"], "time": [601, 631, 849, 1983, 2433, 2583, 3135, 3678, 3915, 4180, 4298, 4698, 4732, 4865, 6925]}, "edge": {"target": [], "time": []}}}, "displayed_time": "15.51", "trialTime": 16926, "trial_type": "mouselab-mdp", "trial_index": 54, "time_elapsed": 1686880, "internal_node_id": "0.0-4.0-1.0-39.0"}}, {"uniqueid": "w22003944:a69587937", "current_trial": 55, "dateTime": 1691143914568, "trialdata": {"rt": 44442, "response": {"Q0": "$-2 to $2", "Q1": "$-16 to $16", "Q2": "$-32 to $32", "Q3": "The cost for clicking on nodes varied between nodes.", "Q4": "Very motivated"}, "question_order": [0, 1, 2, 3, 4], "trial_id": "final_quiz_control", "trial_type": "survey-multi-choice", "trial_index": 55, "time_elapsed": 1731326, "internal_node_id": "0.0-4.0-2.0"}}, {"uniqueid": "w22003944:a69587937", "current_trial": 56, "dateTime": 1691144011386, "trialdata": {"rt": 96806, "response": {"Q0": "At first I did not utilize the inspector however after using it. It was quite accurate with regards to what route to use.", "Q1": "Yes i did. I used the inspector", "Q2": "It was quite difficult as it nodes kept changes based on values."}, "trial_id": "self_report_control", "trial_type": "survey-text", "trial_index": 56, "time_elapsed": 1828145, "internal_node_id": "0.0-4.0-3.0"}}, {"uniqueid": "w22003944:a69587937", "current_trial": 57, "dateTime": 1691144059331, "trialdata": {"rt": 47939, "response": {"Q0": "Agree", "Q1": "Strongly disagree", "Q2": "Agree", "Q3": "Agree", "Q4": "Neither disagree nor agree", "Q5": "Agree", "Q6": "Neither disagree nor agree"}, "question_order": [0, 1, 2, 3, 4, 5, 6], "trial_id": "self_report_2", "trial_type": "survey-multi-choice", "trial_index": 57, "time_elapsed": 1876090, "internal_node_id": "0.0-4.0-4.0"}}, {"uniqueid": "w22003944:a69587937", "current_trial": 58, "dateTime": 1691144073738, "trialdata": {"rt": 14397, "response": {"gender": "female", "age": "28", "colorblind": "0", "effort": "0"}, "trial_type": "survey-html-form", "trial_index": 58, "time_elapsed": 1890497, "internal_node_id": "0.0-4.0-5.0"}}, {"uniqueid": "w22003944:a69587937", "current_trial": 59, "dateTime": 1691144101398, "trialdata": {"rt": 27653, "response": {"Q0": "Only at first however it got better.", "Q1": "No I have not", "Q2": ""}, "trial_type": "survey-text", "trial_index": 59, "time_elapsed": 1918157, "internal_node_id": "0.0-4.0-6.0"}}, {"uniqueid": "w22003944:a69587937", "current_trial": 60, "dateTime": 1691144107666, "trialdata": {"rt": 6260, "stimulus": "Press 'Finish HIT' in order to reach the completion code. Once the data has been saved, you will receive the code either in this window or in the original browser window where you started the experiment.\n", "response": 0, "trial_type": "html-button-response", "trial_index": 60, "time_elapsed": 1924425, "internal_node_id": "0.0-5.0"}}, {"uniqueid": "w22003944:a69587937", "current_trial": 61, "dateTime": 1691144108670, "trialdata": {"success": true, "trial_type": "fullscreen", "trial_index": 61, "time_elapsed": 1925429, "internal_node_id": "0.0-6.0"}}], "questiondata": {"params": {"CODE": "C6DMOQA6", "MIN_TIME": 14, "inspectCost": 1, "startTime": "Fri Aug 04 2023 11:42:59 GMT+0200 (South Africa Standard Time)", "bonusRate": 0.002, "variance": "1_2_4_8_44", "branching": "31123"}, "final_score": 239.85}, "eventdata": [{"eventtype": "initialized", "value": null, "timestamp": 1691142178739, "interval": 0}, {"eventtype": "window_resize", "value": [1366, 662], "timestamp": 1691142178740, "interval": 1}, {"eventtype": "window_resize", "value": [1366, 662], "timestamp": 1691142179247, "interval": 507}, {"eventtype": "window_resize", "value": [1366, 768], "timestamp": 1691142186829, "interval": 7582}, {"eventtype": "focus", "value": "off", "timestamp": 1691142809630, "interval": 622801}, {"eventtype": "focus", "value": "on", "timestamp": 1691142809630, "interval": 0}, {"eventtype": "window_resize", "value": [1366, 662], "timestamp": 1691142809849, "interval": 219}, {"eventtype": "window_resize", "value": [1366, 768], "timestamp": 1691142811955, "interval": 2106}, {"eventtype": "window_resize", "value": [1366, 662], "timestamp": 1691144107928, "interval": 1295973}], "useragent": "Mozilla/5.0 (Windows NT 10.0; Win64; x64) AppleWebKit/537.36 (KHTML, like Gecko) Chrome/115.0.0.0 Safari/537.36", "mode": "live", "id": "w22003944:a69587937", "status": "user data saved", "Beginhit": "2023-08-04 09:42:51.860037", "Beginexp": "2023-08-04 09:43:07.840424", "Endhit": "2023-08-04 10:15:10.617586", "psiturkStatus": 3, "browser": "<redacted>", "platform": "windows", "language": "en-US"}