{"condition": 1, "counterbalance": 0, "assignmentId": "a30611270", "workerId": "w48183023", "hitId": "h39365541", "currenttrial": 56, "bonus": 0, "data": [{"uniqueid": "w48183023:a30611270", "current_trial": 0, "dateTime": 1691159443409, "trialdata": {"success": true, "trial_type": "fullscreen", "trial_index": 0, "time_elapsed": 5477, "internal_node_id": "0.0-0.0"}}, {"uniqueid": "w48183023:a30611270", "current_trial": 1, "dateTime": 1691159488794, "trialdata": {"view_history": [{"page_index": 0, "viewing_time": 45375}], "rt": 45375, "trial_id": "exp_instructions_misaligned", "trial_type": "instructions", "trial_index": 1, "time_elapsed": 50863, "internal_node_id": "0.0-1.0"}}, {"uniqueid": "w48183023:a30611270", "current_trial": 2, "dateTime": 1691159492712, "trialdata": {"success": true, "trial_type": "fullscreen", "trial_index": 2, "time_elapsed": 54780, "internal_node_id": "0.0-2.0-0.0"}}, {"uniqueid": "w48183023:a30611270", "current_trial": 3, "dateTime": 1691159700410, "trialdata": {"view_history": [{"page_index": 0, "viewing_time": 66443}, {"page_index": 1, "viewing_time": 55540}, {"page_index": 2, "viewing_time": 48920}, {"page_index": 3, "viewing_time": 36792}], "rt": 207695, "trial_id": "mouselab_instructions_1_misaligned", "trial_type": "instructions", "trial_index": 3, "time_elapsed": 262479, "internal_node_id": "0.0-2.0-1.0"}}, {"uniqueid": "w48183023:a30611270", "current_trial": 4, "dateTime": 1691159735024, "trialdata": {"revealed_states": [], "clicked_states": ["1", "12"], "num_clicks_accrued": [0, 0, 0, 0, 0, 0, 0, 0, 0, 0, 0, 0, 0], "stateRewards": ["", -10, 10, 10, 10, 10, -10, -10, -10, -10, -10, 10, -10, 10, 10, -10, 10, -10, -10, -10, -10, -10, -10, -10, 10, -10, -10, 10, 10, 10, -10, -10, -10, -10], "withholdReward": false, "trial_id": "practice_1", "block": "test", "trialIndex": 0, "score": -27.5, "costs": -1, "simulationMode": [null, null, null, null, null], "rewards": [-10, 10, -10, -10, -10], "path": ["0", "0", "23", "24", "25", "30", "33"], "rt": [6022, 4994, 8778, 5001, 922], "actions": ["left", "left", "left", "down", "left"], "actionTimes": [9326, 14827, 24116, 29643, 31092], "queries": {"click": {"state": {"target": ["1", "12"], "time": [6037, 7630]}, "edge": {"target": [], "time": []}}, "mouseover": {"state": {"target": ["1", "12", "0", "23"], "time": [5755, 7155, 8187, 8220]}, "edge": {"target": [], "time": []}}, "mouseout": {"state": {"target": ["23", "3", "0", "1", "12", "0", "23", "24", "28", "24", "25", "26", "25", "30", "30", "32"], "time": [535, 1155, 2818, 6969, 8170, 8203, 10305, 12649, 13121, 16118, 20555, 21440, 25615, 30507, 30812, 32367]}, "edge": {"target": [], "time": []}}}, "displayed_time": "31.60", "trialTime": 34213, "trial_type": "mouselab-mdp", "trial_index": 4, "time_elapsed": 297092, "internal_node_id": "0.0-2.0-2.0-0.0"}}, {"uniqueid": "w48183023:a30611270", "current_trial": 5, "dateTime": 1691159773671, "trialdata": {"revealed_states": [], "clicked_states": ["12", "23", "1", "25", "24", "26", "30", "2", "8", "4", "13", "14", "15", "19"], "num_clicks_accrued": [0, 0, 0, 0, 0, 0, 0, 0, 0, 0, 0, 0, 0], "stateRewards": ["", -10, 10, -10, -10, 10, 10, 10, 10, -10, -10, -10, -10, -10, 10, -10, -10, -10, -10, -10, -10, 10, 10, 10, 10, -10, -10, 10, 10, -10, 10, 10, -10, 10], "withholdReward": false, "trial_id": "practice_2", "block": "test", "trialIndex": 1, "score": -13.5, "costs": -7, "simulationMode": [null, null, null, null, null], "rewards": [-10, 10, -10, 10, -10], "path": ["0", "0", "1", "2", "3", "8", "9"], "rt": [28749, 459, 382, 370, 1193], "actions": ["up", "up", "up", "left", "up"], "actionTimes": [30819, 31791, 32667, 33545, 35248], "queries": {"click": {"state": {"target": ["12", "23", "1", "25", "24", "26", "30", "2", "8", "4", "13", "14", "15", "19"], "time": [3569, 5501, 6595, 7972, 11004, 12621, 13717, 15798, 16922, 18511, 22328, 24368, 26118, 27615]}, "edge": {"target": [], "time": []}}, "mouseover": {"state": {"target": ["1", "12", "23", "1", "24", "25", "26", "24", "26", "25", "30", "31", "12", "1", "2", "3", "8", "3", "4", "4", "18", "18", "15", "18", "3", "13", "14", "13", "14", "14", "15", "15", "14", "15", "15", "19", "22", "1", "2", "3", "2"], "time": [2563, 3285, 4340, 6083, 7450, 7683, 9348, 10468, 11706, 13122, 13155, 14523, 14827, 14973, 15674, 16252, 16753, 17269, 17306, 17653, 19164, 19798, 19916, 20113, 20517, 21415, 21478, 22061, 22800, 23268, 23685, 23906, 24187, 24668, 25953, 26569, 28162, 28413, 29184, 29340, 30799]}, "edge": {"target": [], "time": []}}, "mouseout": {"state": {"target": ["0", "1", "12", "23", "1", "24", "25", "26", "24", "26", "25", "30", "31", "12", "1", "2", "3", "8", "3", "4", "4", "18", "18", "15", "18", "3", "13", "14", "13", "14", "14", "15", "15", "14", "15", "15", "15", "14", "19", "22", "1", "2", "3", "2", "1", "18"], "time": [2414, 3052, 3629, 5918, 7335, 7619, 8994, 10353, 11406, 13089, 13139, 13801, 14539, 14874, 15473, 16169, 16502, 17253, 17303, 17336, 18996, 19213, 19847, 20068, 20200, 20770, 21446, 21667, 22767, 23117, 23300, 23701, 24089, 24452, 25689, 26128, 26470, 26519, 28129, 28213, 28463, 29251, 30679, 30818, 36121, 36250]}, "edge": {"target": [], "time": []}}}, "displayed_time": "35.76", "trialTime": 38480, "trial_type": "mouselab-mdp", "trial_index": 5, "time_elapsed": 335739, "internal_node_id": "0.0-2.0-2.0-1.0"}}, {"uniqueid": "w48183023:a30611270", "current_trial": 6, "dateTime": 1691159786134, "trialdata": {"view_history": [{"page_index": 0, "viewing_time": 9388}, {"page_index": 1, "viewing_time": 3067}], "rt": 12456, "trial_id": "mouselab_instructions_2_misaligned", "trial_type": "instructions", "trial_index": 6, "time_elapsed": 348203, "internal_node_id": "0.0-2.0-3.0"}}, {"uniqueid": "w48183023:a30611270", "current_trial": 7, "dateTime": 1691159815236, "trialdata": {"rt": 29095, "response": {"Q0": "The cost for clicking on nodes may vary between nodes.", "Q1": "The better I perform the higher my bonus will be.", "Q2": "No, the amount of cash at each node of the web may be different each time.", "Q3": "To get the highest total score.", "Q4": "Only before moving the spider.", "Q5": "3 seconds"}, "question_order": [0, 1, 2, 3, 4, 5], "correct": {"Q0": "The cost for clicking on nodes may vary between nodes.", "Q1": "The better I perform the higher my bonus will be.", "Q2": "No, the amount of cash at each node of the web may be different each time.", "Q3": "To get the highest total score.", "Q4": "Only before moving the spider.", "Q5": "3 seconds"}, "trial_id": "mouselab_quiz_misaligned", "trial_type": "survey-multi-choice", "trial_index": 7, "time_elapsed": 377305, "internal_node_id": "0.0-2.0-4.0"}}, {"uniqueid": "w48183023:a30611270", "current_trial": 8, "dateTime": 1691159818636, "trialdata": {"rt": 3390, "stimulus": "\n<h1> Get ready to start the game! </h1>\n\nThank you for reading the instructions. Get ready start with the 40 rounds of this game.\n<br><br>\nIf you need to take a break, feel free to take one after the end of a round, before continuing to the next one.\n<br><br>\nRemember, the more money the spider gets, the bigger your bonus will be!\n<br><br>\n<div style='text-align: center;'>Press <code>space</code> to begin.</div>\n\n<br><br>\n(If, at any point, the <code>space</code> key does not take you to the next page, click once on the text and try again.)", "response": " ", "trial_id": "mdp_ready", "trial_type": "html-keyboard-response", "trial_index": 8, "time_elapsed": 380705, "internal_node_id": "0.0-4.0-0.0"}}, {"uniqueid": "w48183023:a30611270", "current_trial": 9, "dateTime": 1691159853912, "trialdata": {"revealed_states": [], "clicked_states": ["1", "2", "3", "4", "8", "6", "5", "7", "12", "13", "14", "19", "21"], "num_clicks_accrued": [0, 0, 0, 0, 0, 0, 0, 0, 0, 0, 0, 0, 0], "stateRewards": ["", 2, 3, -3, 12, -43, 81, -82, -15, 58, -7, -75, -1, -1, 3, -5, 50, -25, -8, 4, 66, 65, -66, 2, -4, 2, -1, -10, 10, 37, 11, 88, -37, 8], "withholdReward": false, "trial_id": "mdp_trial_1", "block": "test", "trialIndex": 2, "score": 54.65, "costs": -15.35, "simulationMode": [null, null, null, null, null], "rewards": [-1, -1, 3, 4, 65], "path": ["0", "0", "12", "13", "14", "19", "21"], "rt": [26151, 536, 304, 759, 474], "actions": ["right", "right", "right", "down", "down"], "actionTimes": [27708, 28735, 29550, 30823, 31807], "queries": {"click": {"state": {"target": ["1", "2", "3", "4", "8", "6", "5", "7", "12", "13", "14", "19", "21"], "time": [2235, 3112, 3760, 4331, 6640, 7575, 10598, 13847, 16881, 18131, 18851, 20240, 21876]}, "edge": {"target": [], "time": []}}, "mouseover": {"state": {"target": ["1", "2", "3", "4", "8", "6", "5", "4", "5", "4", "7", "13", "14", "13", "12", "13", "14", "19", "15", "21", "22", "12"], "time": [1967, 2803, 3569, 4186, 5370, 7338, 7953, 8985, 9318, 10961, 11294, 14272, 14538, 15056, 15256, 17458, 18623, 19356, 20862, 21511, 22278, 26630]}, "edge": {"target": [], "time": []}}, "mouseout": {"state": {"target": ["13", "4", "5", "3", "2", "1", "0", "1", "2", "3", "4", "4", "3", "8", "4", "6", "5", "4", "5", "4", "7", "13", "14", "13", "12", "13", "14", "19", "14", "15", "14", "19", "21", "22"], "time": [13, 230, 280, 815, 829, 862, 1901, 2738, 3487, 4120, 4670, 4820, 5003, 6707, 7267, 7719, 8851, 9285, 10911, 10994, 14105, 14405, 14905, 15173, 17258, 18573, 19322, 20761, 20828, 21361, 21417, 21477, 22129, 26141]}, "edge": {"target": [], "time": []}}}, "displayed_time": "32.30", "trialTime": 35078, "trial_type": "mouselab-mdp", "trial_index": 9, "time_elapsed": 415979, "internal_node_id": "0.0-4.0-1.0-0.0"}}, {"uniqueid": "w48183023:a30611270", "current_trial": 10, "dateTime": 1691159922888, "trialdata": {"revealed_states": [], "clicked_states": ["23", "24", "25", "26", "27", "28", "32", "33", "10", "11", "9", "5", "6", "7", "18", "16", "17", "20", "21", "22"], "num_clicks_accrued": [0, 0, 0, 0, 0, 0, 0, 0, 0, 0, 0, 0, 0], "stateRewards": ["", 2, 4, 7, -6, -76, -81, 2, 5, -66, -3, 36, -2, -4, 6, -2, -69, 4, -49, -6, 67, 38, -67, 2, 1, 1, 6, -68, -21, 52, -16, -16, 6, -70], "withholdReward": false, "trial_id": "mdp_trial_2", "block": "test", "trialIndex": 3, "score": 24.000000000000007, "costs": -36.99999999999999, "simulationMode": [null, null, null, null, null], "rewards": [-2, -4, 6, -6, 67], "path": ["0", "0", "12", "13", "14", "19", "20"], "rt": [58044, 163, 161, 936, 241], "actions": ["right", "right", "right", "down", "right"], "actionTimes": [61952, 62623, 63293, 64726, 65463], "queries": {"click": {"state": {"target": ["23", "24", "25", "26", "27", "28", "32", "33", "10", "11", "9", "5", "6", "7", "18", "16", "17", "20", "21", "22"], "time": [5581, 6402, 7537, 8165, 9097, 12610, 15893, 19148, 22881, 26047, 29173, 32337, 35456, 38593, 42540, 45693, 48828, 52148, 55073, 58482]}, "edge": {"target": [], "time": []}}, "mouseover": {"state": {"target": ["23", "1", "23", "24", "25", "26", "27", "28", "32", "33", "30", "31", "8", "9", "3", "8", "10", "11", "9", "5", "6", "7", "16", "16", "18", "16", "16", "17", "20", "21", "22", "19", "20"], "time": [4424, 4858, 5238, 5871, 6905, 7939, 8505, 9674, 13314, 16524, 19472, 19772, 20505, 20524, 21189, 22050, 22628, 23507, 26452, 29754, 32744, 35981, 38950, 39316, 40683, 42881, 43297, 46267, 49349, 52423, 55990, 59062, 59812]}, "edge": {"target": [], "time": []}}, "mouseout": {"state": {"target": ["12", "23", "1", "23", "24", "25", "26", "27", "28", "32", "33", "30", "31", "8", "9", "3", "8", "10", "11", "9", "5", "6", "7", "16", "16", "18", "16", "16", "17", "20", "21", "22", "19", "20"], "time": [702, 4793, 5077, 5838, 6855, 7855, 8406, 9556, 12831, 16408, 19455, 19522, 20423, 20522, 20556, 21607, 22523, 23356, 26335, 29488, 32660, 35714, 38867, 38967, 40585, 42765, 42932, 45950, 49048, 52372, 55557, 58795, 59163, 59862]}, "edge": {"target": [], "time": []}}}, "displayed_time": "65.96", "trialTime": 68790, "trial_type": "mouselab-mdp", "trial_index": 10, "time_elapsed": 484955, "internal_node_id": "0.0-4.0-1.0-1.0"}}, {"uniqueid": "w48183023:a30611270", "current_trial": 11, "dateTime": 1691159942782, "trialdata": {"revealed_states": [], "clicked_states": ["20", "21"], "num_clicks_accrued": [0, 0, 0, 0, 0, 0, 0, 0, 0, 0, 0, 0, 0], "stateRewards": ["", 1, 2, 8, -2, 23, -69, -18, -16, 54, -21, 71, -1, -4, 7, 11, 43, -6, 88, 6, -55, 72, 43, 1, -3, -2, -1, 68, -31, -54, 4, -8, 25, -2], "withholdReward": false, "trial_id": "mdp_trial_3", "block": "test", "trialIndex": 4, "score": 75.7, "costs": -4.3, "simulationMode": [null, null, null, null, null], "rewards": [-1, -4, 7, 6, 72], "path": ["0", "0", "12", "13", "14", "19", "21"], "rt": [9761, 154, 135, 462, 195], "actions": ["right", "right", "right", "down", "down"], "actionTimes": [12922, 13583, 14215, 15174, 15878], "queries": {"click": {"state": {"target": ["20", "21"], "time": [4363, 7708]}, "edge": {"target": [], "time": []}}, "mouseover": {"state": {"target": ["12", "19", "20", "21", "13", "13", "22"], "time": [3639, 3702, 4025, 5020, 8081, 8432, 8699]}, "edge": {"target": [], "time": []}}, "mouseout": {"state": {"target": ["3", "31", "23", "0", "12", "19", "20", "21", "13", "13", "22"], "time": [2207, 2552, 2688, 3626, 3653, 3769, 4771, 8032, 8098, 8649, 12063]}, "edge": {"target": [], "time": []}}}, "displayed_time": "17.16", "trialTime": 19710, "trial_type": "mouselab-mdp", "trial_index": 11, "time_elapsed": 504850, "internal_node_id": "0.0-4.0-1.0-2.0"}}, {"uniqueid": "w48183023:a30611270", "current_trial": 12, "dateTime": 1691159973783, "trialdata": {"revealed_states": [], "clicked_states": ["22", "21", "20", "17", "16"], "num_clicks_accrued": [0, 0, 0, 0, 0, 0, 0, 0, 0, 0, 0, 0, 0], "stateRewards": ["", 1, -4, 6, -3, 40, 76, -51, 5, -24, -63, 44, -2, -2, 8, 1, 76, -85, -58, 10, 59, 20, 11, -2, 3, -3, 3, -82, -10, 54, -7, -57, -6, -32], "withholdReward": false, "trial_id": "mdp_trial_4", "block": "test", "trialIndex": 5, "score": 70.25, "costs": -10.75, "simulationMode": [null, null, null, null, null], "rewards": [-2, -2, 8, 1, 76], "path": ["0", "0", "12", "13", "14", "15", "16"], "rt": [20934, 42, 101, 318, 87], "actions": ["right", "right", "right", "up", "up"], "actionTimes": [25770, 26305, 26899, 27749, 28347], "queries": {"click": {"state": {"target": ["22", "21", "20", "17", "16"], "time": [6039, 9816, 13168, 17645, 21090]}, "edge": {"target": [], "time": []}}, "mouseover": {"state": {"target": ["12", "19", "21", "22", "21", "20", "19", "23", "24", "26", "28", "13", "14", "17", "16", "17", "16", "18"], "time": [5169, 5218, 5557, 5820, 9586, 10718, 13409, 13558, 13591, 13708, 14275, 14375, 14409, 15142, 15742, 16779, 18351, 23015]}, "edge": {"target": [], "time": []}}, "mouseout": {"state": {"target": ["20", "13", "12", "0", "12", "19", "21", "22", "21", "20", "19", "23", "24", "26", "28", "13", "14", "17", "16", "17", "16", "16", "18"], "time": [1808, 4129, 4144, 5152, 5185, 5234, 5584, 6689, 10267, 13392, 13474, 13575, 13625, 14225, 14308, 14392, 14441, 15209, 15993, 18151, 21138, 21566, 29883]}, "edge": {"target": [], "time": []}}}, "displayed_time": "28.84", "trialTime": 30739, "trial_type": "mouselab-mdp", "trial_index": 12, "time_elapsed": 535851, "internal_node_id": "0.0-4.0-1.0-3.0"}}, {"uniqueid": "w48183023:a30611270", "current_trial": 13, "dateTime": 1691159994014, "trialdata": {"revealed_states": [], "clicked_states": ["18", "16", "17"], "num_clicks_accrued": [0, 0, 0, 0, 0, 0, 0, 0, 0, 0, 0, 0, 0], "stateRewards": ["", -1, -3, -6, 14, 41, 18, 63, -14, 80, 21, 17, -2, -4, -2, -5, 13, 70, 8, -4, -64, -10, -20, 2, -1, 4, -1, -17, -55, 42, -7, 47, 54, 15], "withholdReward": false, "trial_id": "mdp_trial_5", "block": "test", "trialIndex": 6, "score": 50.55, "costs": -6.449999999999999, "simulationMode": [null, null, null, null, null], "rewards": [-2, -4, -2, -5, 70], "path": ["0", "0", "12", "13", "14", "15", "17"], "rt": [13831, 80, 161, 149, 77], "actions": ["right", "right", "right", "up", "right"], "actionTimes": [15411, 16001, 16665, 17337, 17921], "queries": {"click": {"state": {"target": ["18", "16", "17"], "time": [4060, 7555, 10807]}, "edge": {"target": [], "time": []}}, "mouseover": {"state": {"target": ["1", "1", "18", "15", "18", "16", "17"], "time": [1983, 2372, 3289, 3318, 3642, 5733, 7977]}, "edge": {"target": [], "time": []}}, "mouseout": {"state": {"target": ["0", "1", "1", "18", "15", "18", "16", "16", "17", "17"], "time": [953, 2000, 3239, 3303, 3610, 4798, 7588, 7894, 11231, 18950]}, "edge": {"target": [], "time": []}}}, "displayed_time": "18.43", "trialTime": 20016, "trial_type": "mouselab-mdp", "trial_index": 13, "time_elapsed": 556082, "internal_node_id": "0.0-4.0-1.0-4.0"}}, {"uniqueid": "w48183023:a30611270", "current_trial": 14, "dateTime": 1691160014463, "trialdata": {"revealed_states": [], "clicked_states": ["7", "6", "5"], "num_clicks_accrued": [0, 0, 0, 0, 0, 0, 0, 0, 0, 0, 0, 0, 0], "stateRewards": ["", -2, 2, 3, -7, 76, 63, 21, 15, 35, -8, -44, 1, 1, -2, -12, 23, 24, 76, -9, 46, 66, -49, -2, -1, 7, 12, 40, -71, -45, -6, 38, -49, 46], "withholdReward": false, "trial_id": "mdp_trial_6", "block": "test", "trialIndex": 7, "score": 65.55, "costs": -6.449999999999999, "simulationMode": [null, null, null, null, null], "rewards": [-2, 2, 3, -7, 76], "path": ["0", "0", "1", "2", "3", "4", "5"], "rt": [14260, 2, 71, 72, 72], "actions": ["up", "up", "up", "right", "up"], "actionTimes": [15872, 16372, 16957, 17524, 18124], "queries": {"click": {"state": {"target": ["7", "6", "5"], "time": [3214, 6548, 11044]}, "edge": {"target": [], "time": []}}, "mouseover": {"state": {"target": ["0", "7", "6", "5"], "time": [2124, 2931, 3805, 6933]}, "edge": {"target": [], "time": []}}, "mouseout": {"state": {"target": ["15", "0", "0", "7", "6", "5", "5"], "time": [758, 1357, 2198, 3721, 6833, 12869, 14460]}, "edge": {"target": [], "time": []}}}, "displayed_time": "18.62", "trialTime": 20237, "trial_type": "mouselab-mdp", "trial_index": 14, "time_elapsed": 576530, "internal_node_id": "0.0-4.0-1.0-5.0"}}, {"uniqueid": "w48183023:a30611270", "current_trial": 15, "dateTime": 1691160033096, "trialdata": {"revealed_states": [], "clicked_states": [], "num_clicks_accrued": [0, 0, 0, 0, 0, 0, 0, 0, 0, 0, 0, 0, 0], "stateRewards": ["", 1, 4, 5, -5, 58, -80, 75, 6, 25, -39, 46, 2, -2, 4, 2, 59, 31, -22, -12, -61, 15, 72, 1, -2, -7, 8, 77, 76, -23, -7, 71, -15, -3], "withholdReward": false, "trial_id": "mdp_trial_7", "block": "test", "trialIndex": 8, "score": 41, "costs": 0, "simulationMode": [null, null, null, null, null], "rewards": [1, 4, 5, 6, 25], "path": ["0", "0", "1", "2", "3", "8", "9"], "rt": [8793, 105, 106, 553, 136], "actions": ["up", "up", "up", "left", "up"], "actionTimes": [10766, 11382, 11985, 13030, 13677], "queries": {"click": {"state": {"target": [], "time": []}, "edge": {"target": [], "time": []}}, "mouseover": {"state": {"target": ["1", "2", "3", "4", "7", "6", "9", "8", "10", "1", "0", "10", "8", "9", "5"], "time": [2710, 2772, 2839, 3093, 3343, 3962, 4625, 6504, 6536, 6570, 6940, 7173, 7310, 8999, 9801]}, "edge": {"target": [], "time": []}}, "mouseout": {"state": {"target": ["15", "18", "18", "0", "1", "2", "3", "4", "7", "6", "9", "8", "10", "1", "0", "10", "8", "9", "5"], "time": [656, 923, 1035, 2513, 2757, 2822, 2872, 3209, 3844, 4492, 6491, 6520, 6553, 6586, 6971, 7222, 7339, 9773, 9817]}, "edge": {"target": [], "time": []}}}, "displayed_time": "15.98", "trialTime": 18430, "trial_type": "mouselab-mdp", "trial_index": 15, "time_elapsed": 595163, "internal_node_id": "0.0-4.0-1.0-6.0"}}, {"uniqueid": "w48183023:a30611270", "current_trial": 16, "dateTime": 1691160062590, "trialdata": {"revealed_states": [], "clicked_states": ["5", "9", "11", "10", "7", "6"], "num_clicks_accrued": [0, 0, 0, 0, 0, 0, 0, 0, 0, 0, 0, 0, 0], "stateRewards": ["", -2, -4, -8, 8, 63, -50, -19, -7, -17, -31, 31, 1, 3, -5, 12, -35, -63, -29, -4, -17, -75, -79, -2, -3, -2, 8, -3, -85, 10, -2, -82, -82, 56], "withholdReward": false, "trial_id": "mdp_trial_8", "block": "test", "trialIndex": 9, "score": 44.1, "costs": -12.9, "simulationMode": [null, null, null, null, null], "rewards": [-2, -4, -8, 8, 63], "path": ["0", "0", "1", "2", "3", "4", "5"], "rt": [21246, 504, 337, 78, 194], "actions": ["up", "up", "up", "right", "up"], "actionTimes": [22933, 23946, 24794, 25385, 26082], "queries": {"click": {"state": {"target": ["5", "9", "11", "10", "7", "6"], "time": [2817, 6489, 9755, 13050, 16369, 19691]}, "edge": {"target": [], "time": []}}, "mouseover": {"state": {"target": ["7", "5", "5", "9", "8", "11", "10", "2", "7", "2", "7", "6", "4", "4"], "time": [2074, 2339, 2607, 3658, 7528, 7844, 10230, 13292, 13358, 13792, 14176, 16708, 19944, 20528]}, "edge": {"target": [], "time": []}}, "mouseout": {"state": {"target": ["31", "10", "2", "1", "0", "7", "5", "5", "9", "9", "8", "11", "10", "2", "7", "2", "7", "6", "4", "4"], "time": [930, 1100, 1184, 1232, 1979, 2109, 2473, 3343, 6518, 6961, 7628, 9996, 13259, 13325, 13609, 14092, 16558, 19928, 19978, 20561]}, "edge": {"target": [], "time": []}}}, "displayed_time": "26.59", "trialTime": 29281, "trial_type": "mouselab-mdp", "trial_index": 16, "time_elapsed": 624658, "internal_node_id": "0.0-4.0-1.0-7.0"}}, {"uniqueid": "w48183023:a30611270", "current_trial": 17, "dateTime": 1691160125821, "trialdata": {"revealed_states": [], "clicked_states": ["9", "11", "10", "28", "27", "29", "33", "32", "31", "5", "7", "6", "18", "16"], "num_clicks_accrued": [0, 0, 0, 0, 0, 0, 0, 0, 0, 0, 0, 0, 0], "stateRewards": ["", -2, -4, -6, 12, -58, -70, -80, 2, 16, -88, -62, 1, 2, -5, 11, 77, -35, -44, -5, 18, -83, 87, 1, -3, -5, 13, -44, -21, -86, 10, -52, 8, 29], "withholdReward": false, "trial_id": "mdp_trial_9", "block": "test", "trialIndex": 10, "score": 55.900000000000006, "costs": -30.09999999999999, "simulationMode": [null, null, null, null, null], "rewards": [1, 2, -5, 11, 77], "path": ["0", "0", "12", "13", "14", "15", "16"], "rt": [55859, 32, 143, 242, 635], "actions": ["right", "right", "right", "up", "up"], "actionTimes": [57923, 58464, 59107, 59857, 60985], "queries": {"click": {"state": {"target": ["9", "11", "10", "28", "27", "29", "33", "32", "31", "5", "7", "6", "18", "16"], "time": [3899, 7496, 10775, 14130, 17433, 20940, 24213, 27518, 30789, 36528, 40545, 43859, 49083, 52315]}, "edge": {"target": [], "time": []}}, "mouseover": {"state": {"target": ["1", "10", "8", "9", "11", "10", "28", "27", "29", "33", "32", "31", "31", "23", "1", "1", "2", "10", "8", "9", "3", "4", "5", "4", "18", "12", "7", "6", "15", "15", "18", "16", "17"], "time": [2727, 3059, 3258, 3669, 4517, 7830, 11604, 15084, 17971, 23213, 24600, 27775, 28259, 31214, 31564, 31815, 32365, 34554, 34887, 34931, 35810, 35946, 36112, 37077, 37277, 38994, 40313, 41020, 48046, 48227, 48801, 49524, 52604]}, "edge": {"target": [], "time": []}}, "mouseout": {"state": {"target": ["18", "12", "1", "10", "8", "9", "11", "10", "28", "27", "29", "33", "33", "32", "31", "31", "23", "1", "1", "2", "10", "8", "9", "3", "4", "5", "4", "18", "12", "7", "6", "15", "15", "18", "16", "16", "17"], "time": [950, 1001, 2811, 3125, 3392, 4384, 7730, 11412, 14751, 17754, 22663, 24225, 24450, 27693, 27893, 31080, 31265, 31614, 32148, 32481, 34615, 34900, 35748, 35843, 36081, 37028, 37115, 37394, 39952, 40921, 47896, 48059, 48276, 49374, 52377, 52572, 56373]}, "edge": {"target": [], "time": []}}}, "displayed_time": "61.49", "trialTime": 63016, "trial_type": "mouselab-mdp", "trial_index": 17, "time_elapsed": 687889, "internal_node_id": "0.0-4.0-1.0-8.0"}}, {"uniqueid": "w48183023:a30611270", "current_trial": 18, "dateTime": 1691160160600, "trialdata": {"revealed_states": [], "clicked_states": ["18", "16", "17", "20", "21", "22"], "num_clicks_accrued": [0, 0, 0, 0, 0, 0, 0, 0, 0, 0, 0, 0, 0], "stateRewards": ["", 2, -3, -2, 14, -4, 85, 46, 15, -28, 41, 31, -1, -1, -1, 5, 62, 79, 57, 12, -73, -64, 86, -1, 1, -3, -5, 68, 11, -32, 8, -80, -21, -56], "withholdReward": false, "trial_id": "mdp_trial_10", "block": "test", "trialIndex": 11, "score": 82.1, "costs": -12.9, "simulationMode": [null, null, null, null, null], "rewards": [-1, -1, -1, 12, 86], "path": ["0", "0", "12", "13", "14", "19", "22"], "rt": [27159, 155, 153, 225, 329], "actions": ["right", "right", "right", "down", "left"], "actionTimes": [29426, 30091, 30744, 31466, 32288], "queries": {"click": {"state": {"target": ["18", "16", "17", "20", "21", "22"], "time": [4652, 8442, 12943, 17750, 21046, 24322]}, "edge": {"target": [], "time": []}}, "mouseover": {"state": {"target": ["1", "1", "13", "14", "17", "15", "18", "13", "16", "17", "20", "21", "22"], "time": [2944, 3325, 3492, 3512, 3959, 4006, 4459, 5926, 7543, 9006, 14969, 18414, 21616]}, "edge": {"target": [], "time": []}}, "mouseout": {"state": {"target": ["20", "14", "13", "12", "0", "0", "1", "1", "13", "14", "17", "15", "18", "13", "16", "17", "20", "21", "22"], "time": [1165, 1378, 1545, 1561, 1662, 2675, 3124, 3357, 3509, 3556, 3973, 4110, 5891, 6441, 8940, 14486, 18348, 21281, 24446]}, "edge": {"target": [], "time": []}}}, "displayed_time": "32.80", "trialTime": 34560, "trial_type": "mouselab-mdp", "trial_index": 18, "time_elapsed": 722667, "internal_node_id": "0.0-4.0-1.0-9.0"}}, {"uniqueid": "w48183023:a30611270", "current_trial": 19, "dateTime": 1691160237007, "trialdata": {"revealed_states": [], "clicked_states": ["22", "21", "20", "17", "16", "18", "7", "6", "5", "9", "11", "10", "28", "27", "29", "33", "32", "31"], "num_clicks_accrued": [0, 0, 0, 0, 0, 0, 0, 0, 0, 0, 0, 0, 0], "stateRewards": ["", -2, 2, 3, -7, -31, -33, 29, -8, -57, 50, -83, -1, -1, 5, 13, -23, -62, 25, 5, -66, -85, 14, 1, -2, -1, 16, 71, 33, -19, -14, 5, -43, 79], "withholdReward": false, "trial_id": "mdp_trial_11", "block": "test", "trialIndex": 12, "score": 24.30000000000001, "costs": -38.69999999999999, "simulationMode": [null, null, null, null, null], "rewards": [1, -2, -1, -14, 79], "path": ["0", "0", "23", "24", "25", "30", "33"], "rt": [68383, 240, 258, 266, 176], "actions": ["left", "left", "left", "down", "left"], "actionTimes": [70937, 71683, 72435, 73195, 73883], "queries": {"click": {"state": {"target": ["22", "21", "20", "17", "16", "18", "7", "6", "5", "9", "11", "10", "28", "27", "29", "33", "32", "31"], "time": [4303, 7886, 11275, 14583, 17847, 21428, 25531, 29302, 32578, 35901, 39298, 42514, 47789, 51216, 56496, 59892, 64151, 67448]}, "edge": {"target": [], "time": []}}, "mouseover": {"state": {"target": ["23", "12", "19", "22", "14", "19", "21", "20", "14", "14", "17", "16", "18", "7", "4", "4", "7", "6", "5", "5", "9", "11", "10", "28", "24", "28", "27", "29", "26", "26", "29", "25", "33", "32", "32", "31", "22", "19", "20"], "time": [3147, 3431, 3729, 4015, 7062, 7439, 7621, 8884, 11538, 11705, 12456, 15522, 20795, 24914, 24964, 25172, 25246, 29071, 29639, 30271, 33731, 36487, 39888, 43271, 43354, 43705, 48643, 51891, 55196, 55826, 56125, 59342, 59592, 60404, 61805, 65323, 67918, 67937, 67953]}, "edge": {"target": [], "time": []}}, "mouseout": {"state": {"target": ["16", "18", "0", "23", "12", "19", "22", "14", "19", "21", "20", "14", "14", "17", "16", "16", "18", "7", "4", "4", "7", "6", "5", "5", "9", "11", "10", "28", "24", "28", "27", "29", "26", "26", "29", "25", "33", "32", "32", "31", "22", "19", "20"], "time": [1679, 1897, 2997, 3327, 3461, 3811, 5511, 7094, 7451, 8251, 11405, 11571, 12355, 15022, 17896, 20273, 24832, 24930, 25067, 25213, 27447, 29554, 29655, 33013, 36337, 39505, 43154, 43311, 43587, 48310, 51591, 54943, 55571, 56012, 58104, 59421, 60322, 61022, 64906, 67752, 67935, 67951, 67969]}, "edge": {"target": [], "time": []}}}, "displayed_time": "74.39", "trialTime": 76179, "trial_type": "mouselab-mdp", "trial_index": 19, "time_elapsed": 799074, "internal_node_id": "0.0-4.0-1.0-10.0"}}, {"uniqueid": "w48183023:a30611270", "current_trial": 20, "dateTime": 1691160285227, "trialdata": {"revealed_states": [], "clicked_states": ["31", "32", "33", "29", "27", "28", "10", "11", "9"], "num_clicks_accrued": [0, 0, 0, 0, 0, 0, 0, 0, 0, 0, 0, 0, 0], "stateRewards": ["", 2, -3, -5, 5, 11, -9, -33, 6, 67, 6, -30, -1, -2, -6, 13, 55, 13, 72, -14, 75, 21, -66, -2, -4, 6, 15, -1, -35, 60, 2, 51, -73, 12], "withholdReward": false, "trial_id": "mdp_trial_12", "block": "test", "trialIndex": 13, "score": 47.650000000000006, "costs": -19.349999999999998, "simulationMode": [null, null, null, null, null], "rewards": [2, -3, -5, 6, 67], "path": ["0", "0", "1", "2", "3", "8", "9"], "rt": [34621, 280, 179, 105, 129], "actions": ["up", "up", "up", "left", "up"], "actionTimes": [37738, 38526, 39216, 39832, 40457], "queries": {"click": {"state": {"target": ["31", "32", "33", "29", "27", "28", "10", "11", "9"], "time": [4619, 8162, 11955, 15751, 19022, 22417, 25935, 29117, 32507]}, "edge": {"target": [], "time": []}}, "mouseover": {"state": {"target": ["1", "23", "31", "32", "33", "29", "29", "27", "26", "28", "10", "11", "11", "9", "3", "5", "4"], "time": [3631, 4149, 4316, 5970, 8918, 13897, 15608, 18077, 21345, 22100, 25217, 26224, 26491, 29439, 32994, 33344, 36864]}, "edge": {"target": [], "time": []}}, "mouseout": {"state": {"target": ["33", "23", "0", "1", "23", "31", "31", "32", "33", "29", "29", "27", "26", "28", "10", "11", "11", "9", "3", "5", "4"], "time": [2306, 2740, 3532, 4052, 4196, 4660, 5354, 8667, 12263, 15264, 16443, 21262, 21361, 23034, 26157, 26240, 29341, 32827, 33228, 35875, 36879]}, "edge": {"target": [], "time": []}}}, "displayed_time": "40.96", "trialTime": 47999, "trial_type": "mouselab-mdp", "trial_index": 20, "time_elapsed": 847296, "internal_node_id": "0.0-4.0-1.0-11.0"}}, {"uniqueid": "w48183023:a30611270", "current_trial": 21, "dateTime": 1691160314847, "trialdata": {"revealed_states": [], "clicked_states": ["31", "32", "33", "29", "27", "28"], "num_clicks_accrued": [0, 0, 0, 0, 0, 0, 0, 0, 0, 0, 0, 0, 0], "stateRewards": ["", -2, -3, 1, -7, 39, -67, 16, 5, -20, 73, 66, -1, 4, 5, -3, 23, -68, -87, -8, 3, -3, 17, 1, -4, -2, -13, -32, 34, 61, -5, -11, -18, 12], "withholdReward": false, "trial_id": "mdp_trial_13", "block": "test", "trialIndex": 14, "score": 30.1, "costs": -12.9, "simulationMode": [null, null, null, null, null], "rewards": [1, -4, -2, -13, 61], "path": ["0", "0", "23", "24", "25", "26", "29"], "rt": [22545, 98, 351, 137, 39], "actions": ["left", "left", "left", "up", "left"], "actionTimes": [24612, 25218, 26074, 26722, 27256], "queries": {"click": {"state": {"target": ["31", "32", "33", "29", "27", "28"], "time": [3798, 7070, 10419, 13680, 16892, 20628]}, "edge": {"target": [], "time": []}}, "mouseover": {"state": {"target": ["24", "30", "32", "31", "32", "32", "33", "26", "26", "29", "27", "28", "26"], "time": [2766, 2829, 2913, 3567, 4569, 4901, 7828, 11406, 11824, 12257, 14164, 19465, 21055]}, "edge": {"target": [], "time": []}}, "mouseout": {"state": {"target": ["23", "1", "24", "30", "32", "31", "31", "32", "32", "33", "26", "26", "29", "27", "27", "28", "28", "26"], "time": [1482, 1631, 2796, 2862, 3249, 4108, 4518, 4618, 7428, 10906, 11439, 11940, 13998, 16938, 17216, 20678, 21039, 21910]}, "edge": {"target": [], "time": []}}}, "displayed_time": "27.75", "trialTime": 29394, "trial_type": "mouselab-mdp", "trial_index": 21, "time_elapsed": 876915, "internal_node_id": "0.0-4.0-1.0-12.0"}}, {"uniqueid": "w48183023:a30611270", "current_trial": 22, "dateTime": 1691160335503, "trialdata": {"revealed_states": [], "clicked_states": ["22"], "num_clicks_accrued": [0, 0, 0, 0, 0, 0, 0, 0, 0, 0, 0, 0, 0], "stateRewards": ["", -2, -1, -3, -1, -78, -6, 2, -1, 22, -88, 32, 2, 2, -7, -8, -51, -17, 54, 2, -44, 54, 75, 2, -2, -8, -15, -29, 12, -67, 15, -1, -47, -47], "withholdReward": false, "trial_id": "mdp_trial_14", "block": "test", "trialIndex": 15, "score": 71.85, "costs": -2.15, "simulationMode": [null, null, null, null, null], "rewards": [2, 2, -7, 2, 75], "path": ["0", "0", "12", "13", "14", "19", "22"], "rt": [7206, 174, 148, 233, 122], "actions": ["right", "right", "right", "down", "left"], "actionTimes": [11210, 11879, 12536, 13271, 13905], "queries": {"click": {"state": {"target": ["22"], "time": [6579]}, "edge": {"target": [], "time": []}}, "mouseover": {"state": {"target": ["18", "20", "19", "13", "1", "12", "22", "21", "22", "21", "21", "19", "20"], "time": [4622, 5067, 5133, 5300, 5366, 5434, 5684, 5967, 6350, 7034, 9988, 10133, 10337]}, "edge": {"target": [], "time": []}}, "mouseout": {"state": {"target": ["10", "0", "12", "18", "20", "19", "13", "1", "12", "22", "21", "22", "21", "21", "19", "20", "20", "19"], "time": [2465, 2815, 3532, 4667, 5116, 5249, 5316, 5404, 5449, 5768, 6286, 6934, 7051, 10069, 10324, 10368, 18504, 18889]}, "edge": {"target": [], "time": []}}}, "displayed_time": "18.01", "trialTime": 20406, "trial_type": "mouselab-mdp", "trial_index": 22, "time_elapsed": 897570, "internal_node_id": "0.0-4.0-1.0-13.0"}}, {"uniqueid": "w48183023:a30611270", "current_trial": 23, "dateTime": 1691160372238, "trialdata": {"revealed_states": [], "clicked_states": ["20", "21", "22", "17", "16", "18"], "num_clicks_accrued": [0, 0, 0, 0, 0, 0, 0, 0, 0, 0, 0, 0, 0], "stateRewards": ["", -2, 1, -7, -8, -37, -76, -87, 11, 30, -63, 80, -1, 4, 2, -1, 42, 17, 52, -3, -75, -80, -68, 2, -3, -5, -15, -48, 82, 24, -7, 5, -22, -71], "withholdReward": false, "trial_id": "mdp_trial_15", "block": "test", "trialIndex": 16, "score": 43.1, "costs": -12.9, "simulationMode": [null, null, null, null, null], "rewards": [-1, 4, 2, -1, 52], "path": ["0", "0", "12", "13", "14", "15", "18"], "rt": [28723, 177, 177, 113, 96], "actions": ["right", "right", "right", "up", "left"], "actionTimes": [30809, 31492, 32179, 32804, 33420], "queries": {"click": {"state": {"target": ["20", "21", "22", "17", "16", "18"], "time": [3156, 6756, 10242, 14079, 18104, 22065]}, "edge": {"target": [], "time": []}}, "mouseover": {"state": {"target": ["12", "19", "20", "21", "22", "19", "17", "16", "18", "18", "6", "6", "7"], "time": [2557, 2606, 2911, 5809, 9447, 13507, 13889, 17887, 19601, 21878, 24334, 25900, 27492]}, "edge": {"target": [], "time": []}}, "mouseout": {"state": {"target": ["22", "1", "0", "12", "19", "20", "21", "22", "19", "17", "17", "16", "18", "18", "6", "6", "7"], "time": [831, 1357, 2542, 2573, 2707, 3741, 9361, 12750, 13521, 14604, 16220, 19534, 19752, 23000, 24383, 27421, 29042]}, "edge": {"target": [], "time": []}}}, "displayed_time": "33.92", "trialTime": 36467, "trial_type": "mouselab-mdp", "trial_index": 23, "time_elapsed": 934306, "internal_node_id": "0.0-4.0-1.0-14.0"}}, {"uniqueid": "w48183023:a30611270", "current_trial": 24, "dateTime": 1691160390577, "trialdata": {"revealed_states": [], "clicked_states": ["20", "21"], "num_clicks_accrued": [0, 0, 0, 0, 0, 0, 0, 0, 0, 0, 0, 0, 0], "stateRewards": ["", -2, 2, 8, -6, -25, 3, 87, 2, -62, -2, 74, -2, -1, 2, -1, 79, 49, -37, -14, 5, 67, -9, -1, 2, -2, 5, 15, 38, 32, -14, -38, -38, 30], "withholdReward": false, "trial_id": "mdp_trial_16", "block": "test", "trialIndex": 17, "score": 47.7, "costs": -4.3, "simulationMode": [null, null, null, null, null], "rewards": [-2, -1, 2, -14, 67], "path": ["0", "0", "12", "13", "14", "19", "21"], "rt": [8371, 128, 103, 142, 117], "actions": ["right", "right", "right", "down", "down"], "actionTimes": [10191, 10829, 11453, 12092, 12701], "queries": {"click": {"state": {"target": ["20", "21"], "time": [2731, 5882]}, "edge": {"target": [], "time": []}}, "mouseover": {"state": {"target": ["18", "15", "20", "21", "22"], "time": [2184, 2212, 2448, 4447, 6252]}, "edge": {"target": [], "time": []}}, "mouseout": {"state": {"target": ["32", "30", "25", "31", "0", "18", "15", "20", "20", "21", "22"], "time": [795, 845, 982, 1062, 1480, 2196, 2364, 2778, 3546, 6186, 9754]}, "edge": {"target": [], "time": []}}}, "displayed_time": "15.82", "trialTime": 18086, "trial_type": "mouselab-mdp", "trial_index": 24, "time_elapsed": 952644, "internal_node_id": "0.0-4.0-1.0-15.0"}}, {"uniqueid": "w48183023:a30611270", "current_trial": 25, "dateTime": 1691160414858, "trialdata": {"revealed_states": [], "clicked_states": ["31", "32", "33"], "num_clicks_accrued": [0, 0, 0, 0, 0, 0, 0, 0, 0, 0, 0, 0, 0], "stateRewards": ["", -1, 2, -6, 6, -82, -19, -39, -16, -83, 11, -33, -2, -2, 4, -6, -82, -1, -19, -6, -10, -67, -41, -2, 1, -7, 16, -23, -78, -52, 14, 31, -71, 74], "withholdReward": false, "trial_id": "mdp_trial_17", "block": "test", "trialIndex": 18, "score": 73.55, "costs": -6.449999999999999, "simulationMode": [null, null, null, null, null], "rewards": [-2, 1, -7, 14, 74], "path": ["0", "0", "23", "24", "25", "30", "33"], "rt": [13661, 792, 229, 144, 201], "actions": ["left", "left", "left", "down", "left"], "actionTimes": [15647, 16949, 17670, 18326, 19038], "queries": {"click": {"state": {"target": ["31", "32", "33"], "time": [4066, 7862, 11154]}, "edge": {"target": [], "time": []}}, "mouseover": {"state": {"target": ["23", "31", "20", "19", "22", "31", "32", "33", "33", "25", "26", "29", "26", "23"], "time": [2540, 2675, 3292, 3309, 3324, 3844, 7632, 8552, 8869, 11492, 12241, 12642, 14724, 14756]}, "edge": {"target": [], "time": []}}, "mouseout": {"state": {"target": ["12", "0", "23", "31", "20", "19", "22", "31", "32", "33", "33", "25", "26", "29", "26", "23", "23", "0"], "time": [1434, 2472, 2588, 2726, 3306, 3322, 3339, 4673, 8384, 8652, 11198, 11559, 12258, 14711, 14739, 14773, 21542, 21691]}, "edge": {"target": [], "time": []}}}, "displayed_time": "19.55", "trialTime": 24000, "trial_type": "mouselab-mdp", "trial_index": 25, "time_elapsed": 976925, "internal_node_id": "0.0-4.0-1.0-16.0"}}, {"uniqueid": "w48183023:a30611270", "current_trial": 26, "dateTime": 1691160442290, "trialdata": {"revealed_states": [], "clicked_states": ["31", "32", "29", "27", "28"], "num_clicks_accrued": [0, 0, 0, 0, 0, 0, 0, 0, 0, 0, 0, 0, 0], "stateRewards": ["", -2, -1, -6, -14, -55, 78, -13, 11, 14, -71, 59, 2, 2, 6, -6, 9, 38, 14, 7, 85, 11, 68, 1, -4, -1, -3, -63, -85, 9, -2, 63, -86, -10], "withholdReward": false, "trial_id": "mdp_trial_18", "block": "test", "trialIndex": 19, "score": 46.25, "costs": -10.75, "simulationMode": [null, null, null, null, null], "rewards": [1, -4, -1, -2, 63], "path": ["0", "0", "23", "24", "25", "30", "31"], "rt": [20292, 21, 131, 143, 145], "actions": ["left", "left", "left", "down", "right"], "actionTimes": [22542, 23066, 23708, 24356, 25011], "queries": {"click": {"state": {"target": ["31", "32", "29", "27", "28"], "time": [3471, 6875, 11898, 15446, 18929]}, "edge": {"target": [], "time": []}}, "mouseover": {"state": {"target": ["23", "31", "31", "32", "32", "30", "25", "26", "26", "29", "28", "10", "2", "10", "27", "28", "15"], "time": [2689, 2908, 3223, 5023, 5256, 10328, 10361, 10686, 11112, 11663, 13410, 13444, 13480, 13711, 15092, 17141, 21491]}, "edge": {"target": [], "time": []}}, "mouseout": {"state": {"target": ["14", "13", "0", "23", "31", "31", "32", "32", "30", "25", "26", "26", "29", "28", "10", "2", "10", "27", "28", "15"], "time": [1248, 1281, 2674, 2705, 2959, 4723, 5108, 10299, 10345, 10393, 10779, 11304, 12527, 13427, 13463, 13661, 14444, 15825, 18996, 21508]}, "edge": {"target": [], "time": []}}}, "displayed_time": "25.52", "trialTime": 27170, "trial_type": "mouselab-mdp", "trial_index": 26, "time_elapsed": 1004359, "internal_node_id": "0.0-4.0-1.0-17.0"}}, {"uniqueid": "w48183023:a30611270", "current_trial": 27, "dateTime": 1691160464711, "trialdata": {"revealed_states": [], "clicked_states": ["22", "21", "20"], "num_clicks_accrued": [0, 0, 0, 0, 0, 0, 0, 0, 0, 0, 0, 0, 0], "stateRewards": ["", 1, -3, -1, 9, -34, -40, 22, -7, 45, 53, -11, 2, 4, 5, 15, 21, 37, -49, -3, 80, -28, -34, 1, -3, 1, 1, -40, -6, -5, -16, -85, -86, 59], "withholdReward": false, "trial_id": "mdp_trial_19", "block": "test", "trialIndex": 20, "score": 81.55, "costs": -6.449999999999999, "simulationMode": [null, null, null, null, null], "rewards": [2, 4, 5, -3, 80], "path": ["0", "0", "12", "13", "14", "19", "20"], "rt": [13596, 128, 240, 114, 212], "actions": ["right", "right", "right", "down", "right"], "actionTimes": [17343, 17978, 18722, 19339, 20051], "queries": {"click": {"state": {"target": ["22", "21", "20"], "time": [5143, 9513, 12808]}, "edge": {"target": [], "time": []}}, "mouseover": {"state": {"target": ["12", "22", "19", "22", "21", "21", "21", "20", "20", "17"], "time": [4169, 4201, 4219, 4922, 7453, 8416, 9287, 10186, 10786, 14732]}, "edge": {"target": [], "time": []}}, "mouseout": {"state": {"target": ["17", "1", "0", "12", "22", "19", "22", "21", "21", "21", "20", "20", "17"], "time": [2680, 2880, 4156, 4185, 4218, 4572, 7370, 7487, 8448, 9591, 10369, 14066, 16325]}, "edge": {"target": [], "time": []}}}, "displayed_time": "20.56", "trialTime": 22146, "trial_type": "mouselab-mdp", "trial_index": 27, "time_elapsed": 1026778, "internal_node_id": "0.0-4.0-1.0-18.0"}}, {"uniqueid": "w48183023:a30611270", "current_trial": 28, "dateTime": 1691160574615, "trialdata": {"revealed_states": [], "clicked_states": ["21", "22", "17", "16", "18", "7", "6", "5", "9", "11", "10", "28"], "num_clicks_accrued": [0, 0, 0, 0, 0, 0, 0, 0, 0, 0, 0, 0, 0], "stateRewards": ["", -1, 4, -6, -5, -22, -38, -38, -2, -56, 88, 14, -1, -1, -7, -6, 61, -60, 21, 11, 57, 31, -30, -2, -2, 6, -9, -44, -70, -44, -15, 34, 16, -78], "withholdReward": false, "trial_id": "mdp_trial_20", "block": "test", "trialIndex": 21, "score": 57.2, "costs": -25.799999999999994, "simulationMode": [null, null, null, null, null, null], "rewards": [-1, 4, -6, -2, 88], "path": ["0", "0", "1", "2", "3", "8", "10"], "rt": [44997, 1476, 132, 213, 118, 152], "actions": ["up", "up", "up", "up", "left", "down"], "actionTimes": [47162, 48641, 49281, 49994, 50626, 51275], "queries": {"click": {"state": {"target": ["21", "22", "17", "16", "18", "7", "6", "5", "9", "11", "10", "28"], "time": [4275, 7549, 11536, 14853, 18379, 22772, 26462, 30325, 34345, 38433, 41887, 44743]}, "edge": {"target": [], "time": []}}, "mouseover": {"state": {"target": ["0", "12", "13", "14", "20", "19", "21", "22", "22", "14", "17", "16", "15", "18", "16", "6", "7", "6", "6", "4", "5", "5", "4", "7", "16", "6", "9", "11", "10", "28"], "time": [2942, 2986, 3053, 3119, 3453, 3686, 4024, 4909, 6343, 10759, 11298, 14199, 15126, 18022, 21753, 22168, 22645, 24468, 25918, 29544, 29695, 30050, 30914, 31014, 31982, 32616, 34170, 36372, 39124, 44414]}, "edge": {"target": [], "time": []}}, "mouseout": {"state": {"target": ["17", "6", "0", "0", "12", "13", "14", "20", "19", "21", "22", "22", "14", "17", "16", "15", "18", "16", "6", "7", "7", "6", "6", "4", "5", "5", "4", "7", "16", "6", "9", "11", "11", "10", "28", "10", "9", "8", "3", "12"], "time": [845, 1128, 2254, 2970, 3020, 3102, 3169, 3669, 3771, 4726, 5044, 7592, 10774, 13166, 15061, 15209, 19656, 21768, 22356, 22875, 24284, 24652, 29092, 29610, 29775, 30865, 30964, 31048, 32199, 32632, 35672, 38512, 38924, 41970, 45281, 45764, 108224, 108454, 108590, 109009]}, "edge": {"target": [], "time": []}}}, "displayed_time": "51.78", "trialTime": 109668, "trial_type": "mouselab-mdp", "trial_index": 28, "time_elapsed": 1136683, "internal_node_id": "0.0-4.0-1.0-19.0"}}, {"uniqueid": "w48183023:a30611270", "current_trial": 29, "dateTime": 1691160592518, "trialdata": {"revealed_states": [], "clicked_states": ["22"], "num_clicks_accrued": [0, 0, 0, 0, 0, 0, 0, 0, 0, 0, 0, 0, 0], "stateRewards": ["", -1, 2, -7, -12, -62, 12, -13, 5, 77, -71, 83, 1, -4, 7, 15, -42, -87, -4, 5, -25, 44, 88, -1, 4, -5, -8, 14, 51, 8, -5, 83, -24, -19], "withholdReward": false, "trial_id": "mdp_trial_21", "block": "test", "trialIndex": 22, "score": 94.85, "costs": -2.15, "simulationMode": [null, null, null, null, null], "rewards": [1, -4, 7, 5, 88], "path": ["0", "0", "12", "13", "14", "19", "22"], "rt": [5786, 839, 309, 216, 7], "actions": ["right", "right", "right", "down", "left"], "actionTimes": [7585, 8933, 9761, 10470, 10989], "queries": {"click": {"state": {"target": ["22"], "time": [3128]}, "edge": {"target": [], "time": []}}, "mouseover": {"state": {"target": ["12", "13", "14", "19", "22", "22", "21"], "time": [2155, 2170, 2181, 2425, 2459, 2991, 4470]}, "edge": {"target": [], "time": []}}, "mouseout": {"state": {"target": ["0", "12", "13", "14", "19", "22", "22", "21"], "time": [2148, 2166, 2178, 2192, 2442, 2493, 4387, 6745]}, "edge": {"target": [], "time": []}}}, "displayed_time": "15.80", "trialTime": 17590, "trial_type": "mouselab-mdp", "trial_index": 29, "time_elapsed": 1154585, "internal_node_id": "0.0-4.0-1.0-20.0"}}, {"uniqueid": "w48183023:a30611270", "current_trial": 30, "dateTime": 1691160648318, "trialdata": {"revealed_states": [], "clicked_states": ["21", "20", "22", "17", "16", "18", "6", "7", "5", "9", "11", "10", "28"], "num_clicks_accrued": [0, 0, 0, 0, 0, 0, 0, 0, 0, 0, 0, 0, 0], "stateRewards": ["", -1, 1, -5, -6, -78, 47, -13, 12, 48, -88, 20, 2, -3, -2, 13, -20, 37, -57, 14, -38, 30, 31, -2, -2, 8, 2, -23, 78, 28, 12, -74, -88, 8], "withholdReward": false, "trial_id": "mdp_trial_22", "block": "test", "trialIndex": 23, "score": 56.05000000000001, "costs": -27.949999999999992, "simulationMode": [null, null, null, null, null], "rewards": [-2, -2, 8, 2, 78], "path": ["0", "0", "23", "24", "25", "26", "28"], "rt": [49216, 4, 4, 81, 32], "actions": ["left", "left", "left", "up", "right"], "actionTimes": [51351, 51850, 52364, 52958, 53492], "queries": {"click": {"state": {"target": ["21", "20", "22", "17", "16", "18", "6", "7", "5", "9", "11", "10", "28"], "time": [3222, 6615, 10028, 14668, 18110, 21619, 24976, 28289, 31652, 35241, 39053, 43135, 46556]}, "edge": {"target": [], "time": []}}, "mouseover": {"state": {"target": ["21", "20", "20", "19", "22", "14", "17", "17", "16", "18", "12", "7", "6", "7", "4", "5", "5", "3", "9", "11", "27", "10", "28", "27", "27", "12", "0"], "time": [3040, 4041, 5391, 7189, 7705, 10667, 10734, 14386, 15274, 18639, 22067, 22517, 24351, 25831, 28532, 28581, 28849, 32608, 34442, 38517, 40829, 42573, 45192, 47363, 48296, 50203, 50232]}, "edge": {"target": [], "time": []}}, "mouseout": {"state": {"target": ["21", "22", "12", "0", "21", "20", "20", "19", "22", "14", "17", "17", "16", "18", "12", "7", "6", "7", "4", "5", "5", "3", "9", "11", "27", "10", "28", "27", "27", "12", "0"], "time": [1214, 1314, 1433, 2371, 3857, 4107, 7156, 7373, 10634, 10683, 10768, 14748, 18405, 21950, 22383, 22533, 25582, 28302, 28565, 28615, 32124, 33992, 38079, 39862, 42405, 44276, 46996, 47796, 49999, 50216, 54726]}, "edge": {"target": [], "time": []}}}, "displayed_time": "54.01", "trialTime": 55517, "trial_type": "mouselab-mdp", "trial_index": 30, "time_elapsed": 1210386, "internal_node_id": "0.0-4.0-1.0-21.0"}}, {"uniqueid": "w48183023:a30611270", "current_trial": 31, "dateTime": 1691160668778, "trialdata": {"revealed_states": [], "clicked_states": ["31", "32", "33"], "num_clicks_accrued": [0, 0, 0, 0, 0, 0, 0, 0, 0, 0, 0, 0, 0], "stateRewards": ["", -1, -3, -7, -4, -85, -70, 79, 8, 84, -66, 42, 2, -2, -3, -16, -54, -66, 68, -3, 21, -14, 7, -2, -1, -3, -8, 75, 80, 86, -7, -84, 73, -16], "withholdReward": false, "trial_id": "mdp_trial_23", "block": "test", "trialIndex": 24, "score": 53.55, "costs": -6.449999999999999, "simulationMode": [null, null, null, null, null], "rewards": [-2, -1, -3, -7, 73], "path": ["0", "0", "23", "24", "25", "30", "32"], "rt": [11837, 674, 209, 187, 205], "actions": ["left", "left", "left", "down", "down"], "actionTimes": [13967, 15162, 15881, 16561, 17282], "queries": {"click": {"state": {"target": ["31", "32", "33"], "time": [3238, 6632, 10543]}, "edge": {"target": [], "time": []}}, "mouseover": {"state": {"target": ["31", "32", "32", "33"], "time": [2965, 5490, 5807, 7596]}, "edge": {"target": [], "time": []}}, "mouseout": {"state": {"target": ["12", "22", "23", "0", "31", "31", "32", "32", "33", "33"], "time": [925, 956, 1594, 2531, 3639, 5057, 5590, 7011, 12304, 13155]}, "edge": {"target": [], "time": []}}}, "displayed_time": "17.77", "trialTime": 20183, "trial_type": "mouselab-mdp", "trial_index": 31, "time_elapsed": 1230846, "internal_node_id": "0.0-4.0-1.0-22.0"}}, {"uniqueid": "w48183023:a30611270", "current_trial": 32, "dateTime": 1691160714305, "trialdata": {"revealed_states": [], "clicked_states": ["28", "27", "29"], "num_clicks_accrued": [0, 0, 0, 0, 0, 0, 0, 0, 0, 0, 0, 0, 0], "stateRewards": ["", -1, -2, -8, 8, -27, -82, 19, -14, -62, 4, 1, -2, 2, 6, 10, 73, -51, -2, 2, 73, -48, 54, -1, 2, -4, 11, -25, 47, 86, 15, 33, 43, -42], "withholdReward": false, "trial_id": "mdp_trial_24", "block": "test", "trialIndex": 25, "score": 87.55, "costs": -6.449999999999999, "simulationMode": [null, null, null, null, null], "rewards": [-1, 2, -4, 11, 86], "path": ["0", "0", "23", "24", "25", "26", "29"], "rt": [15261, 146, 377, 184, 97], "actions": ["left", "left", "left", "up", "left"], "actionTimes": [17508, 18148, 19028, 19724, 20333], "queries": {"click": {"state": {"target": ["28", "27", "29"], "time": [4273, 7775, 12274]}, "edge": {"target": [], "time": []}}, "mouseover": {"state": {"target": ["12", "22", "23", "28", "27", "27", "29"], "time": [2915, 2979, 3296, 3731, 6531, 7521, 9250]}, "edge": {"target": [], "time": []}}, "mouseout": {"state": {"target": ["23", "24", "23", "0", "12", "22", "23", "28", "28", "27", "27", "29"], "time": [1174, 1224, 1408, 2883, 2946, 3030, 3329, 4714, 5781, 7097, 8250, 15779]}, "edge": {"target": [], "time": []}}}, "displayed_time": "20.84", "trialTime": 45151, "trial_type": "mouselab-mdp", "trial_index": 32, "time_elapsed": 1276373, "internal_node_id": "0.0-4.0-1.0-23.0"}}, {"uniqueid": "w48183023:a30611270", "current_trial": 33, "dateTime": 1691160734278, "trialdata": {"revealed_states": [], "clicked_states": [], "num_clicks_accrued": [0, 0, 0, 0, 0, 0, 0, 0, 0, 0, 0, 0, 0], "stateRewards": ["", -1, 2, -6, 6, 43, 78, 78, -2, 55, -29, -17, -2, -4, 1, -15, 13, 7, -79, 8, -28, -68, 36, -1, -3, 3, -16, 84, -18, 87, 10, 32, 13, -81], "withholdReward": false, "trial_id": "mdp_trial_25", "block": "test", "trialIndex": 26, "score": -99, "costs": 0, "simulationMode": [null, null, null, null, null], "rewards": [-2, -4, 1, -15, -79], "path": ["0", "0", "12", "13", "14", "15", "18"], "rt": [7867, 16, 93, 164, 47], "actions": ["right", "right", "right", "up", "left"], "actionTimes": [10630, 11151, 11744, 12416, 12983], "queries": {"click": {"state": {"target": [], "time": []}, "edge": {"target": [], "time": []}}, "mouseover": {"state": {"target": ["27", "28", "25", "29", "29", "26", "28", "0", "0", "12", "13", "14"], "time": [5627, 5760, 6149, 6477, 6965, 7864, 8557, 8636, 9092, 9203, 9253, 9339]}, "edge": {"target": [], "time": []}}, "mouseout": {"state": {"target": ["22", "12", "0", "0", "27", "28", "25", "29", "29", "26", "28", "0", "0", "12", "13", "14", "19"], "time": [1077, 1312, 1429, 3316, 5660, 5827, 6411, 6515, 7430, 8554, 8570, 8670, 9154, 9237, 9304, 15323, 15421]}, "edge": {"target": [], "time": []}}}, "displayed_time": "16.76", "trialTime": 19672, "trial_type": "mouselab-mdp", "trial_index": 33, "time_elapsed": 1296346, "internal_node_id": "0.0-4.0-1.0-24.0"}}, {"uniqueid": "w48183023:a30611270", "current_trial": 34, "dateTime": 1691160879921, "trialdata": {"revealed_states": [], "clicked_states": ["17", "16", "18", "20", "21", "22", "31", "32"], "num_clicks_accrued": [0, 0, 0, 0, 0, 0, 0, 0, 0, 0, 0, 0, 0], "stateRewards": ["", -2, 3, 3, -14, 62, 36, 49, 16, 11, 17, -84, 2, -1, 6, 2, -82, -73, 49, -6, -87, 48, 50, -1, -2, -1, -16, -11, 37, -44, 4, 55, 73, -10], "withholdReward": false, "trial_id": "mdp_trial_26", "block": "test", "trialIndex": 27, "score": 55.8, "costs": -17.2, "simulationMode": [null, null, null, null, null], "rewards": [-1, -2, -1, 4, 73], "path": ["0", "0", "23", "24", "25", "30", "32"], "rt": [33767, 89, 64, 35, 50], "actions": ["left", "left", "left", "down", "down"], "actionTimes": [35642, 36238, 36813, 37367, 37933], "queries": {"click": {"state": {"target": ["17", "16", "18", "20", "21", "22", "31", "32"], "time": [3540, 6770, 9928, 14072, 17489, 21432, 26940, 30712]}, "edge": {"target": [], "time": []}}, "mouseover": {"state": {"target": ["12", "17", "17", "16", "15", "14", "18", "14", "19", "20", "20", "21", "22", "31", "32"], "time": [2226, 2777, 3443, 4510, 7125, 7392, 8341, 10580, 10914, 11380, 13800, 15982, 18061, 26210, 30287]}, "edge": {"target": [], "time": []}}, "mouseout": {"state": {"target": ["23", "26", "26", "24", "23", "12", "13", "12", "0", "12", "17", "17", "16", "15", "14", "18", "14", "19", "20", "20", "20", "21", "22", "31", "32", "33", "33", "30"], "time": [688, 705, 988, 1088, 1138, 1170, 1323, 1471, 2199, 2242, 2793, 4160, 7059, 7225, 7559, 10480, 10630, 11280, 12547, 14165, 14950, 17878, 24879, 30100, 30790, 138986, 143606, 143773]}, "edge": {"target": [], "time": []}}}, "displayed_time": "38.45", "trialTime": 145338, "trial_type": "mouselab-mdp", "trial_index": 34, "time_elapsed": 1441989, "internal_node_id": "0.0-4.0-1.0-25.0"}}, {"uniqueid": "w48183023:a30611270", "current_trial": 35, "dateTime": 1691160902784, "trialdata": {"revealed_states": [], "clicked_states": ["31", "32"], "num_clicks_accrued": [0, 0, 0, 0, 0, 0, 0, 0, 0, 0, 0, 0, 0], "stateRewards": ["", -2, -4, 6, 14, -34, 49, 36, -8, -3, 32, -4, 1, -2, 1, -8, -20, -71, -57, -7, -86, -62, -16, -2, -3, -5, 11, 23, -21, 53, 5, -5, 85, 73], "withholdReward": false, "trial_id": "mdp_trial_27", "block": "test", "trialIndex": 28, "score": 75.7, "costs": -4.3, "simulationMode": [null, null, null, null, null], "rewards": [-2, -3, -5, 5, 85], "path": ["0", "0", "23", "24", "25", "30", "32"], "rt": [8833, 803, 215, 96, 169], "actions": ["left", "left", "left", "down", "down"], "actionTimes": [11121, 12418, 13144, 13752, 14426], "queries": {"click": {"state": {"target": ["31", "32"], "time": [3583, 6909]}, "edge": {"target": [], "time": []}}, "mouseover": {"state": {"target": ["23", "25", "30", "32", "31", "32", "33", "30", "31"], "time": [2712, 2900, 2944, 3229, 3395, 4347, 7353, 10509, 10529]}, "edge": {"target": [], "time": []}}, "mouseout": {"state": {"target": ["19", "14", "13", "12", "0", "23", "25", "30", "32", "31", "32", "33", "30", "31"], "time": [724, 1022, 1055, 1189, 2667, 2728, 2928, 3012, 3278, 3996, 7119, 10491, 10527, 10546]}, "edge": {"target": [], "time": []}}}, "displayed_time": "16.29", "trialTime": 22556, "trial_type": "mouselab-mdp", "trial_index": 35, "time_elapsed": 1464852, "internal_node_id": "0.0-4.0-1.0-26.0"}}, {"uniqueid": "w48183023:a30611270", "current_trial": 36, "dateTime": 1691160983641, "trialdata": {"revealed_states": [], "clicked_states": ["17", "16", "18", "20", "21", "22", "31", "32", "33", "29", "27", "28", "10", "11", "9", "5", "6", "7"], "num_clicks_accrued": [0, 0, 0, 0, 0, 0, 0, 0, 0, 0, 0, 0, 0], "stateRewards": ["", 2, 3, 3, 10, 19, -21, 6, 9, 54, 68, 16, 2, 2, -6, -8, 40, -2, -75, -2, -42, 55, 59, -1, 2, 4, -14, 11, -34, -30, -6, 61, -53, 13], "withholdReward": false, "trial_id": "mdp_trial_28", "block": "test", "trialIndex": 29, "score": 46.30000000000001, "costs": -38.69999999999999, "simulationMode": [null, null, null, null, null], "rewards": [2, 3, 3, 9, 68], "path": ["0", "0", "1", "2", "3", "8", "10"], "rt": [62920, 105, 128, 71, 191], "actions": ["up", "up", "up", "left", "down"], "actionTimes": [67161, 67773, 68398, 68974, 69661], "queries": {"click": {"state": {"target": ["17", "16", "18", "20", "21", "22", "31", "32", "33", "29", "27", "28", "10", "11", "9", "5", "6", "7"], "time": [5393, 8665, 11916, 15207, 18684, 22226, 25339, 29662, 32936, 36212, 39551, 42789, 46888, 50995, 54251, 57532, 60731, 63862]}, "edge": {"target": [], "time": []}}, "mouseover": {"state": {"target": ["12", "13", "14", "17", "16", "18", "15", "20", "21", "22", "30", "31", "31", "32", "33", "26", "29", "27", "28", "7", "6", "11", "10", "11", "9", "3", "5", "6", "6", "7"], "time": [4830, 4865, 4947, 5097, 6205, 9021, 12185, 12652, 17216, 19598, 22942, 23209, 23809, 27692, 31320, 33287, 33921, 36538, 42663, 44409, 45359, 46225, 46646, 49340, 52702, 54903, 55153, 57893, 58309, 61156]}, "edge": {"target": [], "time": []}}, "mouseout": {"state": {"target": ["0", "12", "13", "14", "17", "16", "16", "18", "15", "20", "21", "22", "30", "31", "31", "32", "33", "26", "29", "27", "28", "28", "28", "7", "6", "11", "10", "11", "9", "3", "5", "6", "6", "7", "20"], "time": [4813, 4863, 4914, 5014, 5450, 8681, 8988, 12152, 12219, 15548, 19231, 22559, 23158, 23345, 25908, 31071, 33153, 33554, 36246, 40492, 42804, 44009, 44326, 44426, 45409, 46563, 49306, 52504, 54736, 55020, 57842, 57992, 61040, 64291, 80257]}, "edge": {"target": [], "time": []}}}, "displayed_time": "70.16", "trialTime": 80504, "trial_type": "mouselab-mdp", "trial_index": 36, "time_elapsed": 1545708, "internal_node_id": "0.0-4.0-1.0-27.0"}}, {"uniqueid": "w48183023:a30611270", "current_trial": 37, "dateTime": 1691161001586, "trialdata": {"revealed_states": [], "clicked_states": ["18", "16"], "num_clicks_accrued": [0, 0, 0, 0, 0, 0, 0, 0, 0, 0, 0, 0, 0], "stateRewards": ["", 2, 4, 7, 7, -79, -2, -21, -5, -53, 47, -21, 1, -3, -1, 7, 83, 7, 84, -7, 80, -37, 69, 2, -4, 5, 2, 4, -20, -30, 7, 71, 44, -81], "withholdReward": false, "trial_id": "mdp_trial_29", "block": "test", "trialIndex": 30, "score": 83.7, "costs": -4.3, "simulationMode": [null, null, null, null, null], "rewards": [1, -3, -1, 7, 84], "path": ["0", "0", "12", "13", "14", "15", "18"], "rt": [8560, 149, 168, 106, 120], "actions": ["right", "right", "right", "up", "left"], "actionTimes": [10257, 10961, 11639, 12257, 12873], "queries": {"click": {"state": {"target": ["18", "16"], "time": [3002, 6171]}, "edge": {"target": [], "time": []}}, "mouseover": {"state": {"target": ["1", "18", "15", "15", "18", "16"], "time": [2239, 2387, 2471, 2621, 2789, 3671]}, "edge": {"target": [], "time": []}}, "mouseout": {"state": {"target": ["21", "22", "12", "1", "1", "18", "15", "15", "18", "16", "20", "19", "22", "13"], "time": [252, 352, 803, 1101, 2304, 2439, 2488, 2689, 3470, 6218, 14774, 14807, 14978, 15022]}, "edge": {"target": [], "time": []}}}, "displayed_time": "15.70", "trialTime": 17640, "trial_type": "mouselab-mdp", "trial_index": 37, "time_elapsed": 1563655, "internal_node_id": "0.0-4.0-1.0-28.0"}}, {"uniqueid": "w48183023:a30611270", "current_trial": 38, "dateTime": 1691161023665, "trialdata": {"revealed_states": [], "clicked_states": ["17", "16", "18"], "num_clicks_accrued": [0, 0, 0, 0, 0, 0, 0, 0, 0, 0, 0, 0, 0], "stateRewards": ["", -2, -1, -4, -15, -14, -67, 32, -3, -59, 63, 31, 2, -1, -7, -15, 71, -66, -27, -3, -54, -39, 72, 2, 1, 1, -13, 77, -40, 35, -9, 35, 75, 57], "withholdReward": false, "trial_id": "mdp_trial_30", "block": "test", "trialIndex": 31, "score": 43.55, "costs": -6.449999999999999, "simulationMode": [null, null, null, null, null], "rewards": [2, -1, -7, -15, 71], "path": ["0", "0", "12", "13", "14", "15", "16"], "rt": [14182, 447, 186, 97, 64], "actions": ["right", "right", "right", "up", "up"], "actionTimes": [15760, 16712, 17410, 18017, 18585], "queries": {"click": {"state": {"target": ["17", "16", "18"], "time": [3324, 7673, 11785]}, "edge": {"target": [], "time": []}}, "mouseover": {"state": {"target": ["12", "13", "15", "15", "17", "17", "16", "18", "15", "17"], "time": [1734, 1952, 2050, 2623, 2642, 3109, 4360, 8119, 13232, 13281]}, "edge": {"target": [], "time": []}}, "mouseout": {"state": {"target": ["0", "12", "13", "15", "15", "17", "17", "16", "18", "15", "17"], "time": [1684, 1751, 1984, 2320, 2639, 2655, 4059, 8036, 13214, 13265, 13315]}, "edge": {"target": [], "time": []}}}, "displayed_time": "19.09", "trialTime": 21808, "trial_type": "mouselab-mdp", "trial_index": 38, "time_elapsed": 1585734, "internal_node_id": "0.0-4.0-1.0-29.0"}}, {"uniqueid": "w48183023:a30611270", "current_trial": 39, "dateTime": 1691161095488, "trialdata": {"revealed_states": [], "clicked_states": ["31", "32", "20", "21", "22", "17", "16", "18", "7", "6", "5", "9", "11", "10", "28", "27", "29"], "num_clicks_accrued": [0, 0, 0, 0, 0, 0, 0, 0, 0, 0, 0, 0, 0], "stateRewards": ["", 2, -3, -4, -1, 25, -16, 16, 10, -71, -20, -55, 1, 3, -4, -9, 1, 32, 11, -6, 32, -50, -41, -1, 4, 4, -8, 7, -81, 70, 2, -52, 45, -10], "withholdReward": false, "trial_id": "mdp_trial_31", "block": "test", "trialIndex": 32, "score": 32.45000000000001, "costs": -36.54999999999999, "simulationMode": [null, null, null, null, null], "rewards": [-1, 4, 4, -8, 70], "path": ["0", "0", "23", "24", "25", "26", "29"], "rt": [60425, 151, 165, 114, 64], "actions": ["left", "left", "left", "up", "left"], "actionTimes": [62503, 63172, 63836, 64460, 65028], "queries": {"click": {"state": {"target": ["31", "32", "20", "21", "22", "17", "16", "18", "7", "6", "5", "9", "11", "10", "28", "27", "29"], "time": [3272, 6676, 11626, 14846, 18118, 21312, 24481, 27696, 31899, 35136, 38401, 41640, 44804, 47939, 51173, 54394, 57701]}, "edge": {"target": [], "time": []}}, "mouseover": {"state": {"target": ["23", "24", "25", "30", "31", "32", "33", "13", "20", "21", "22", "22", "22", "14", "17", "16", "18", "1", "23", "5", "7", "6", "6", "5", "9", "11", "10", "10", "28", "27", "29", "33"], "time": [2593, 2612, 2632, 2892, 3009, 3878, 7328, 7793, 8710, 12014, 15383, 15630, 15964, 18390, 18502, 21949, 24855, 28300, 29366, 31099, 31697, 32249, 32782, 37945, 39453, 42051, 45149, 45749, 48325, 52698, 55117, 59855]}, "edge": {"target": [], "time": []}}, "mouseout": {"state": {"target": ["13", "12", "0", "23", "24", "25", "30", "31", "32", "33", "13", "20", "21", "22", "22", "22", "14", "17", "16", "18", "1", "23", "5", "7", "6", "6", "5", "9", "11", "10", "10", "28", "27", "29", "33"], "time": [1332, 1432, 2577, 2610, 2628, 2644, 2975, 3763, 6952, 7726, 7812, 11949, 15117, 15433, 15831, 18322, 18428, 21582, 24733, 27966, 28333, 29499, 31318, 32165, 32649, 35184, 38820, 41999, 45082, 45183, 48223, 52313, 54783, 58938, 61418]}, "edge": {"target": [], "time": []}}}, "displayed_time": "65.55", "trialTime": 71566, "trial_type": "mouselab-mdp", "trial_index": 39, "time_elapsed": 1657555, "internal_node_id": "0.0-4.0-1.0-30.0"}}, {"uniqueid": "w48183023:a30611270", "current_trial": 40, "dateTime": 1691161122126, "trialdata": {"revealed_states": [], "clicked_states": ["22", "21", "20", "17"], "num_clicks_accrued": [0, 0, 0, 0, 0, 0, 0, 0, 0, 0, 0, 0, 0], "stateRewards": ["", -2, -4, 4, -11, -63, -60, -7, 2, -14, 81, -43, -1, -1, -5, 7, 10, 69, 40, 8, -83, 52, 60, 1, 2, 5, -5, 16, 64, 14, -3, 29, 7, -51], "withholdReward": false, "trial_id": "mdp_trial_32", "block": "test", "trialIndex": 33, "score": 60.4, "costs": -8.6, "simulationMode": [null, null, null, null, null], "rewards": [-1, -1, -5, 7, 69], "path": ["0", "0", "12", "13", "14", "15", "17"], "rt": [16340, 72, 178, 88, 131], "actions": ["right", "right", "right", "up", "right"], "actionTimes": [19301, 19882, 20554, 21154, 21796], "queries": {"click": {"state": {"target": ["22", "21", "20", "17"], "time": [4774, 8083, 11334, 14639]}, "edge": {"target": [], "time": []}}, "mouseover": {"state": {"target": ["13", "19", "22", "21", "20", "14", "15", "17", "16"], "time": [3830, 4183, 4418, 5316, 8514, 11593, 11707, 11988, 14946]}, "edge": {"target": [], "time": []}}, "mouseout": {"state": {"target": ["16", "0", "13", "19", "22", "21", "20", "14", "15", "17", "16"], "time": [884, 3498, 3965, 4280, 5199, 8430, 11558, 11621, 11972, 14686, 18360]}, "edge": {"target": [], "time": []}}}, "displayed_time": "22.32", "trialTime": 26338, "trial_type": "mouselab-mdp", "trial_index": 40, "time_elapsed": 1684193, "internal_node_id": "0.0-4.0-1.0-31.0"}}, {"uniqueid": "w48183023:a30611270", "current_trial": 41, "dateTime": 1691161172110, "trialdata": {"revealed_states": [], "clicked_states": ["22", "21", "20", "17", "16", "18", "7", "6", "5", "9", "11"], "num_clicks_accrued": [0, 0, 0, 0, 0, 0, 0, 0, 0, 0, 0, 0, 0], "stateRewards": ["", -2, 2, -5, 1, 42, -63, -58, -6, 2, 16, 81, -2, 4, 7, -10, 33, 3, -33, -2, -52, -84, -27, 2, -3, -3, 15, -74, -14, -5, -5, -84, 79, -31], "withholdReward": false, "trial_id": "mdp_trial_33", "block": "test", "trialIndex": 34, "score": 46.35000000000001, "costs": -23.649999999999995, "simulationMode": [null, null, null, null, null], "rewards": [-2, 2, -5, -6, 81], "path": ["0", "0", "1", "2", "3", "8", "11"], "rt": [42254, 24, 44, 54, 80], "actions": ["up", "up", "up", "left", "left"], "actionTimes": [45123, 45651, 46204, 46764, 47357], "queries": {"click": {"state": {"target": ["22", "21", "20", "17", "16", "18", "7", "6", "5", "9", "11"], "time": [4413, 7756, 10924, 14179, 17291, 20417, 24578, 27740, 31110, 36046, 40123]}, "edge": {"target": [], "time": []}}, "mouseover": {"state": {"target": ["12", "13", "14", "20", "19", "22", "21", "20", "17", "16", "15", "18", "7", "3", "3", "7", "7", "7", "6", "6", "5", "5", "3", "9", "11", "11", "10"], "time": [3256, 3323, 3505, 3673, 4046, 4233, 4895, 8040, 11245, 14818, 17621, 17952, 20703, 20752, 20949, 21041, 22103, 24100, 24938, 26798, 28028, 28412, 34733, 35673, 39474, 39808, 40380]}, "edge": {"target": [], "time": []}}, "mouseout": {"state": {"target": ["19", "22", "12", "0", "12", "13", "14", "20", "19", "22", "21", "20", "17", "16", "16", "15", "18", "7", "3", "3", "7", "7", "7", "6", "6", "5", "5", "3", "9", "11", "11", "10", "10"], "time": [1723, 1736, 1786, 3191, 3306, 3440, 3611, 3706, 4095, 4846, 7974, 11113, 14419, 17305, 17568, 17702, 20685, 20720, 20785, 20974, 21919, 22235, 24830, 25062, 27895, 28095, 34518, 35226, 39374, 39491, 40331, 44397, 48791]}, "edge": {"target": [], "time": []}}}, "displayed_time": "47.88", "trialTime": 49676, "trial_type": "mouselab-mdp", "trial_index": 41, "time_elapsed": 1734177, "internal_node_id": "0.0-4.0-1.0-32.0"}}, {"uniqueid": "w48183023:a30611270", "current_trial": 42, "dateTime": 1691161221282, "trialdata": {"revealed_states": [], "clicked_states": ["31", "32", "33", "29", "27", "28", "10", "11", "9", "5", "6", "7"], "num_clicks_accrued": [0, 0, 0, 0, 0, 0, 0, 0, 0, 0, 0, 0, 0], "stateRewards": ["", 2, 2, 3, -15, 23, -14, 73, -7, -32, -20, -6, 1, 1, -5, -12, 73, 6, -84, 11, -81, -57, 13, -2, -1, -4, -8, -52, -58, 49, 13, 5, -41, -41], "withholdReward": false, "trial_id": "mdp_trial_34", "block": "test", "trialIndex": 35, "score": 39.2, "costs": -25.799999999999994, "simulationMode": [null, null, null, null, null], "rewards": [2, 2, 3, -15, 73], "path": ["0", "0", "1", "2", "3", "4", "7"], "rt": [42425, 809, 273, 98, 65], "actions": ["up", "up", "up", "right", "down"], "actionTimes": [43577, 44894, 45663, 46254, 46837], "queries": {"click": {"state": {"target": ["31", "32", "33", "29", "27", "28", "10", "11", "9", "5", "6", "7"], "time": [1930, 5153, 8744, 11979, 15188, 18451, 21726, 25032, 28240, 31667, 35058, 38288]}, "edge": {"target": [], "time": []}}, "mouseover": {"state": {"target": ["23", "31", "32", "33", "29", "27", "28", "10", "11", "9", "3", "5", "6", "7", "7", "16", "17", "15", "18"], "time": [1519, 1636, 2436, 5665, 9567, 12340, 15615, 19258, 22097, 25304, 28680, 29396, 32024, 35723, 36141, 38494, 38911, 38994, 39378]}, "edge": {"target": [], "time": []}}, "mouseout": {"state": {"target": ["0", "23", "31", "32", "33", "29", "27", "28", "10", "11", "9", "3", "5", "5", "6", "6", "7", "7", "16", "17", "15", "18"], "time": [1503, 1535, 2371, 5214, 8934, 12223, 15515, 18691, 21743, 25047, 28529, 28896, 31731, 31894, 35068, 35590, 35790, 38461, 38511, 38961, 39194, 42656]}, "edge": {"target": [], "time": []}}}, "displayed_time": "47.35", "trialTime": 48884, "trial_type": "mouselab-mdp", "trial_index": 42, "time_elapsed": 1783351, "internal_node_id": "0.0-4.0-1.0-33.0"}}, {"uniqueid": "w48183023:a30611270", "current_trial": 43, "dateTime": 1691161441594, "trialdata": {"revealed_states": [], "clicked_states": ["31", "32"], "num_clicks_accrued": [0, 0, 0, 0, 0, 0, 0, 0, 0, 0, 0, 0, 0], "stateRewards": ["", -1, 4, -3, 3, 57, -61, 5, -11, 23, -1, 34, -2, -4, -1, -13, 27, 38, -36, 4, -45, 21, 88, 1, -2, -1, 1, -69, -5, -78, -12, -9, 38, -54], "withholdReward": false, "trial_id": "mdp_trial_35", "block": "test", "trialIndex": 36, "score": 19.7, "costs": -4.3, "simulationMode": [null, null, null, null, null], "rewards": [1, -2, -1, -12, 38], "path": ["0", "0", "23", "24", "25", "30", "32"], "rt": [14891, 72, 90, 4, 109], "actions": ["left", "left", "left", "down", "down"], "actionTimes": [18586, 19164, 19748, 20246, 20867], "queries": {"click": {"state": {"target": ["31", "32"], "time": [4991, 8174]}, "edge": {"target": [], "time": []}}, "mouseover": {"state": {"target": ["23", "24", "31", "32", "33", "22"], "time": [4184, 4282, 4784, 5499, 10645, 17379]}, "edge": {"target": [], "time": []}}, "mouseout": {"state": {"target": ["23", "0", "23", "24", "31", "32", "33", "22", "19", "6"], "time": [2614, 2793, 4215, 4484, 5399, 8395, 17144, 211929, 211975, 219657]}, "edge": {"target": [], "time": []}}}, "displayed_time": "21.36", "trialTime": 220040, "trial_type": "mouselab-mdp", "trial_index": 43, "time_elapsed": 2003661, "internal_node_id": "0.0-4.0-1.0-34.0"}}, {"uniqueid": "w48183023:a30611270", "current_trial": 44, "dateTime": 1691161475852, "trialdata": {"revealed_states": [], "clicked_states": ["22", "21", "20", "17", "16", "18", "7", "6"], "num_clicks_accrued": [0, 0, 0, 0, 0, 0, 0, 0, 0, 0, 0, 0, 0], "stateRewards": ["", 1, -3, -6, -5, 47, 80, -29, 11, -71, 10, -29, -2, 3, -6, 12, 2, -78, -6, 8, 34, -16, -5, -1, 3, 3, -13, 84, -36, -62, -3, -27, 66, 15], "withholdReward": false, "trial_id": "mdp_trial_36", "block": "test", "trialIndex": 37, "score": 49.8, "costs": -17.2, "simulationMode": [null, null, null, null, null], "rewards": [1, -3, -6, -5, 80], "path": ["0", "0", "1", "2", "3", "4", "6"], "rt": [28324, 55, 402, 8, 740], "actions": ["up", "up", "up", "right", "right"], "actionTimes": [29322, 29884, 30798, 31317, 32582], "queries": {"click": {"state": {"target": ["22", "21", "20", "17", "16", "18", "7", "6"], "time": [1953, 5125, 8252, 11549, 14824, 18109, 21379, 24577]}, "edge": {"target": [], "time": []}}, "mouseover": {"state": {"target": ["12", "19", "19", "22", "21", "21", "20", "20", "17", "17", "16", "16", "18", "6", "7", "6", "5"], "time": [1125, 1406, 1625, 1773, 2262, 3162, 5347, 5764, 8475, 8875, 11935, 12201, 15331, 18465, 19331, 21653, 25125]}, "edge": {"target": [], "time": []}}, "mouseout": {"state": {"target": ["1", "12", "19", "19", "22", "21", "21", "20", "20", "17", "17", "16", "16", "18", "6", "7", "6", "5"], "time": [506, 1174, 1455, 1724, 2195, 2296, 5264, 5397, 8409, 8509, 11720, 12020, 15066, 18298, 19198, 21537, 24776, 28512]}, "edge": {"target": [], "time": []}}}, "displayed_time": "33.08", "trialTime": 33919, "trial_type": "mouselab-mdp", "trial_index": 44, "time_elapsed": 2037920, "internal_node_id": "0.0-4.0-1.0-35.0"}}, {"uniqueid": "w48183023:a30611270", "current_trial": 45, "dateTime": 1691161493016, "trialdata": {"revealed_states": [], "clicked_states": ["18"], "num_clicks_accrued": [0, 0, 0, 0, 0, 0, 0, 0, 0, 0, 0, 0, 0], "stateRewards": ["", 2, -1, 3, -12, -83, 6, -33, 9, 28, 24, -50, -2, -1, -2, -5, -87, 37, 82, 12, 80, -5, 10, -2, -3, -6, 9, 22, -1, 16, 9, 77, -62, 58], "withholdReward": false, "trial_id": "mdp_trial_37", "block": "test", "trialIndex": 38, "score": 69.85, "costs": -2.15, "simulationMode": [null, null, null, null, null], "rewards": [-2, -1, -2, -5, 82], "path": ["0", "0", "12", "13", "14", "15", "18"], "rt": [6007, 122, 312, 39, 83], "actions": ["right", "right", "right", "up", "left"], "actionTimes": [7918, 8547, 9355, 9906, 10499], "queries": {"click": {"state": {"target": ["18"], "time": [3623]}, "edge": {"target": [], "time": []}}, "mouseover": {"state": {"target": ["12", "13", "15", "16", "18", "16", "16"], "time": [2414, 2480, 2948, 2968, 3417, 4049, 4382]}, "edge": {"target": [], "time": []}}, "mouseout": {"state": {"target": ["16", "18", "13", "12", "0", "0", "12", "13", "15", "16", "18", "16", "16"], "time": [439, 491, 790, 972, 1106, 2385, 2447, 2497, 2965, 3032, 3915, 4065, 7153]}, "edge": {"target": [], "time": []}}}, "displayed_time": "15.91", "trialTime": 16845, "trial_type": "mouselab-mdp", "trial_index": 45, "time_elapsed": 2055083, "internal_node_id": "0.0-4.0-1.0-36.0"}}, {"uniqueid": "w48183023:a30611270", "current_trial": 46, "dateTime": 1691161543309, "trialdata": {"revealed_states": [], "clicked_states": ["7", "6", "5", "10", "11", "9", "28", "27", "29", "33", "32", "31"], "num_clicks_accrued": [0, 0, 0, 0, 0, 0, 0, 0, 0, 0, 0, 0, 0], "stateRewards": ["", 2, 4, 4, -8, -36, -33, 38, 16, -51, 57, 57, 1, 3, 4, -6, 45, 68, 87, 1, 63, 24, -55, -2, 2, -6, -13, -63, -50, 8, 2, 80, 6, 60], "withholdReward": false, "trial_id": "mdp_trial_38", "block": "test", "trialIndex": 39, "score": 50.2, "costs": -25.799999999999994, "simulationMode": [null, null, null, null, null], "rewards": [-2, 2, -6, 2, 80], "path": ["0", "0", "23", "24", "25", "30", "31"], "rt": [43875, 15, 28, 175, 65], "actions": ["left", "left", "left", "down", "right"], "actionTimes": [45521, 46046, 46590, 47287, 47847], "queries": {"click": {"state": {"target": ["7", "6", "5", "10", "11", "9", "28", "27", "29", "33", "32", "31"], "time": [3770, 7110, 10289, 13568, 16875, 20344, 23766, 27346, 30661, 33938, 37662, 41019]}, "edge": {"target": [], "time": []}}, "mouseover": {"state": {"target": ["0", "31", "31", "0", "12", "15", "16", "7", "6", "5", "3", "8", "10", "11", "9", "8", "10", "23", "24", "28", "27", "27", "29", "33", "33", "32", "32", "31", "21", "21"], "time": [2147, 2260, 2603, 2698, 2718, 2782, 3048, 3398, 6517, 7449, 10675, 11842, 12158, 14625, 17513, 21982, 22115, 22515, 22932, 23115, 24106, 27034, 27885, 33047, 33549, 35284, 36318, 38110, 43425, 44149]}, "edge": {"target": [], "time": []}}, "mouseout": {"state": {"target": ["20", "0", "0", "31", "31", "0", "12", "15", "16", "7", "6", "5", "5", "3", "8", "10", "11", "9", "9", "8", "10", "23", "24", "28", "27", "27", "29", "33", "33", "32", "32", "31", "21", "21"], "time": [476, 1109, 2161, 2362, 2650, 2715, 2731, 2834, 3066, 4950, 7141, 10331, 10558, 11575, 11992, 13809, 16895, 20581, 21682, 22015, 22215, 22649, 23016, 24073, 24156, 27785, 32630, 33197, 34251, 35301, 37959, 42959, 43440, 44264]}, "edge": {"target": [], "time": []}}}, "displayed_time": "48.37", "trialTime": 50007, "trial_type": "mouselab-mdp", "trial_index": 46, "time_elapsed": 2105377, "internal_node_id": "0.0-4.0-1.0-37.0"}}, {"uniqueid": "w48183023:a30611270", "current_trial": 47, "dateTime": 1691161591813, "trialdata": {"revealed_states": [], "clicked_states": ["22", "21", "20", "17", "16", "18"], "num_clicks_accrued": [0, 0, 0, 0, 0, 0, 0, 0, 0, 0, 0, 0, 0], "stateRewards": ["", -1, -1, 7, -15, -43, -21, -84, -9, -45, -66, 2, 1, -2, 2, 8, -27, 44, -52, -5, -84, 11, 53, 1, 4, -4, 16, 83, -82, -15, -16, 68, -43, 81], "withholdReward": false, "trial_id": "mdp_trial_39", "block": "test", "trialIndex": 40, "score": -43.9, "costs": -12.9, "simulationMode": [null, null, null, null, null], "rewards": [-1, -1, 7, -15, -21], "path": ["0", "0", "1", "2", "3", "4", "6"], "rt": [38557, 255, 241, 251, 31], "actions": ["up", "up", "up", "right", "right"], "actionTimes": [40729, 41495, 42231, 42975, 43527], "queries": {"click": {"state": {"target": ["22", "21", "20", "17", "16", "18"], "time": [3273, 6561, 9767, 13409, 16805, 20086]}, "edge": {"target": [], "time": []}}, "mouseover": {"state": {"target": ["12", "13", "19", "19", "22", "21", "20", "20", "17", "17", "16", "18", "17", "23", "0"], "time": [2555, 2589, 2638, 2921, 2988, 3805, 6785, 7185, 10439, 11272, 13849, 17562, 21726, 37922, 38518]}, "edge": {"target": [], "time": []}}, "mouseout": {"state": {"target": ["22", "0", "12", "13", "19", "19", "22", "22", "21", "20", "20", "17", "17", "16", "18", "16", "17", "23", "0", "1", "0", "0"], "time": [449, 1248, 2587, 2604, 2671, 2954, 3337, 3706, 6717, 6801, 9921, 10872, 13427, 17112, 20358, 20525, 21775, 38069, 45038, 45324, 45605, 47105]}, "edge": {"target": [], "time": []}}}, "displayed_time": "44.02", "trialTime": 48119, "trial_type": "mouselab-mdp", "trial_index": 47, "time_elapsed": 2153881, "internal_node_id": "0.0-4.0-1.0-38.0"}}, {"uniqueid": "w48183023:a30611270", "current_trial": 48, "dateTime": 1691161618593, "trialdata": {"revealed_states": [], "clicked_states": ["32", "33", "29", "27", "28"], "num_clicks_accrued": [0, 0, 0, 0, 0, 0, 0, 0, 0, 0, 0, 0, 0], "stateRewards": ["", -2, -2, -3, -6, -15, -11, 41, -12, -63, -76, 2, -2, -3, 8, 9, -36, -2, -18, -16, -32, -85, -17, -2, 1, 5, -16, 82, 35, -88, -1, 80, -82, -20], "withholdReward": false, "trial_id": "mdp_trial_40", "block": "test", "trialIndex": 41, "score": 59.25, "costs": -10.75, "simulationMode": [null, null, null, null, null, null], "rewards": [-2, 1, 5, -16, 82], "path": ["0", "0", "23", "24", "25", "26", "27"], "rt": [17910, 1587, 367, 313, 121, 263], "actions": ["left", "left", "left", "left", "up", "up"], "actionTimes": [19196, 20786, 21665, 22490, 23122, 23881], "queries": {"click": {"state": {"target": ["32", "33", "29", "27", "28"], "time": [2045, 7831, 11019, 14321, 17480]}, "edge": {"target": [], "time": []}}, "mouseover": {"state": {"target": ["23", "30", "32", "33", "29", "29", "27", "27", "28", "2"], "time": [1441, 1678, 1807, 7616, 8437, 9471, 11310, 11577, 15123, 18504]}, "edge": {"target": [], "time": []}}, "mouseout": {"state": {"target": ["23", "0", "23", "30", "32", "33", "29", "29", "27", "27", "28", "2", "12"], "time": [891, 1410, 1542, 1776, 2475, 8186, 8487, 11243, 11326, 14539, 18003, 18537, 25730]}, "edge": {"target": [], "time": []}}}, "displayed_time": "24.39", "trialTime": 26437, "trial_type": "mouselab-mdp", "trial_index": 48, "time_elapsed": 2180660, "internal_node_id": "0.0-4.0-1.0-39.0"}}, {"uniqueid": "w48183023:a30611270", "current_trial": 49, "dateTime": 1691161649110, "trialdata": {"rt": 30503, "response": {"Q0": "$-2 to $2", "Q1": "$-16 to $16", "Q2": "$-88 to $88", "Q3": "The cost for clicking on nodes varied between nodes.", "Q4": "Very motivated"}, "question_order": [0, 1, 2, 3, 4], "trial_id": "final_quiz_control", "trial_type": "survey-multi-choice", "trial_index": 49, "time_elapsed": 2211178, "internal_node_id": "0.0-4.0-2.0"}}, {"uniqueid": "w48183023:a30611270", "current_trial": 50, "dateTime": 1691161736502, "trialdata": {"rt": 87372, "response": {"Q0": "Only clicked on external nodes to maximise profit, checked external nodes until I found one at around 75+", "Q1": "No", "Q2": "I was happy with my initial strategy"}, "trial_id": "self_report_control", "trial_type": "survey-text", "trial_index": 50, "time_elapsed": 2298571, "internal_node_id": "0.0-4.0-3.0"}}, {"uniqueid": "w48183023:a30611270", "current_trial": 51, "dateTime": 1691161766402, "trialdata": {"rt": 29892, "response": {"Q0": "Strongly disagree", "Q1": "Strongly disagree", "Q2": "Neither disagree nor agree", "Q3": "Strongly disagree", "Q4": "Strongly disagree", "Q5": "Strongly disagree", "Q6": "Strongly disagree"}, "question_order": [0, 1, 2, 3, 4, 5, 6], "trial_id": "self_report_2", "trial_type": "survey-multi-choice", "trial_index": 51, "time_elapsed": 2328471, "internal_node_id": "0.0-4.0-4.0"}}, {"uniqueid": "w48183023:a30611270", "current_trial": 52, "dateTime": 1691161783241, "trialdata": {"rt": 16829, "response": {"gender": "female", "age": "29", "colorblind": "0", "effort": "0"}, "trial_type": "survey-html-form", "trial_index": 52, "time_elapsed": 2345310, "internal_node_id": "0.0-4.0-5.0"}}, {"uniqueid": "w48183023:a30611270", "current_trial": 53, "dateTime": 1691161796548, "trialdata": {"rt": 13299, "response": {"Q0": "No", "Q1": "No", "Q2": ""}, "trial_type": "survey-text", "trial_index": 53, "time_elapsed": 2358617, "internal_node_id": "0.0-4.0-6.0"}}, {"uniqueid": "w48183023:a30611270", "current_trial": 54, "dateTime": 1691161797853, "trialdata": {"rt": 1298, "stimulus": "Press 'Finish HIT' in order to reach the completion code. Once the data has been saved, you will receive the code either in this window or in the original browser window where you started the experiment.\n", "response": 0, "trial_type": "html-button-response", "trial_index": 54, "time_elapsed": 2359922, "internal_node_id": "0.0-5.0"}}, {"uniqueid": "w48183023:a30611270", "current_trial": 55, "dateTime": 1691161798860, "trialdata": {"success": true, "trial_type": "fullscreen", "trial_index": 55, "time_elapsed": 2360929, "internal_node_id": "0.0-6.0"}}], "questiondata": {"params": {"CODE": "C6DMOQA6", "MIN_TIME": 14, "inspectCost": 1, "startTime": "Fri Aug 04 2023 15:30:37 GMT+0100 (British Summer Time)", "bonusRate": 0.002, "variance": "1_2_4_8_44", "branching": "31123"}, "final_score": 1968.4}, "eventdata": [{"eventtype": "initialized", "value": null, "timestamp": 1691159436871, "interval": 0}, {"eventtype": "window_resize", "value": [1024, 756], "timestamp": 1691159436871, "interval": 0}, {"eventtype": "window_resize", "value": [1024, 756], "timestamp": 1691159437192, "interval": 321}, {"eventtype": "window_resize", "value": [1536, 864], "timestamp": 1691159442659, "interval": 5467}, {"eventtype": "focus", "value": "off", "timestamp": 1691159623609, "interval": 180950}, {"eventtype": "focus", "value": "on", "timestamp": 1691159653827, "interval": 30218}, {"eventtype": "focus", "value": "off", "timestamp": 1691161567427, "interval": 1913600}, {"eventtype": "focus", "value": "on", "timestamp": 1691161581953, "interval": 14526}, {"eventtype": "window_resize", "value": [1024, 756], "timestamp": 1691161798099, "interval": 216146}], "useragent": "Mozilla/5.0 (Windows NT 10.0; Win64; x64) AppleWebKit/537.36 (KHTML, like Gecko) Chrome/115.0.0.0 Safari/537.36 Edg/115.0.1901.188", "mode": "live", "id": "w48183023:a30611270", "status": "user data saved", "Beginhit": "2023-08-04 14:29:55.324895", "Beginexp": "2023-08-04 14:30:03.141349", "Endhit": "2023-08-04 15:09:19.017152", "psiturkStatus": 3, "browser": "<redacted>", "platform": "windows", "language": "en-US"}