{"condition": 1, "counterbalance": 0, "assignmentId": "a64128209", "workerId": "w25038199", "hitId": "h89841275", "currenttrial": 62, "bonus": 0, "data": [{"uniqueid": "w25038199:a64128209", "current_trial": 0, "dateTime": 1691143627908, "trialdata": {"success": true, "trial_type": "fullscreen", "trial_index": 0, "time_elapsed": 11109, "internal_node_id": "0.0-0.0"}}, {"uniqueid": "w25038199:a64128209", "current_trial": 1, "dateTime": 1691143652284, "trialdata": {"view_history": [{"page_index": 0, "viewing_time": 24371}], "rt": 24372, "trial_id": "exp_instructions_misaligned", "trial_type": "instructions", "trial_index": 1, "time_elapsed": 35485, "internal_node_id": "0.0-1.0"}}, {"uniqueid": "w25038199:a64128209", "current_trial": 2, "dateTime": 1691143664140, "trialdata": {"success": true, "trial_type": "fullscreen", "trial_index": 2, "time_elapsed": 47341, "internal_node_id": "0.0-2.0-0.0"}}, {"uniqueid": "w25038199:a64128209", "current_trial": 3, "dateTime": 1691143907828, "trialdata": {"view_history": [{"page_index": 0, "viewing_time": 132787}, {"page_index": 1, "viewing_time": 78752}, {"page_index": 2, "viewing_time": 21136}, {"page_index": 3, "viewing_time": 11008}], "rt": 243684, "trial_id": "mouselab_instructions_1_misaligned", "trial_type": "instructions", "trial_index": 3, "time_elapsed": 291029, "internal_node_id": "0.0-2.0-1.0"}}, {"uniqueid": "w25038199:a64128209", "current_trial": 4, "dateTime": 1691143931181, "trialdata": {"revealed_states": [], "clicked_states": [], "num_clicks_accrued": [0, 0, 0, 0, 0, 0, 0, 0, 0, 0, 0, 0, 0], "stateRewards": ["", -10, -10, 10, -10, 10, -10, 10, -10, 10, 10, -10, -10, 10, 10, -10, 10, -10, -10, 10, 10, 10, 10, -10, -10, 10, -10, -10, 10, 10, -10, 10, -10, 10], "withholdReward": false, "trial_id": "practice_1", "block": "test", "trialIndex": 0, "score": -6.5, "costs": 0, "simulationMode": [null, null, null, null, null, null], "rewards": [-10, -10, 10, -10, 10], "path": ["0", "0", "1", "2", "3", "4", "5"], "rt": [5117, 1253, 4, 317, 641, 562], "actions": ["up", "up", "up", "up", "right", "up"], "actionTimes": [null, 1255, 1750, 2582, 3719, 4774], "queries": {"click": {"state": {"target": [], "time": []}, "edge": {"target": [], "time": []}}, "mouseover": {"state": {"target": [], "time": []}, "edge": {"target": [], "time": []}}, "mouseout": {"state": {"target": ["12", "0", "12", "13", "15"], "time": [null, null, null, null, 11]}, "edge": {"target": [], "time": []}}}, "displayed_time": "5.26", "trialTime": 9430, "trial_type": "mouselab-mdp", "trial_index": 4, "time_elapsed": 314382, "internal_node_id": "0.0-2.0-2.0-0.0"}}, {"uniqueid": "w25038199:a64128209", "current_trial": 5, "dateTime": 1691143946958, "trialdata": {"revealed_states": [], "clicked_states": [], "num_clicks_accrued": [0, 0, 0, 0, 0, 0, 0, 0, 0, 0, 0, 0, 0], "stateRewards": ["", -10, 10, 10, -10, -10, 10, 10, 10, -10, 10, -10, 10, -10, 10, -10, -10, -10, -10, -10, -10, -10, -10, -10, 10, 10, -10, -10, -10, 10, -10, 10, 10, -10], "withholdReward": false, "trial_id": "practice_2", "block": "test", "trialIndex": 1, "score": -6.5, "costs": 0, "simulationMode": [null, null, null, null, null], "rewards": [10, -10, 10, -10, -10], "path": ["0", "0", "12", "13", "14", "19", "22"], "rt": [1717, 419, 188, 530, 279], "actions": ["right", "right", "right", "down", "left"], "actionTimes": [6597, 7510, 8196, 9222, 10005], "queries": {"click": {"state": {"target": [], "time": []}, "edge": {"target": [], "time": []}}, "mouseover": {"state": {"target": ["23"], "time": [4957]}, "edge": {"target": [], "time": []}}, "mouseout": {"state": {"target": ["18", "29", "32", "0"], "time": [3707, 3757, 4090, 4886]}, "edge": {"target": [], "time": []}}}, "displayed_time": "10.49", "trialTime": 15670, "trial_type": "mouselab-mdp", "trial_index": 5, "time_elapsed": 330158, "internal_node_id": "0.0-2.0-2.0-1.0"}}, {"uniqueid": "w25038199:a64128209", "current_trial": 6, "dateTime": 1691143965190, "trialdata": {"view_history": [{"page_index": 0, "viewing_time": 10996}, {"page_index": 1, "viewing_time": 7234}], "rt": 18230, "trial_id": "mouselab_instructions_2_misaligned", "trial_type": "instructions", "trial_index": 6, "time_elapsed": 348391, "internal_node_id": "0.0-2.0-3.0"}}, {"uniqueid": "w25038199:a64128209", "current_trial": 7, "dateTime": 1691144012149, "trialdata": {"rt": 46956, "response": {"Q0": "The cost for clicking on nodes may vary between nodes.", "Q1": "The better I perform the higher my bonus will be.", "Q2": "No, the structure of the web will be different each time.", "Q3": "To get the highest total score.", "Q4": "Only before moving the spider.", "Q5": "3 seconds"}, "question_order": [0, 1, 2, 3, 4, 5], "correct": {"Q0": "The cost for clicking on nodes may vary between nodes.", "Q1": "The better I perform the higher my bonus will be.", "Q2": "No, the amount of cash at each node of the web may be different each time.", "Q3": "To get the highest total score.", "Q4": "Only before moving the spider.", "Q5": "3 seconds"}, "trial_id": "mouselab_quiz_misaligned", "trial_type": "survey-multi-choice", "trial_index": 7, "time_elapsed": 395350, "internal_node_id": "0.0-2.0-4.0"}}, {"uniqueid": "w25038199:a64128209", "current_trial": 8, "dateTime": 1691144022125, "trialdata": {"success": true, "trial_type": "fullscreen", "trial_index": 8, "time_elapsed": 405326, "internal_node_id": "0.0-2.1-0.1"}}, {"uniqueid": "w25038199:a64128209", "current_trial": 9, "dateTime": 1691144180045, "trialdata": {"view_history": [{"page_index": 0, "viewing_time": 84606}, {"page_index": 1, "viewing_time": 20480}, {"page_index": 2, "viewing_time": 17383}, {"page_index": 3, "viewing_time": 35448}], "rt": 157918, "trial_id": "mouselab_instructions_1_misaligned", "trial_type": "instructions", "trial_index": 9, "time_elapsed": 563246, "internal_node_id": "0.0-2.1-1.1"}}, {"uniqueid": "w25038199:a64128209", "current_trial": 10, "dateTime": 1691144201646, "trialdata": {"revealed_states": [], "clicked_states": ["24", "26", "29", "33", "31"], "num_clicks_accrued": [0, 0, 0, 0, 0, 0, 0, 0, 0, 0, 0, 0, 0], "stateRewards": ["", -10, -10, 10, -10, 10, -10, 10, -10, 10, 10, -10, -10, 10, 10, -10, 10, -10, -10, 10, 10, 10, 10, -10, -10, 10, -10, -10, 10, 10, -10, 10, -10, 10], "withholdReward": false, "trial_id": "practice_1", "block": "test", "trialIndex": 2, "score": -9, "costs": -2.5, "simulationMode": [null, null, null, null, null], "rewards": [-10, -10, 10, -10, 10], "path": ["0", "0", "23", "24", "25", "30", "31"], "rt": [9354, 1082, 347, 599, 156], "actions": ["left", "left", "left", "down", "right"], "actionTimes": [13471, 15070, 15918, 17022, 17694], "queries": {"click": {"state": {"target": ["24", "26", "29", "33", "31"], "time": [5260, 8881, 9925, 11115, 12434]}, "edge": {"target": [], "time": []}}, "mouseover": {"state": {"target": ["0", "24", "23", "23", "25", "26", "25", "25", "29", "25", "33", "30", "31"], "time": [4604, 4870, 5604, 7954, 8303, 8670, 9271, 9471, 9737, 10487, 10771, 11487, 12270]}, "edge": {"target": [], "time": []}}, "mouseout": {"state": {"target": ["12", "0", "0", "24", "24", "23", "23", "24", "25", "26", "25", "25", "29", "25", "33", "30", "31", "30"], "time": [2935, 3270, 4704, 5351, 5554, 5654, 7970, 8154, 8337, 9071, 9354, 9504, 10137, 10520, 11421, 12170, 15321, 19622]}, "edge": {"target": [], "time": []}}}, "displayed_time": "18.19", "trialTime": 21454, "trial_type": "mouselab-mdp", "trial_index": 10, "time_elapsed": 584847, "internal_node_id": "0.0-2.1-2.1-0.1"}}, {"uniqueid": "w25038199:a64128209", "current_trial": 11, "dateTime": 1691144220575, "trialdata": {"revealed_states": [], "clicked_states": ["8"], "num_clicks_accrued": [0, 0, 0, 0, 0, 0, 0, 0, 0, 0, 0, 0, 0], "stateRewards": ["", -10, 10, 10, -10, -10, 10, 10, 10, -10, 10, -10, 10, -10, 10, -10, -10, -10, -10, -10, -10, -10, -10, -10, 10, 10, -10, -10, -10, 10, -10, 10, 10, -10], "withholdReward": false, "trial_id": "practice_2", "block": "test", "trialIndex": 3, "score": 13, "costs": -0.5, "simulationMode": [null, null, null, null, null], "rewards": [-10, 10, 10, 10, -10], "path": ["0", "0", "1", "2", "3", "8", "9"], "rt": [8382, 36, 606, 50, 2147], "actions": ["up", "up", "up", "left", "up"], "actionTimes": [10820, 11363, 12466, 13010, 15681], "queries": {"click": {"state": {"target": ["8"], "time": [7711]}, "edge": {"target": [], "time": []}}, "mouseover": {"state": {"target": ["18", "2", "2", "7", "7", "3", "8", "3", "3", "3", "2"], "time": [2708, 3225, 3975, 4275, 5558, 6708, 7542, 7925, 8709, 9075, 9708]}, "edge": {"target": [], "time": []}}, "mouseout": {"state": {"target": ["22", "12", "0", "18", "2", "2", "7", "7", "3", "8", "3", "8", "3", "3", "8", "2", "1", "0"], "time": [425, 2108, 2274, 2775, 3726, 4224, 4991, 6275, 7358, 7875, 8276, 8525, 8991, 9142, 9658, 9958, 18075, 18108]}, "edge": {"target": [], "time": []}}}, "displayed_time": "16.18", "trialTime": 18786, "trial_type": "mouselab-mdp", "trial_index": 11, "time_elapsed": 603776, "internal_node_id": "0.0-2.1-2.1-1.1"}}, {"uniqueid": "w25038199:a64128209", "current_trial": 12, "dateTime": 1691144258583, "trialdata": {"view_history": [{"page_index": 0, "viewing_time": 29892}, {"page_index": 1, "viewing_time": 8112}], "rt": 38004, "trial_id": "mouselab_instructions_2_misaligned", "trial_type": "instructions", "trial_index": 12, "time_elapsed": 641783, "internal_node_id": "0.0-2.1-3.1"}}, {"uniqueid": "w25038199:a64128209", "current_trial": 13, "dateTime": 1691144296879, "trialdata": {"rt": 38294, "response": {"Q0": "The cost for clicking on nodes may vary between nodes.", "Q1": "The better I perform the higher my bonus will be.", "Q2": "No, the amount of cash at each node of the web may be different each time.", "Q3": "To get the highest total score.", "Q4": "Only before moving the spider.", "Q5": "3 seconds"}, "question_order": [0, 1, 2, 3, 4, 5], "correct": {"Q0": "The cost for clicking on nodes may vary between nodes.", "Q1": "The better I perform the higher my bonus will be.", "Q2": "No, the amount of cash at each node of the web may be different each time.", "Q3": "To get the highest total score.", "Q4": "Only before moving the spider.", "Q5": "3 seconds"}, "trial_id": "mouselab_quiz_misaligned", "trial_type": "survey-multi-choice", "trial_index": 13, "time_elapsed": 680080, "internal_node_id": "0.0-2.1-4.1"}}, {"uniqueid": "w25038199:a64128209", "current_trial": 14, "dateTime": 1691144303425, "trialdata": {"rt": 6541, "stimulus": "\n<h1> Get ready to start the game! </h1>\n\nThank you for reading the instructions. Get ready start with the 40 rounds of this game.\n<br><br>\nIf you need to take a break, feel free to take one after the end of a round, before continuing to the next one.\n<br><br>\nRemember, the more money the spider gets, the bigger your bonus will be!\n<br><br>\n<div style='text-align: center;'>Press <code>space</code> to begin.</div>\n\n<br><br>\n(If, at any point, the <code>space</code> key does not take you to the next page, click once on the text and try again.)", "response": " ", "trial_id": "mdp_ready", "trial_type": "html-keyboard-response", "trial_index": 14, "time_elapsed": 686626, "internal_node_id": "0.0-4.0-0.0"}}, {"uniqueid": "w25038199:a64128209", "current_trial": 15, "dateTime": 1691144321744, "trialdata": {"revealed_states": [], "clicked_states": ["6", "7"], "num_clicks_accrued": [0, 0, 0, 0, 0, 0, 0, 0, 0, 0, 0, 0, 0], "stateRewards": ["", -2, 2, -5, -6, 10, -66, -58, -10, -11, -63, -70, -1, -4, -5, 7, 66, -64, -43, -3, 45, -37, 4, -2, -2, -6, -4, -30, 33, 43, 15, -32, -65, -59], "withholdReward": false, "trial_id": "mdp_trial_1", "block": "test", "trialIndex": 4, "score": -31.3, "costs": -4.3, "simulationMode": [null, null, null, null, null], "rewards": [-2, -2, -6, 15, -32], "path": ["0", "0", "23", "24", "25", "30", "31"], "rt": [8450, 47, 10, 197, 167], "actions": ["left", "left", "left", "down", "right"], "actionTimes": [10358, 10901, 11446, 12149, 12821], "queries": {"click": {"state": {"target": ["6", "7"], "time": [4209, 7185]}, "edge": {"target": [], "time": []}}, "mouseover": {"state": {"target": ["10", "2", "7", "6", "8", "11", "8", "3", "4", "5", "4", "7", "7", "2", "10", "28", "25", "24", "23"], "time": [2702, 2768, 3518, 4069, 4768, 4902, 5402, 5519, 5752, 6135, 6635, 6752, 7035, 7569, 7770, 8153, 8519, 9187, 9236]}, "edge": {"target": [], "time": []}}, "mouseout": {"state": {"target": ["23", "28", "23", "0", "10", "2", "7", "6", "8", "11", "8", "3", "4", "5", "4", "7", "7", "2", "10", "28", "25", "24", "23", "0", "0"], "time": [436, 768, 901, 1654, 2718, 3452, 3768, 4418, 4835, 5335, 5468, 5702, 6068, 6585, 6736, 6835, 7536, 7653, 8071, 8170, 9170, 9220, 9270, 15669, 15785]}, "edge": {"target": [], "time": []}}}, "displayed_time": "15.91", "trialTime": 18181, "trial_type": "mouselab-mdp", "trial_index": 15, "time_elapsed": 704945, "internal_node_id": "0.0-4.0-1.0-0.0"}}, {"uniqueid": "w25038199:a64128209", "current_trial": 16, "dateTime": 1691144339761, "trialdata": {"revealed_states": [], "clicked_states": ["16"], "num_clicks_accrued": [0, 0, 0, 0, 0, 0, 0, 0, 0, 0, 0, 0, 0], "stateRewards": ["", 1, 3, 1, -13, 52, -28, 67, -14, 3, 63, -70, -1, -4, 7, -11, -10, 47, -18, 6, 69, -9, -61, 2, 3, -6, 10, 63, -34, 40, -6, -79, -35, -32], "withholdReward": false, "trial_id": "mdp_trial_2", "block": "test", "trialIndex": 5, "score": 74.85, "costs": -2.15, "simulationMode": [null, null, null, null, null], "rewards": [-1, -4, 7, 6, 69], "path": ["0", "0", "12", "13", "14", "19", "20"], "rt": [4542, 892, 68, 541, 307], "actions": ["right", "right", "right", "down", "right"], "actionTimes": [5739, 7147, 7708, 8747, 9547], "queries": {"click": {"state": {"target": ["16"], "time": [2521]}, "edge": {"target": [], "time": []}}, "mouseover": {"state": {"target": ["12", "13", "14", "15", "16", "15", "17", "15", "18", "13"], "time": [1421, 1472, 1905, 2121, 2354, 2854, 3371, 3721, 4088, 4854]}, "edge": {"target": [], "time": []}}, "mouseout": {"state": {"target": ["0", "12", "13", "14", "15", "16", "15", "17", "15", "18", "13", "22"], "time": [1405, 1455, 1522, 1988, 2288, 2704, 3205, 3688, 3971, 4604, 5105, 17488]}, "edge": {"target": [], "time": []}}}, "displayed_time": "15.20", "trialTime": 17884, "trial_type": "mouselab-mdp", "trial_index": 16, "time_elapsed": 722961, "internal_node_id": "0.0-4.0-1.0-1.0"}}, {"uniqueid": "w25038199:a64128209", "current_trial": 17, "dateTime": 1691144360320, "trialdata": {"revealed_states": [], "clicked_states": ["27"], "num_clicks_accrued": [0, 0, 0, 0, 0, 0, 0, 0, 0, 0, 0, 0, 0], "stateRewards": ["", -1, 1, 3, -8, -23, -15, -14, -11, -23, 58, 68, 1, 3, 5, 12, -17, -41, -7, -10, -4, 82, 10, 1, 4, -4, 11, 73, 55, -55, -1, -86, -86, 54], "withholdReward": false, "trial_id": "mdp_trial_3", "block": "test", "trialIndex": 6, "score": 82.85, "costs": -2.15, "simulationMode": [null, null, null, null, null, null], "rewards": [1, 4, -4, 11, 73], "path": ["0", "0", "23", "24", "25", "26", "27"], "rt": [4896, 193, 423, 51, 77, 3], "actions": ["left", "left", "left", "left", "up", "up"], "actionTimes": [6360, 6556, 7512, 8073, 8682, 9193], "queries": {"click": {"state": {"target": ["27"], "time": [4158]}, "edge": {"target": [], "time": []}}, "mouseover": {"state": {"target": ["28", "26", "27", "26", "29", "26", "28"], "time": [2904, 3604, 4003, 4804, 4970, 5470, 5522]}, "edge": {"target": [], "time": []}}, "mouseout": {"state": {"target": ["0", "28", "26", "27", "26", "29", "26", "28", "14"], "time": [1204, 3003, 3787, 4337, 4906, 5438, 5504, 5537, 16204]}, "edge": {"target": [], "time": []}}}, "displayed_time": "15.47", "trialTime": 20393, "trial_type": "mouselab-mdp", "trial_index": 17, "time_elapsed": 743521, "internal_node_id": "0.0-4.0-1.0-2.0"}}, {"uniqueid": "w25038199:a64128209", "current_trial": 18, "dateTime": 1691144382113, "trialdata": {"revealed_states": [], "clicked_states": ["32"], "num_clicks_accrued": [0, 0, 0, 0, 0, 0, 0, 0, 0, 0, 0, 0, 0], "stateRewards": ["", 2, -3, -4, -1, 25, -16, 16, 10, -71, -20, -55, 1, 3, -4, -9, 1, 32, 11, -6, 32, -50, -41, -1, 4, 4, -8, 7, -81, 70, 2, -52, 45, -10], "withholdReward": false, "trial_id": "mdp_trial_4", "block": "test", "trialIndex": 7, "score": 51.85, "costs": -2.15, "simulationMode": [null, null, null, null, null, null], "rewards": [-1, 4, 4, 2, 45], "path": ["0", "0", "23", "24", "25", "30", "32"], "rt": [2644, 203, 64, 167, 241, 67], "actions": ["left", "left", "left", "left", "down", "down"], "actionTimes": [7551, 7757, 8335, 9037, 9789, 10349], "queries": {"click": {"state": {"target": ["32"], "time": [6210]}, "edge": {"target": [], "time": []}}, "mouseover": {"state": {"target": ["1", "2", "1", "23", "31", "32"], "time": [5165, 5231, 5315, 5381, 5414, 5948]}, "edge": {"target": [], "time": []}}, "mouseout": {"state": {"target": ["0", "0", "1", "2", "1", "23", "31", "32", "22"], "time": [4047, 5078, 5214, 5298, 5332, 5398, 5481, 6382, 21198]}, "edge": {"target": [], "time": []}}}, "displayed_time": "18.91", "trialTime": 21645, "trial_type": "mouselab-mdp", "trial_index": 18, "time_elapsed": 765314, "internal_node_id": "0.0-4.0-1.0-3.0"}}, {"uniqueid": "w25038199:a64128209", "current_trial": 19, "dateTime": 1691144399680, "trialdata": {"revealed_states": [], "clicked_states": ["20"], "num_clicks_accrued": [0, 0, 0, 0, 0, 0, 0, 0, 0, 0, 0, 0, 0], "stateRewards": ["", 1, 4, 7, -16, -84, -6, -46, -12, -7, -49, -26, -1, 2, -4, 2, 22, 37, -64, 1, 88, -13, -10, 1, -4, -2, 5, 2, -10, -34, 9, 66, 55, 38], "withholdReward": false, "trial_id": "mdp_trial_5", "block": "test", "trialIndex": 8, "score": -17.15, "costs": -2.15, "simulationMode": [null, null, null, null, null], "rewards": [-1, 2, -4, 1, -13], "path": ["0", "0", "12", "13", "14", "19", "21"], "rt": [4102, 164, 11, 342, 51], "actions": ["right", "right", "right", "down", "down"], "actionTimes": [5124, 5780, 6309, 7157, 7716], "queries": {"click": {"state": {"target": ["20"], "time": [1578]}, "edge": {"target": [], "time": []}}, "mouseover": {"state": {"target": ["19", "20"], "time": [1197, 1247]}, "edge": {"target": [], "time": []}}, "mouseout": {"state": {"target": ["20", "19", "0", "19", "20"], "time": [480, 580, 897, 1230, 1831]}, "edge": {"target": [], "time": []}}}, "displayed_time": "15.02", "trialTime": 17412, "trial_type": "mouselab-mdp", "trial_index": 19, "time_elapsed": 782881, "internal_node_id": "0.0-4.0-1.0-4.0"}}, {"uniqueid": "w25038199:a64128209", "current_trial": 20, "dateTime": 1691144418448, "trialdata": {"revealed_states": [], "clicked_states": ["16"], "num_clicks_accrued": [0, 0, 0, 0, 0, 0, 0, 0, 0, 0, 0, 0, 0], "stateRewards": ["", -2, 3, -5, -7, 66, 43, -60, -4, -70, -75, 4, -1, 2, 2, -13, 54, 11, -40, -1, 77, 32, 15, -2, 3, -8, -9, -35, 83, -27, 6, -74, -34, 44], "withholdReward": false, "trial_id": "mdp_trial_6", "block": "test", "trialIndex": 9, "score": 41.85, "costs": -2.15, "simulationMode": [null, null, null, null, null, null], "rewards": [-1, 2, 2, -13, 54], "path": ["0", "0", "12", "13", "14", "15", "16"], "rt": [3244, 174, 247, 88, 162, 54], "actions": ["right", "right", "right", "right", "up", "up"], "actionTimes": [6532, 6707, 7460, 8051, 8708, 9252], "queries": {"click": {"state": {"target": ["16"], "time": [4513]}, "edge": {"target": [], "time": []}}, "mouseover": {"state": {"target": ["12", "18", "15", "16", "17"], "time": [3911, 4078, 4145, 4245, 4745]}, "edge": {"target": [], "time": []}}, "mouseout": {"state": {"target": ["0", "12", "18", "15", "16", "16", "17", "20"], "time": [3878, 3995, 4095, 4178, 4542, 4711, 4761, 18128]}, "edge": {"target": [], "time": []}}}, "displayed_time": "17.29", "trialTime": 18611, "trial_type": "mouselab-mdp", "trial_index": 20, "time_elapsed": 801649, "internal_node_id": "0.0-4.0-1.0-5.0"}}, {"uniqueid": "w25038199:a64128209", "current_trial": 21, "dateTime": 1691144440225, "trialdata": {"revealed_states": [], "clicked_states": [], "num_clicks_accrued": [0, 0, 0, 0, 0, 0, 0, 0, 0, 0, 0, 0, 0], "stateRewards": ["", -1, -3, -6, 14, 41, 18, 63, -14, 80, 21, 17, -2, -4, -2, -5, 13, 70, 8, -4, -64, -10, -20, 2, -1, 4, -1, -17, -55, 42, -7, 47, 54, 15], "withholdReward": false, "trial_id": "mdp_trial_7", "block": "test", "trialIndex": 10, "score": 22, "costs": 0, "simulationMode": [null, null, null, null, null], "rewards": [-1, -3, -6, 14, 18], "path": ["0", "0", "1", "2", "3", "4", "6"], "rt": [7184, 125, 4, 400, 60], "actions": ["up", "up", "up", "right", "right"], "actionTimes": [8982, 9623, 10118, 11031, 11590], "queries": {"click": {"state": {"target": [], "time": []}, "edge": {"target": [], "time": []}}, "mouseover": {"state": {"target": ["12", "7", "3", "2", "2", "3", "5", "4", "7", "12", "0"], "time": [2180, 3163, 3951, 4230, 4981, 5296, 5663, 5996, 6063, 6680, 8413]}, "edge": {"target": [], "time": []}}, "mouseout": {"state": {"target": ["0", "12", "7", "3", "2", "2", "3", "5", "4", "7", "12", "0", "0", "12", "14", "14", "13", "12", "23", "24", "28", "23"], "time": [1613, 2846, 3313, 4096, 4263, 5180, 5463, 5981, 6046, 6130, 6696, 8446, 13713, 14055, 17780, 18180, 18246, 18430, 19980, 20197, 20930, 21313]}, "edge": {"target": [], "time": []}}}, "displayed_time": "15.80", "trialTime": 21623, "trial_type": "mouselab-mdp", "trial_index": 21, "time_elapsed": 823426, "internal_node_id": "0.0-4.0-1.0-6.0"}}, {"uniqueid": "w25038199:a64128209", "current_trial": 22, "dateTime": 1691144462529, "trialdata": {"revealed_states": [], "clicked_states": ["29"], "num_clicks_accrued": [0, 0, 0, 0, 0, 0, 0, 0, 0, 0, 0, 0, 0], "stateRewards": ["", 2, 3, 8, 11, 25, -80, 6, -4, -56, 84, -23, -2, -4, -3, 4, -51, -9, -61, -15, -64, 67, -35, 1, -1, -7, -6, 83, 59, -15, 12, -79, 56, 41], "withholdReward": false, "trial_id": "mdp_trial_8", "block": "test", "trialIndex": 11, "score": -76.15, "costs": -2.15, "simulationMode": [null, null, null, null, null], "rewards": [1, -1, -7, 12, -79], "path": ["0", "0", "23", "24", "25", "30", "31"], "rt": [4936, 201, 14, 57, 114], "actions": ["left", "left", "left", "down", "right"], "actionTimes": [11720, 12409, 12921, 13481, 14104], "queries": {"click": {"state": {"target": ["29"], "time": [8677]}, "edge": {"target": [], "time": []}}, "mouseover": {"state": {"target": ["23", "26", "29", "26", "28", "23"], "time": [6973, 7856, 8456, 8856, 8923, 10689]}, "edge": {"target": [], "time": []}}, "mouseout": {"state": {"target": ["23", "23", "0", "0", "23", "26", "29", "26", "28", "23"], "time": [272, 6266, 6290, 6589, 7057, 8273, 8806, 8890, 8939, 10823]}, "edge": {"target": [], "time": []}}}, "displayed_time": "20.79", "trialTime": 22153, "trial_type": "mouselab-mdp", "trial_index": 22, "time_elapsed": 845730, "internal_node_id": "0.0-4.0-1.0-7.0"}}, {"uniqueid": "w25038199:a64128209", "current_trial": 23, "dateTime": 1691144521986, "trialdata": {"revealed_states": [], "clicked_states": [], "num_clicks_accrued": [0, 0, 0, 0, 0, 0, 0, 0, 0, 0, 0, 0, 0], "stateRewards": ["", 1, 4, -8, -13, -13, -87, -77, -10, -44, 54, 42, 2, -3, -4, 12, -9, -80, 52, 9, 84, -2, -65, 1, -4, -5, -6, 8, 80, 32, 13, -59, -5, -13], "withholdReward": false, "trial_id": "mdp_trial_9", "block": "test", "trialIndex": 12, "score": -61, "costs": 0, "simulationMode": [null, null, null, null, null], "rewards": [2, -3, -4, 9, -65], "path": ["0", "0", "12", "13", "14", "19", "22"], "rt": [48757, 128, 38, 33, 203], "actions": ["right", "right", "right", "down", "left"], "actionTimes": [55224, 55864, 56392, 56936, 57656], "queries": {"click": {"state": {"target": [], "time": []}, "edge": {"target": [], "time": []}}, "mouseover": {"state": {"target": ["23", "24", "25", "25", "24", "0", "13", "7", "27", "28", "1", "14", "20", "22"], "time": [10552, 10652, 10719, 13785, 13835, 13869, 13886, 51836, 52119, 52252, 52402, 52852, 53035, 54454]}, "edge": {"target": [], "time": []}}, "mouseout": {"state": {"target": ["0", "23", "24", "25", "25", "24", "0", "13", "7", "27", "28", "1", "14", "20", "22"], "time": [10402, 10635, 10685, 10768, 13802, 13852, 13885, 13902, 51852, 52136, 52303, 52436, 52953, 53872, 54536]}, "edge": {"target": [], "time": []}}}, "displayed_time": "58.17", "trialTime": 59289, "trial_type": "mouselab-mdp", "trial_index": 23, "time_elapsed": 905187, "internal_node_id": "0.0-4.0-1.0-8.0"}}, {"uniqueid": "w25038199:a64128209", "current_trial": 24, "dateTime": 1691144544657, "trialdata": {"revealed_states": [], "clicked_states": ["16"], "num_clicks_accrued": [0, 0, 0, 0, 0, 0, 0, 0, 0, 0, 0, 0, 0], "stateRewards": ["", 1, -4, -6, -1, -21, 17, -72, 10, 77, 67, -46, -1, 4, -2, 14, -66, -49, -45, -15, -52, 23, -67, 2, -2, -2, 15, -3, 45, -64, 5, -44, 83, 61], "withholdReward": false, "trial_id": "mdp_trial_10", "block": "test", "trialIndex": 13, "score": -36.15, "costs": -2.15, "simulationMode": [null, null, null, null, null, null], "rewards": [-1, 4, -2, 14, -49], "path": ["0", "0", "12", "13", "14", "15", "17"], "rt": [1904, 159, 83, 136, 238, 178], "actions": ["right", "right", "right", "right", "up", "right"], "actionTimes": [9129, 9290, 9902, 10555, 11322, 12010], "queries": {"click": {"state": {"target": ["16"], "time": [7991]}, "edge": {"target": [], "time": []}}, "mouseover": {"state": {"target": ["12", "18", "16", "15"], "time": [7532, 7632, 7748, 8150]}, "edge": {"target": [], "time": []}}, "mouseout": {"state": {"target": ["14", "20", "19", "23", "0", "12", "18", "16", "15"], "time": [3098, 6481, 6498, 6781, 6906, 7565, 7698, 8116, 8233]}, "edge": {"target": [], "time": []}}}, "displayed_time": "21.23", "trialTime": 22506, "trial_type": "mouselab-mdp", "trial_index": 24, "time_elapsed": 927858, "internal_node_id": "0.0-4.0-1.0-9.0"}}, {"uniqueid": "w25038199:a64128209", "current_trial": 25, "dateTime": 1691144561009, "trialdata": {"revealed_states": [], "clicked_states": ["11"], "num_clicks_accrued": [0, 0, 0, 0, 0, 0, 0, 0, 0, 0, 0, 0, 0], "stateRewards": ["", -1, 3, -4, -14, 78, 67, 2, 13, -32, 28, 39, -2, 1, -4, -4, -4, -42, -86, 11, 64, -29, -32, -1, -4, 2, -7, 5, 68, -61, 2, -21, 85, 50], "withholdReward": false, "trial_id": "mdp_trial_11", "block": "test", "trialIndex": 14, "score": 47.85, "costs": -2.15, "simulationMode": [null, null, null, null, null, null], "rewards": [-1, 3, -4, 13, 39], "path": ["0", "0", "1", "2", "3", "8", "11"], "rt": [3235, 142, 322, 33, 30, 21], "actions": ["up", "up", "up", "up", "left", "left"], "actionTimes": [4441, 4585, 5419, 5961, 6506, 7018], "queries": {"click": {"state": {"target": ["11"], "time": [2742]}, "edge": {"target": [], "time": []}}, "mouseover": {"state": {"target": ["1", "2", "8", "11"], "time": [1444, 2193, 2393, 2559]}, "edge": {"target": [], "time": []}}, "mouseout": {"state": {"target": ["1", "1", "1", "2", "8", "11"], "time": [376, 892, 1909, 2259, 2509, 2910]}, "edge": {"target": [], "time": []}}}, "displayed_time": "15.21", "trialTime": 16169, "trial_type": "mouselab-mdp", "trial_index": 25, "time_elapsed": 944210, "internal_node_id": "0.0-4.0-1.0-10.0"}}, {"uniqueid": "w25038199:a64128209", "current_trial": 26, "dateTime": 1691144576882, "trialdata": {"revealed_states": [], "clicked_states": ["9"], "num_clicks_accrued": [0, 0, 0, 0, 0, 0, 0, 0, 0, 0, 0, 0, 0], "stateRewards": ["", -1, 1, 8, -8, -49, 62, -78, 16, 28, -81, 78, -2, -3, -1, -4, 67, 49, -2, -13, -16, -39, 83, 1, -4, 4, -5, -20, 7, 84, 7, -32, -59, 19], "withholdReward": false, "trial_id": "mdp_trial_12", "block": "test", "trialIndex": 15, "score": 49.85, "costs": -2.15, "simulationMode": [null, null, null, null, null, null], "rewards": [-1, 1, 8, 16, 28], "path": ["0", "0", "1", "2", "3", "8", "9"], "rt": [2183, 191, 33, 25, 6, 65], "actions": ["up", "up", "up", "up", "left", "up"], "actionTimes": [3332, 3524, 4068, 4626, 5124, 5699], "queries": {"click": {"state": {"target": ["9"], "time": [1703]}, "edge": {"target": [], "time": []}}, "mouseover": {"state": {"target": ["1", "8", "9", "8"], "time": [1285, 1451, 1650, 2150]}, "edge": {"target": [], "time": []}}, "mouseout": {"state": {"target": ["2", "3", "2", "1", "1", "8", "9", "8"], "time": [183, 484, 616, 649, 1333, 1517, 2050, 2267]}, "edge": {"target": [], "time": []}}}, "displayed_time": "15.15", "trialTime": 15716, "trial_type": "mouselab-mdp", "trial_index": 26, "time_elapsed": 960083, "internal_node_id": "0.0-4.0-1.0-11.0"}}, {"uniqueid": "w25038199:a64128209", "current_trial": 27, "dateTime": 1691144594642, "trialdata": {"revealed_states": [], "clicked_states": ["16"], "num_clicks_accrued": [0, 0, 0, 0, 0, 0, 0, 0, 0, 0, 0, 0, 0], "stateRewards": ["", 2, 4, -5, 7, 81, 35, 6, 11, 14, -72, 42, -1, 2, 3, -7, -77, -44, -40, -15, -85, 51, -32, -2, -1, -5, 7, -74, 47, 52, 16, -49, 48, -46], "withholdReward": false, "trial_id": "mdp_trial_13", "block": "test", "trialIndex": 16, "score": -49.15, "costs": -2.15, "simulationMode": [null, null, null, null, null, null], "rewards": [-1, 2, 3, -7, -44], "path": ["0", "0", "12", "13", "14", "15", "17"], "rt": [3766, 236, 57, 161, 70, 2143], "actions": ["right", "right", "right", "right", "up", "right"], "actionTimes": [5630, 5867, 6428, 7099, 7691, 10331], "queries": {"click": {"state": {"target": ["16"], "time": [4455]}, "edge": {"target": [], "time": []}}, "mouseover": {"state": {"target": ["12", "16"], "time": [3836, 4269]}, "edge": {"target": [], "time": []}}, "mouseout": {"state": {"target": ["2", "1", "12"], "time": [720, 1002, 3870]}, "edge": {"target": [], "time": []}}}, "displayed_time": "15.86", "trialTime": 17595, "trial_type": "mouselab-mdp", "trial_index": 27, "time_elapsed": 977843, "internal_node_id": "0.0-4.0-1.0-12.0"}}, {"uniqueid": "w25038199:a64128209", "current_trial": 28, "dateTime": 1691144617347, "trialdata": {"revealed_states": [], "clicked_states": ["31"], "num_clicks_accrued": [0, 0, 0, 0, 0, 0, 0, 0, 0, 0, 0, 0, 0], "stateRewards": ["", -2, 1, -8, 12, -65, -79, 16, 7, -80, -17, -45, -2, 2, -5, -2, -85, 23, -4, -7, 48, 27, -76, 2, 3, 5, 2, 43, 71, -13, 7, -49, 59, -31], "withholdReward": false, "trial_id": "mdp_trial_14", "block": "test", "trialIndex": 17, "score": 80.85, "costs": -2.15, "simulationMode": [null, null, null, null, null, null], "rewards": [2, 3, 5, 2, 71], "path": ["0", "0", "23", "24", "25", "26", "28"], "rt": [4558, 254, 79, 1783, 157, 945], "actions": ["left", "left", "left", "left", "up", "right"], "actionTimes": [11294, 11550, 12126, 14398, 15054, 16510], "queries": {"click": {"state": {"target": ["31"], "time": [8634]}, "edge": {"target": [], "time": []}}, "mouseover": {"state": {"target": ["23", "25", "30", "31"], "time": [6896, 7230, 7730, 8380]}, "edge": {"target": [], "time": []}}, "mouseout": {"state": {"target": ["16", "15", "13", "12", "23", "25", "30", "31"], "time": [5646, 5746, 6079, 6213, 6913, 7630, 8130, 8996]}, "edge": {"target": [], "time": []}}}, "displayed_time": "20.74", "trialTime": 22527, "trial_type": "mouselab-mdp", "trial_index": 28, "time_elapsed": 1000548, "internal_node_id": "0.0-4.0-1.0-13.0"}}, {"uniqueid": "w25038199:a64128209", "current_trial": 29, "dateTime": 1691144634083, "trialdata": {"revealed_states": [], "clicked_states": ["21"], "num_clicks_accrued": [0, 0, 0, 0, 0, 0, 0, 0, 0, 0, 0, 0, 0], "stateRewards": ["", 1, 2, -3, -6, 50, -7, 7, -7, -80, 21, -1, 2, 2, 4, -1, 33, 84, 1, 14, -53, 81, 6, -2, -2, -3, -9, -87, -38, -59, -5, -74, -3, -71], "withholdReward": false, "trial_id": "mdp_trial_15", "block": "test", "trialIndex": 18, "score": 100.85, "costs": -2.15, "simulationMode": [null, null, null, null, null], "rewards": [2, 2, 4, 14, 81], "path": ["0", "0", "12", "13", "14", "19", "21"], "rt": [4250, 102, 544, 85, 63], "actions": ["right", "right", "right", "down", "down"], "actionTimes": [5408, 6000, 7040, 7632, 8208], "queries": {"click": {"state": {"target": ["21"], "time": [2525]}, "edge": {"target": [], "time": []}}, "mouseover": {"state": {"target": ["12", "22", "21"], "time": [2028, 2112, 2412]}, "edge": {"target": [], "time": []}}, "mouseout": {"state": {"target": ["0", "12", "22", "21"], "time": [2011, 2045, 2161, 2592]}, "edge": {"target": [], "time": []}}}, "displayed_time": "15.16", "trialTime": 16561, "trial_type": "mouselab-mdp", "trial_index": 29, "time_elapsed": 1017283, "internal_node_id": "0.0-4.0-1.0-14.0"}}, {"uniqueid": "w25038199:a64128209", "current_trial": 30, "dateTime": 1691144675329, "trialdata": {"revealed_states": [], "clicked_states": ["17"], "num_clicks_accrued": [0, 0, 0, 0, 0, 0, 0, 0, 0, 0, 0, 0, 0], "stateRewards": ["", 1, 2, -3, -5, 66, -50, -47, -5, 1, 28, -27, 1, 1, -1, -6, 37, -25, 56, 1, -82, -66, -40, -1, -4, -7, 15, -61, -23, 26, 10, 14, -56, 29], "withholdReward": false, "trial_id": "mdp_trial_16", "block": "test", "trialIndex": 19, "score": -66.15, "costs": -2.15, "simulationMode": [null, null, null, null, null, null], "rewards": [1, 1, -1, 1, -66], "path": ["0", "0", "12", "13", "14", "19", "21"], "rt": [3294, 796, 140, 98, 361, 38], "actions": ["right", "right", "right", "right", "down", "down"], "actionTimes": [6902, 7701, 8372, 8980, 9843, 10389], "queries": {"click": {"state": {"target": ["17"], "time": [4929]}, "edge": {"target": [], "time": []}}, "mouseover": {"state": {"target": ["19", "20", "17", "14", "22"], "time": [3881, 4215, 4731, 5215, 5482]}, "edge": {"target": [], "time": []}}, "mouseout": {"state": {"target": ["0", "19", "20", "17", "14"], "time": [3648, 3915, 4481, 5082, 5249]}, "edge": {"target": [], "time": []}}}, "displayed_time": "17.62", "trialTime": 41044, "trial_type": "mouselab-mdp", "trial_index": 30, "time_elapsed": 1058529, "internal_node_id": "0.0-4.0-1.0-15.0"}}, {"uniqueid": "w25038199:a64128209", "current_trial": 31, "dateTime": 1691144692562, "trialdata": {"revealed_states": [], "clicked_states": ["29"], "num_clicks_accrued": [0, 0, 0, 0, 0, 0, 0, 0, 0, 0, 0, 0, 0], "stateRewards": ["", -2, 4, 3, 5, -61, 4, 30, 1, -47, 83, 10, 1, 4, 7, -14, 19, -74, -83, 6, -2, -2, -65, -1, -2, 4, -11, 12, -1, -68, 11, -38, -28, 66], "withholdReward": false, "trial_id": "mdp_trial_17", "block": "test", "trialIndex": 20, "score": -13.15, "costs": -2.15, "simulationMode": [null, null, null, null, null, null], "rewards": [-1, -2, 4, -11, -1], "path": ["0", "0", "23", "24", "25", "26", "28"], "rt": [2594, 173, 45, 37, 161, 39], "actions": ["left", "left", "left", "left", "up", "right"], "actionTimes": [3872, 4047, 4608, 5152, 5824, 6353], "queries": {"click": {"state": {"target": ["29"], "time": [2597]}, "edge": {"target": [], "time": []}}, "mouseover": {"state": {"target": ["23", "24", "25", "26", "29", "25"], "time": [1644, 1694, 1894, 2127, 2361, 2861]}, "edge": {"target": [], "time": []}}, "mouseout": {"state": {"target": ["22", "0", "23", "24", "25", "26", "29"], "time": [727, 1528, 1677, 1711, 2061, 2344, 2778]}, "edge": {"target": [], "time": []}}}, "displayed_time": "15.28", "trialTime": 17040, "trial_type": "mouselab-mdp", "trial_index": 31, "time_elapsed": 1075763, "internal_node_id": "0.0-4.0-1.0-16.0"}}, {"uniqueid": "w25038199:a64128209", "current_trial": 32, "dateTime": 1691144729604, "trialdata": {"revealed_states": [], "clicked_states": ["5"], "num_clicks_accrued": [0, 0, 0, 0, 0, 0, 0, 0, 0, 0, 0, 0, 0], "stateRewards": ["", -2, 1, -7, -8, -37, -76, -87, 11, 30, -63, 80, -1, 4, 2, -1, 42, 17, 52, -3, -75, -80, -68, 2, -3, -5, -15, -48, 82, 24, -7, 5, -22, -71], "withholdReward": false, "trial_id": "mdp_trial_18", "block": "test", "trialIndex": 21, "score": -94.15, "costs": -2.15, "simulationMode": [null, null, null, null, null, null], "rewards": [-2, 1, -7, -8, -76], "path": ["0", "0", "1", "2", "3", "4", "6"], "rt": [2634, 174, 123, 547, 136, 31], "actions": ["up", "up", "up", "up", "right", "right"], "actionTimes": [4651, 4827, 5482, 6538, 7195, 7721], "queries": {"click": {"state": {"target": ["5"], "time": [3037]}, "edge": {"target": [], "time": []}}, "mouseover": {"state": {"target": ["1", "5", "4"], "time": [2439, 2939, 3223]}, "edge": {"target": [], "time": []}}, "mouseout": {"state": {"target": ["25", "31", "0", "1", "5"], "time": [1188, 1488, 2266, 2506, 3156]}, "edge": {"target": [], "time": []}}}, "displayed_time": "16.02", "trialTime": 36858, "trial_type": "mouselab-mdp", "trial_index": 32, "time_elapsed": 1112805, "internal_node_id": "0.0-4.0-1.0-17.0"}}, {"uniqueid": "w25038199:a64128209", "current_trial": 33, "dateTime": 1691144804706, "trialdata": {"revealed_states": [], "clicked_states": ["11"], "num_clicks_accrued": [0, 0, 0, 0, 0, 0, 0, 0, 0, 0, 0, 0, 0], "stateRewards": ["", 1, -4, -6, 11, -20, 8, -30, 1, -38, 88, 42, 2, 3, 5, -12, -8, -74, 30, -8, 67, -19, 42, 2, -1, 4, 13, 50, -68, 2, -8, -15, 87, -46], "withholdReward": false, "trial_id": "mdp_trial_19", "block": "test", "trialIndex": 22, "score": 31.85, "costs": -2.15, "simulationMode": [null, null, null, null, null, null], "rewards": [1, -4, -6, 1, 42], "path": ["0", "0", "1", "2", "3", "8", "11"], "rt": [3876, 174, 84, 832, 92, 66], "actions": ["up", "up", "up", "up", "left", "left"], "actionTimes": [16089, 16266, 16856, 18201, 18796, 19353], "queries": {"click": {"state": {"target": ["11"], "time": [13398]}, "edge": {"target": [], "time": []}}, "mouseover": {"state": {"target": ["1", "2", "8", "11"], "time": [12585, 12635, 12818, 13219]}, "edge": {"target": [], "time": []}}, "mouseout": {"state": {"target": ["4", "0", "1", "2", "8", "11", "11", "19", "12", "1", "0"], "time": [8673, 12268, 12618, 12735, 12969, 13467, 13636, 72585, 72918, 73102, 73152]}, "edge": {"target": [], "time": []}}}, "displayed_time": "26.22", "trialTime": 74858, "trial_type": "mouselab-mdp", "trial_index": 33, "time_elapsed": 1187907, "internal_node_id": "0.0-4.0-1.0-18.0"}}, {"uniqueid": "w25038199:a64128209", "current_trial": 34, "dateTime": 1691144824307, "trialdata": {"revealed_states": [], "clicked_states": [], "num_clicks_accrued": [0, 0, 0, 0, 0, 0, 0, 0, 0, 0, 0, 0, 0], "stateRewards": ["", 1, -3, 4, 13, -72, 52, 5, 5, -58, 5, 14, 2, 1, 3, -14, -86, -4, 73, 6, -58, -50, 49, 2, -3, -4, 2, 33, -41, 42, -11, 81, 45, 53], "withholdReward": false, "trial_id": "mdp_trial_20", "block": "test", "trialIndex": 23, "score": 67, "costs": 0, "simulationMode": [null, null, null, null, null], "rewards": [1, -3, 4, 13, 52], "path": ["0", "0", "1", "2", "3", "4", "6"], "rt": [5479, 125, 1013, 406, 355], "actions": ["up", "up", "up", "right", "right"], "actionTimes": [8308, 8950, 10455, 11366, 12213], "queries": {"click": {"state": {"target": [], "time": []}, "edge": {"target": [], "time": []}}, "mouseover": {"state": {"target": ["1", "13", "19", "20", "19"], "time": [5575, 5725, 5874, 6691, 7107]}, "edge": {"target": [], "time": []}}, "mouseout": {"state": {"target": ["12", "1", "13", "19", "20", "19", "19"], "time": [2174, 5674, 5774, 6607, 6991, 7341, 16574]}, "edge": {"target": [], "time": []}}}, "displayed_time": "16.83", "trialTime": 19414, "trial_type": "mouselab-mdp", "trial_index": 34, "time_elapsed": 1207508, "internal_node_id": "0.0-4.0-1.0-19.0"}}, {"uniqueid": "w25038199:a64128209", "current_trial": 35, "dateTime": 1691144907299, "trialdata": {"revealed_states": [], "clicked_states": ["16"], "num_clicks_accrued": [0, 0, 0, 0, 0, 0, 0, 0, 0, 0, 0, 0, 0], "stateRewards": ["", -1, -3, -7, -4, -85, -70, 79, 8, 84, -66, 42, 2, -2, -3, -16, -54, -66, 68, -3, 21, -14, 7, -2, -1, -3, -8, 75, 80, 86, -7, -84, 73, -16], "withholdReward": false, "trial_id": "mdp_trial_21", "block": "test", "trialIndex": 24, "score": -22.15, "costs": -2.15, "simulationMode": [null, null, null, null, null, null], "rewards": [2, -2, -3, -3, -14], "path": ["0", "0", "12", "13", "14", "19", "21"], "rt": [2734, 238, 129, 120, 655, 65], "actions": ["right", "right", "right", "right", "down", "down"], "actionTimes": [4690, 4930, 5569, 6193, 7377, 7938], "queries": {"click": {"state": {"target": ["16"], "time": [3479]}, "edge": {"target": [], "time": []}}, "mouseover": {"state": {"target": ["7", "16", "15", "16", "15"], "time": [2305, 2438, 2604, 3290, 3739]}, "edge": {"target": [], "time": []}}, "mouseout": {"state": {"target": ["31", "0", "7", "16", "15", "16", "15", "18", "2"], "time": [530, 1825, 2321, 2538, 2705, 3638, 10672, 10805, 81872]}, "edge": {"target": [], "time": []}}}, "displayed_time": "15.96", "trialTime": 82770, "trial_type": "mouselab-mdp", "trial_index": 35, "time_elapsed": 1290500, "internal_node_id": "0.0-4.0-1.0-20.0"}}, {"uniqueid": "w25038199:a64128209", "current_trial": 36, "dateTime": 1691144925587, "trialdata": {"revealed_states": [], "clicked_states": ["16"], "num_clicks_accrued": [0, 0, 0, 0, 0, 0, 0, 0, 0, 0, 0, 0, 0], "stateRewards": ["", -2, 3, 3, -14, 62, 36, 49, 16, 11, 17, -84, 2, -1, 6, 2, -82, -73, 49, -6, -87, 48, 50, -1, -2, -1, -16, -11, 37, -44, 4, 55, 73, -10], "withholdReward": false, "trial_id": "mdp_trial_22", "block": "test", "trialIndex": 25, "score": -66.15, "costs": -2.15, "simulationMode": [null, null, null, null, null, null], "rewards": [2, -1, 6, 2, -73], "path": ["0", "0", "12", "13", "14", "15", "17"], "rt": [3444, 201, 78, 41, 83, 635], "actions": ["right", "right", "right", "right", "up", "right"], "actionTimes": [6169, 6371, 6963, 7524, 8116, 9268], "queries": {"click": {"state": {"target": ["16"], "time": [4144]}, "edge": {"target": [], "time": []}}, "mouseover": {"state": {"target": ["16", "15"], "time": [3965, 4332]}, "edge": {"target": [], "time": []}}, "mouseout": {"state": {"target": ["23", "0", "16", "15", "13"], "time": [1331, 2965, 4299, 11165, 11198]}, "edge": {"target": [], "time": []}}}, "displayed_time": "16.73", "trialTime": 18068, "trial_type": "mouselab-mdp", "trial_index": 36, "time_elapsed": 1308787, "internal_node_id": "0.0-4.0-1.0-21.0"}}, {"uniqueid": "w25038199:a64128209", "current_trial": 37, "dateTime": 1691144942803, "trialdata": {"revealed_states": [], "clicked_states": ["27"], "num_clicks_accrued": [0, 0, 0, 0, 0, 0, 0, 0, 0, 0, 0, 0, 0], "stateRewards": ["", 2, -4, -4, 13, -80, 62, 13, -11, 57, -13, -44, 1, 4, 3, -4, -29, -88, 15, 16, -58, 68, -45, -1, -3, -1, -9, -44, -86, -19, -7, -36, 59, 66], "withholdReward": false, "trial_id": "mdp_trial_23", "block": "test", "trialIndex": 26, "score": -102.15, "costs": -2.15, "simulationMode": [null, null, null, null, null], "rewards": [-1, -3, -1, -9, -86], "path": ["0", "0", "23", "24", "25", "26", "28"], "rt": [5882, 142, 564, 139, 496], "actions": ["left", "left", "left", "up", "right"], "actionTimes": [6984, 7623, 8679, 9320, 10328], "queries": {"click": {"state": {"target": ["27"], "time": [3516]}, "edge": {"target": [], "time": []}}, "mouseover": {"state": {"target": ["23", "24", "25", "25", "26", "26", "27", "28"], "time": [1480, 1597, 1731, 2731, 2981, 3214, 3314, 4064]}, "edge": {"target": [], "time": []}}, "mouseout": {"state": {"target": ["0", "23", "24", "25", "25", "26", "26", "27", "28"], "time": [1448, 1530, 1680, 1937, 2880, 3097, 3231, 3764, 4381]}, "edge": {"target": [], "time": []}}}, "displayed_time": "15.10", "trialTime": 17016, "trial_type": "mouselab-mdp", "trial_index": 37, "time_elapsed": 1326003, "internal_node_id": "0.0-4.0-1.0-22.0"}}, {"uniqueid": "w25038199:a64128209", "current_trial": 38, "dateTime": 1691144959154, "trialdata": {"revealed_states": [], "clicked_states": ["32"], "num_clicks_accrued": [0, 0, 0, 0, 0, 0, 0, 0, 0, 0, 0, 0, 0], "stateRewards": ["", 1, 2, -6, -13, -51, 22, -4, -12, -44, -12, 6, -2, -2, -2, -14, -46, -4, -77, -2, 36, -79, 41, 2, -4, 2, -6, -55, 59, 70, -5, 39, -19, 24], "withholdReward": false, "trial_id": "mdp_trial_24", "block": "test", "trialIndex": 27, "score": 31.85, "costs": -2.15, "simulationMode": [null, null, null, null, null], "rewards": [2, -4, 2, -5, 39], "path": ["0", "0", "23", "24", "25", "30", "31"], "rt": [4475, 13, 71, 64, 90], "actions": ["left", "left", "left", "down", "right"], "actionTimes": [5390, 5903, 6495, 7054, 7647], "queries": {"click": {"state": {"target": ["32"], "time": [1666]}, "edge": {"target": [], "time": []}}, "mouseover": {"state": {"target": ["31", "32"], "time": [1322, 1472]}, "edge": {"target": [], "time": []}}, "mouseout": {"state": {"target": ["28", "23", "0", "31", "32"], "time": [123, 338, 957, 1356, 1719]}, "edge": {"target": [], "time": []}}}, "displayed_time": "14.92", "trialTime": 16141, "trial_type": "mouselab-mdp", "trial_index": 38, "time_elapsed": 1342354, "internal_node_id": "0.0-4.0-1.0-23.0"}}, {"uniqueid": "w25038199:a64128209", "current_trial": 39, "dateTime": 1691144975282, "trialdata": {"revealed_states": [], "clicked_states": ["20"], "num_clicks_accrued": [0, 0, 0, 0, 0, 0, 0, 0, 0, 0, 0, 0, 0], "stateRewards": ["", -2, 2, -5, 1, 42, -63, -58, -6, 2, 16, 81, -2, 4, 7, -10, 33, 3, -33, -2, -52, -84, -27, 2, -3, -3, 15, -74, -14, -5, -5, -84, 79, -31], "withholdReward": false, "trial_id": "mdp_trial_25", "block": "test", "trialIndex": 28, "score": -0.15000000000000036, "costs": -2.15, "simulationMode": [null, null, null, null, null], "rewards": [-2, 4, 7, -10, 3], "path": ["0", "0", "12", "13", "14", "15", "17"], "rt": [4306, 263, 169, 78, 374], "actions": ["right", "right", "right", "up", "right"], "actionTimes": [5518, 6286, 6975, 7551, 8415], "queries": {"click": {"state": {"target": ["20"], "time": [2019]}, "edge": {"target": [], "time": []}}, "mouseover": {"state": {"target": ["12", "13", "14", "20"], "time": [1254, 1304, 1355, 1871]}, "edge": {"target": [], "time": []}}, "mouseout": {"state": {"target": ["22", "12", "12", "13", "14", "20"], "time": [770, 887, 1287, 1337, 1387, 2223]}, "edge": {"target": [], "time": []}}}, "displayed_time": "15.21", "trialTime": 15902, "trial_type": "mouselab-mdp", "trial_index": 39, "time_elapsed": 1358483, "internal_node_id": "0.0-4.0-1.0-24.0"}}, {"uniqueid": "w25038199:a64128209", "current_trial": 40, "dateTime": 1691144993651, "trialdata": {"revealed_states": [], "clicked_states": ["7"], "num_clicks_accrued": [0, 0, 0, 0, 0, 0, 0, 0, 0, 0, 0, 0, 0], "stateRewards": ["", -2, 2, 2, -6, 9, 37, 50, -13, -7, -18, -75, -2, -4, 4, 7, 23, -57, -66, -7, -81, -48, -76, 1, 1, -8, 1, 51, -2, 70, 14, 59, 71, -37], "withholdReward": false, "trial_id": "mdp_trial_26", "block": "test", "trialIndex": 29, "score": 43.85, "costs": -2.15, "simulationMode": [null, null, null, null, null], "rewards": [-2, 2, 2, -6, 50], "path": ["0", "0", "1", "2", "3", "4", "7"], "rt": [5137, 116, 138, 128, 184], "actions": ["up", "up", "up", "right", "down"], "actionTimes": [6714, 7322, 7978, 8618, 9290], "queries": {"click": {"state": {"target": ["7"], "time": [3631]}, "edge": {"target": [], "time": []}}, "mouseover": {"state": {"target": ["0", "12", "13", "18", "2", "7"], "time": [1590, 1787, 2037, 2370, 2688, 3420]}, "edge": {"target": [], "time": []}}, "mouseout": {"state": {"target": ["0", "0", "12", "13", "18", "2", "7"], "time": [1353, 1754, 1988, 2121, 2420, 3121, 3822]}, "edge": {"target": [], "time": []}}}, "displayed_time": "15.58", "trialTime": 18154, "trial_type": "mouselab-mdp", "trial_index": 40, "time_elapsed": 1376852, "internal_node_id": "0.0-4.0-1.0-25.0"}}, {"uniqueid": "w25038199:a64128209", "current_trial": 41, "dateTime": 1691145011860, "trialdata": {"revealed_states": [], "clicked_states": ["9"], "num_clicks_accrued": [0, 0, 0, 0, 0, 0, 0, 0, 0, 0, 0, 0, 0], "stateRewards": ["", -2, -3, 8, -4, -30, 31, 69, 9, 66, 87, 64, -2, 2, 8, 5, 47, 16, -39, -8, -54, 51, -19, 1, -2, -2, -11, -25, -26, 43, -9, 19, -84, 86], "withholdReward": false, "trial_id": "mdp_trial_27", "block": "test", "trialIndex": 30, "score": 75.85, "costs": -2.15, "simulationMode": [null, null, null, null, null], "rewards": [-2, -3, 8, 9, 66], "path": ["0", "0", "1", "2", "3", "8", "9"], "rt": [5347, 45, 23, 114, 714], "actions": ["up", "up", "up", "left", "up"], "actionTimes": [6845, 7388, 7933, 8540, 9773], "queries": {"click": {"state": {"target": ["9"], "time": [3674]}, "edge": {"target": [], "time": []}}, "mouseover": {"state": {"target": ["1", "1", "2", "3", "8", "9", "8", "2"], "time": [2041, 2524, 2641, 2857, 2991, 3457, 3908, 4225]}, "edge": {"target": [], "time": []}}, "mouseout": {"state": {"target": ["12", "0", "1", "1", "2", "3", "8", "9", "8"], "time": [375, 1307, 2174, 2608, 2741, 2958, 3091, 3858, 4025]}, "edge": {"target": [], "time": []}}}, "displayed_time": "15.50", "trialTime": 17950, "trial_type": "mouselab-mdp", "trial_index": 41, "time_elapsed": 1395061, "internal_node_id": "0.0-4.0-1.0-26.0"}}, {"uniqueid": "w25038199:a64128209", "current_trial": 42, "dateTime": 1691145032436, "trialdata": {"revealed_states": [], "clicked_states": ["10"], "num_clicks_accrued": [0, 0, 0, 0, 0, 0, 0, 0, 0, 0, 0, 0, 0], "stateRewards": ["", 2, -4, 4, 9, 69, 9, -75, 12, -86, 66, 25, -1, 3, 2, -13, -88, -3, 1, 4, -69, 49, -84, 2, -1, 4, 2, -18, -81, -52, -15, -69, -54, 25], "withholdReward": false, "trial_id": "mdp_trial_28", "block": "test", "trialIndex": 31, "score": 77.85, "costs": -2.15, "simulationMode": [null, null, null, null, null], "rewards": [2, -4, 4, 12, 66], "path": ["0", "0", "1", "2", "3", "8", "10"], "rt": [4073, 136, 13, 202, 493], "actions": ["up", "up", "up", "left", "down"], "actionTimes": [8405, 9061, 9589, 10294, 11285], "queries": {"click": {"state": {"target": ["10"], "time": [5290]}, "edge": {"target": [], "time": []}}, "mouseover": {"state": {"target": ["1", "10"], "time": [4657, 4824]}, "edge": {"target": [], "time": []}}, "mouseout": {"state": {"target": ["2", "2", "0", "1", "10"], "time": [2670, 2857, 4573, 4724, 5374]}, "edge": {"target": [], "time": []}}}, "displayed_time": "18.34", "trialTime": 20342, "trial_type": "mouselab-mdp", "trial_index": 42, "time_elapsed": 1415637, "internal_node_id": "0.0-4.0-1.0-27.0"}}, {"uniqueid": "w25038199:a64128209", "current_trial": 43, "dateTime": 1691145050708, "trialdata": {"revealed_states": [], "clicked_states": ["18"], "num_clicks_accrued": [0, 0, 0, 0, 0, 0, 0, 0, 0, 0, 0, 0, 0], "stateRewards": ["", -2, 2, 3, -7, -31, -33, 29, -8, -57, 50, -83, -1, -1, 5, 13, -23, -62, 25, 5, -66, -85, 14, 1, -2, -1, 16, 71, 33, -19, -14, 5, -43, 79], "withholdReward": false, "trial_id": "mdp_trial_29", "block": "test", "trialIndex": 32, "score": 38.85, "costs": -2.15, "simulationMode": [null, null, null, null, null], "rewards": [-1, -1, 5, 13, 25], "path": ["0", "0", "12", "13", "14", "15", "18"], "rt": [5366, 37, 109, 86, 174], "actions": ["right", "right", "right", "up", "left"], "actionTimes": [7929, 8458, 9080, 9657, 10330], "queries": {"click": {"state": {"target": ["18"], "time": [4727]}, "edge": {"target": [], "time": []}}, "mouseover": {"state": {"target": ["15", "18", "18"], "time": [3902, 4153, 4519]}, "edge": {"target": [], "time": []}}, "mouseout": {"state": {"target": ["10", "2", "0", "15", "18", "18"], "time": [1602, 1618, 2402, 4102, 4235, 5020]}, "edge": {"target": [], "time": []}}}, "displayed_time": "16.56", "trialTime": 18042, "trial_type": "mouselab-mdp", "trial_index": 43, "time_elapsed": 1433908, "internal_node_id": "0.0-4.0-1.0-28.0"}}, {"uniqueid": "w25038199:a64128209", "current_trial": 44, "dateTime": 1691145068563, "trialdata": {"revealed_states": [], "clicked_states": ["17"], "num_clicks_accrued": [0, 0, 0, 0, 0, 0, 0, 0, 0, 0, 0, 0, 0], "stateRewards": ["", 1, 4, 5, -5, 58, -80, 75, 6, 25, -39, 46, 2, -2, 4, 2, 59, 31, -22, -12, -61, 15, 72, 1, -2, -7, 8, 77, 76, -23, -7, 71, -15, -3], "withholdReward": false, "trial_id": "mdp_trial_30", "block": "test", "trialIndex": 33, "score": 34.85, "costs": -2.15, "simulationMode": [null, null, null, null, null], "rewards": [2, -2, 4, 2, 31], "path": ["0", "0", "12", "13", "14", "15", "17"], "rt": [4510, 115, 155, 111, 183], "actions": ["right", "right", "right", "up", "right"], "actionTimes": [6047, 6671, 7343, 7951, 8623], "queries": {"click": {"state": {"target": ["17"], "time": [2661]}, "edge": {"target": [], "time": []}}, "mouseover": {"state": {"target": ["12", "13", "14", "17"], "time": [1970, 2020, 2087, 2471]}, "edge": {"target": [], "time": []}}, "mouseout": {"state": {"target": ["13", "12", "12", "13", "14"], "time": [1020, 1203, 2003, 2053, 2254]}, "edge": {"target": [], "time": []}}}, "displayed_time": "15.54", "trialTime": 17615, "trial_type": "mouselab-mdp", "trial_index": 44, "time_elapsed": 1451764, "internal_node_id": "0.0-4.0-1.0-29.0"}}, {"uniqueid": "w25038199:a64128209", "current_trial": 45, "dateTime": 1691145184148, "trialdata": {"revealed_states": [], "clicked_states": ["16"], "num_clicks_accrued": [0, 0, 0, 0, 0, 0, 0, 0, 0, 0, 0, 0, 0], "stateRewards": ["", -2, -1, -4, -15, -14, -67, 32, -3, -59, 63, 31, 2, -1, -7, -15, 71, -66, -27, -3, -54, -39, 72, 2, 1, 1, -13, 77, -40, 35, -9, 35, 75, 57], "withholdReward": false, "trial_id": "mdp_trial_31", "block": "test", "trialIndex": 34, "score": 47.85, "costs": -2.15, "simulationMode": [null, null, null, null, null], "rewards": [2, -1, -7, -15, 71], "path": ["0", "0", "12", "13", "14", "15", "16"], "rt": [4442, 46, 392, 133, 44], "actions": ["right", "right", "right", "up", "up"], "actionTimes": [6735, 7295, 8190, 8815, 9375], "queries": {"click": {"state": {"target": ["16"], "time": [3597]}, "edge": {"target": [], "time": []}}, "mouseover": {"state": {"target": ["12", "13", "16"], "time": [2731, 2880, 3415]}, "edge": {"target": [], "time": []}}, "mouseout": {"state": {"target": ["17", "15", "18", "12", "13", "16", "15", "13", "22"], "time": [1664, 1681, 1698, 2764, 2931, 113964, 114381, 114449, 114498]}, "edge": {"target": [], "time": []}}}, "displayed_time": "16.30", "trialTime": 115343, "trial_type": "mouselab-mdp", "trial_index": 45, "time_elapsed": 1567348, "internal_node_id": "0.0-4.0-1.0-30.0"}}, {"uniqueid": "w25038199:a64128209", "current_trial": 46, "dateTime": 1691145200388, "trialdata": {"revealed_states": [], "clicked_states": ["10"], "num_clicks_accrued": [0, 0, 0, 0, 0, 0, 0, 0, 0, 0, 0, 0, 0], "stateRewards": ["", -1, -3, 4, -10, -5, 79, -87, -2, 53, 29, -20, -2, -1, -5, 10, 27, 86, 46, -16, -29, 40, 3, 2, 4, -1, -6, 37, 79, -29, 7, 86, -62, 29], "withholdReward": false, "trial_id": "mdp_trial_32", "block": "test", "trialIndex": 35, "score": 24.85, "costs": -2.15, "simulationMode": [null, null, null, null, null], "rewards": [-1, -3, 4, -2, 29], "path": ["0", "0", "1", "2", "3", "8", "10"], "rt": [3936, 54, 32, 138, 543], "actions": ["up", "up", "up", "left", "down"], "actionTimes": [4937, 5497, 6025, 6698, 7753], "queries": {"click": {"state": {"target": ["10"], "time": [2126]}, "edge": {"target": [], "time": []}}, "mouseover": {"state": {"target": ["1", "2", "3", "10", "10"], "time": [1059, 1109, 1159, 1426, 1975]}, "edge": {"target": [], "time": []}}, "mouseout": {"state": {"target": ["0", "1", "2", "3", "10", "10"], "time": [708, 1092, 1142, 1192, 1642, 2292]}, "edge": {"target": [], "time": []}}}, "displayed_time": "15.00", "trialTime": 15962, "trial_type": "mouselab-mdp", "trial_index": 46, "time_elapsed": 1583589, "internal_node_id": "0.0-4.0-1.0-31.0"}}, {"uniqueid": "w25038199:a64128209", "current_trial": 47, "dateTime": 1691145217571, "trialdata": {"revealed_states": [], "clicked_states": ["31"], "num_clicks_accrued": [0, 0, 0, 0, 0, 0, 0, 0, 0, 0, 0, 0, 0], "stateRewards": ["", 2, 2, 3, -15, 23, -14, 73, -7, -32, -20, -6, 1, 1, -5, -12, 73, 6, -84, 11, -81, -57, 13, -2, -1, -4, -8, -52, -58, 49, 13, 5, -41, -41], "withholdReward": false, "trial_id": "mdp_trial_33", "block": "test", "trialIndex": 36, "score": 8.85, "costs": -2.15, "simulationMode": [null, null, null, null, null, null], "rewards": [-2, -1, -4, 13, 5], "path": ["0", "0", "23", "24", "25", "30", "31"], "rt": [4639, 574, 54, 209, 5, 61], "actions": ["left", "left", "left", "left", "down", "right"], "actionTimes": [6896, 7472, 8033, 8769, 9284, 9872], "queries": {"click": {"state": {"target": ["31"], "time": [4348]}, "edge": {"target": [], "time": []}}, "mouseover": {"state": {"target": ["0", "23", "31"], "time": [3818, 3926, 4026]}, "edge": {"target": [], "time": []}}, "mouseout": {"state": {"target": ["0", "0", "0", "23", "31"], "time": [1642, 2076, 3909, 3976, 4442]}, "edge": {"target": [], "time": []}}}, "displayed_time": "16.26", "trialTime": 16912, "trial_type": "mouselab-mdp", "trial_index": 47, "time_elapsed": 1600772, "internal_node_id": "0.0-4.0-1.0-32.0"}}, {"uniqueid": "w25038199:a64128209", "current_trial": 48, "dateTime": 1691145274835, "trialdata": {"revealed_states": [], "clicked_states": ["28"], "num_clicks_accrued": [0, 0, 0, 0, 0, 0, 0, 0, 0, 0, 0, 0, 0], "stateRewards": ["", 1, 4, -4, 14, 35, 51, 19, -13, 54, 78, -74, -2, -1, -3, 13, -11, -42, -73, -15, -24, -3, -69, 2, -1, 5, 16, -27, 73, 58, 9, -60, 5, -60], "withholdReward": false, "trial_id": "mdp_trial_34", "block": "test", "trialIndex": 37, "score": 92.85, "costs": -2.15, "simulationMode": [null, null, null, null, null, null], "rewards": [2, -1, 5, 16, 73], "path": ["0", "0", "23", "24", "25", "26", "28"], "rt": [3139, 440, 22, 53, 92, 100], "actions": ["left", "left", "left", "left", "up", "right"], "actionTimes": [5008, 5450, 5994, 6558, 7178, 7786], "queries": {"click": {"state": {"target": ["28"], "time": [4165]}, "edge": {"target": [], "time": []}}, "mouseover": {"state": {"target": ["0", "23", "28", "28"], "time": [3563, 3651, 3851, 4101]}, "edge": {"target": [], "time": []}}, "mouseout": {"state": {"target": ["31", "0", "0", "23", "28", "28", "28", "27", "28", "0", "23"], "time": [970, 1284, 3618, 3801, 3918, 4235, 54028, 54401, 54501, 55218, 55301]}, "edge": {"target": [], "time": []}}}, "displayed_time": "15.87", "trialTime": 57019, "trial_type": "mouselab-mdp", "trial_index": 48, "time_elapsed": 1658036, "internal_node_id": "0.0-4.0-1.0-33.0"}}, {"uniqueid": "w25038199:a64128209", "current_trial": 49, "dateTime": 1691145427795, "trialdata": {"revealed_states": [], "clicked_states": ["20"], "num_clicks_accrued": [0, 0, 0, 0, 0, 0, 0, 0, 0, 0, 0, 0, 0], "stateRewards": ["", 1, -4, -4, 8, 1, -79, 68, -10, -79, 8, -74, -1, -3, -6, 14, 43, 23, 9, 5, -51, 63, 61, -2, 4, 6, -10, 69, -32, 57, 15, -80, -80, -77], "withholdReward": false, "trial_id": "mdp_trial_35", "block": "test", "trialIndex": 38, "score": 55.85, "costs": -2.15, "simulationMode": [null, null, null, null, null], "rewards": [-1, -3, -6, 5, 63], "path": ["0", "0", "12", "13", "14", "19", "21"], "rt": [8071, 83, 107, 275, 3], "actions": ["right", "right", "right", "down", "down"], "actionTimes": [105562, 106138, 106762, 107531, 108044], "queries": {"click": {"state": {"target": ["20"], "time": [99094]}, "edge": {"target": [], "time": []}}, "mouseover": {"state": {"target": ["12", "13", "20"], "time": [97922, 98221, 98921]}, "edge": {"target": [], "time": []}}, "mouseout": {"state": {"target": ["0", "12", "13", "20", "20", "19"], "time": [97114, 98188, 98238, 99149, 149054, 149221]}, "edge": {"target": [], "time": []}}}, "displayed_time": "111.49", "trialTime": 152698, "trial_type": "mouselab-mdp", "trial_index": 49, "time_elapsed": 1810996, "internal_node_id": "0.0-4.0-1.0-34.0"}}, {"uniqueid": "w25038199:a64128209", "current_trial": 50, "dateTime": 1691145447909, "trialdata": {"revealed_states": [], "clicked_states": ["33"], "num_clicks_accrued": [0, 0, 0, 0, 0, 0, 0, 0, 0, 0, 0, 0, 0], "stateRewards": ["", -1, -1, 7, -15, -43, -21, -84, -9, -45, -66, 2, 1, -2, 2, 8, -27, 44, -52, -5, -84, 11, 53, 1, 4, -4, 16, 83, -82, -15, -16, 68, -43, 81], "withholdReward": false, "trial_id": "mdp_trial_36", "block": "test", "trialIndex": 39, "score": 63.85, "costs": -2.15, "simulationMode": [null, null, null, null, null], "rewards": [1, 4, -4, -16, 81], "path": ["0", "0", "23", "24", "25", "30", "33"], "rt": [5353, 133, 139, 53, 157], "actions": ["left", "left", "left", "down", "left"], "actionTimes": [8099, 8739, 9393, 9940, 10610], "queries": {"click": {"state": {"target": ["33"], "time": [4664]}, "edge": {"target": [], "time": []}}, "mouseover": {"state": {"target": ["1", "31", "25", "25", "30", "30", "33", "30", "25"], "time": [2902, 3369, 3502, 3686, 4169, 4319, 4486, 5069, 6469]}, "edge": {"target": [], "time": []}}, "mouseout": {"state": {"target": ["0", "1", "31", "25", "25", "30", "30", "33", "30", "25"], "time": [2569, 2936, 3386, 3519, 4020, 4186, 4403, 5019, 5119, 6519]}, "edge": {"target": [], "time": []}}}, "displayed_time": "16.75", "trialTime": 19859, "trial_type": "mouselab-mdp", "trial_index": 50, "time_elapsed": 1831110, "internal_node_id": "0.0-4.0-1.0-35.0"}}, {"uniqueid": "w25038199:a64128209", "current_trial": 51, "dateTime": 1691145466389, "trialdata": {"revealed_states": [], "clicked_states": ["20"], "num_clicks_accrued": [0, 0, 0, 0, 0, 0, 0, 0, 0, 0, 0, 0, 0], "stateRewards": ["", 1, 2, -5, 14, 54, -14, -25, 16, -5, -87, 78, -1, 1, 3, -3, 52, 53, 53, -10, 73, -69, -48, 2, 3, 1, 8, -62, -7, 85, 7, 82, 52, -28], "withholdReward": false, "trial_id": "mdp_trial_37", "block": "test", "trialIndex": 40, "score": 63.85, "costs": -2.15, "simulationMode": [null, null, null, null, null], "rewards": [-1, 1, 3, -10, 73], "path": ["0", "0", "12", "13", "14", "19", "20"], "rt": [8068, 123, 131, 1687, 3], "actions": ["right", "right", "right", "down", "right"], "actionTimes": [9091, 9714, 10339, 12531, 13045], "queries": {"click": {"state": {"target": ["20"], "time": [2152]}, "edge": {"target": [], "time": []}}, "mouseover": {"state": {"target": ["1", "2", "3", "2", "14", "20", "19"], "time": [1241, 1291, 1340, 1507, 1791, 1940, 2508]}, "edge": {"target": [], "time": []}}, "mouseout": {"state": {"target": ["31", "12", "0", "1", "2", "3", "2", "14", "20", "19"], "time": [23, 441, 1157, 1274, 1324, 1474, 1524, 1840, 2426, 2609]}, "edge": {"target": [], "time": []}}}, "displayed_time": "15.02", "trialTime": 18227, "trial_type": "mouselab-mdp", "trial_index": 51, "time_elapsed": 1849589, "internal_node_id": "0.0-4.0-1.0-36.0"}}, {"uniqueid": "w25038199:a64128209", "current_trial": 52, "dateTime": 1691145482132, "trialdata": {"revealed_states": [], "clicked_states": ["22"], "num_clicks_accrued": [0, 0, 0, 0, 0, 0, 0, 0, 0, 0, 0, 0, 0], "stateRewards": ["", 2, -1, 8, -2, -16, 69, -39, -7, -13, -27, -86, 2, -2, 2, 13, -34, -16, -20, -5, 19, 81, 32, -2, -1, 2, -14, 20, 80, 58, 4, 70, 12, 73], "withholdReward": false, "trial_id": "mdp_trial_38", "block": "test", "trialIndex": 41, "score": 26.85, "costs": -2.15, "simulationMode": [null, null, null, null, null], "rewards": [2, -2, 2, -5, 32], "path": ["0", "0", "12", "13", "14", "19", "22"], "rt": [4860, 166, 174, 82, 185], "actions": ["right", "right", "right", "down", "left"], "actionTimes": [5889, 6561, 7233, 7808, 8513], "queries": {"click": {"state": {"target": ["22"], "time": [2605]}, "edge": {"target": [], "time": []}}, "mouseover": {"state": {"target": ["0", "12", "14", "19", "22", "13"], "time": [1043, 1508, 1792, 2142, 2326, 3892]}, "edge": {"target": [], "time": []}}, "mouseout": {"state": {"target": ["18", "0", "12", "14", "19", "22", "13", "15"], "time": [292, 1475, 1592, 1909, 2208, 3659, 4310, 10559]}, "edge": {"target": [], "time": []}}}, "displayed_time": "15.03", "trialTime": 15489, "trial_type": "mouselab-mdp", "trial_index": 52, "time_elapsed": 1865333, "internal_node_id": "0.0-4.0-1.0-37.0"}}, {"uniqueid": "w25038199:a64128209", "current_trial": 53, "dateTime": 1691145512612, "trialdata": {"revealed_states": [], "clicked_states": ["20"], "num_clicks_accrued": [0, 0, 0, 0, 0, 0, 0, 0, 0, 0, 0, 0, 0], "stateRewards": ["", -2, 4, -3, -13, 63, -36, 62, 11, 78, 34, -51, 2, -2, 8, -6, -40, -18, 31, 9, 64, 39, 79, 1, 4, -4, 15, -12, 76, 73, -10, -77, 86, -4], "withholdReward": false, "trial_id": "mdp_trial_39", "block": "test", "trialIndex": 42, "score": 78.85, "costs": -2.15, "simulationMode": [null, null, null, null, null], "rewards": [2, -2, 8, 9, 64], "path": ["0", "0", "12", "13", "14", "19", "20"], "rt": [5029, 131, 121, 3, 76], "actions": ["right", "right", "right", "down", "right"], "actionTimes": [6672, 7296, 7919, 8435, 9025], "queries": {"click": {"state": {"target": ["20"], "time": [3004]}, "edge": {"target": [], "time": []}}, "mouseover": {"state": {"target": ["12", "13", "14", "20", "19", "22", "13"], "time": [1864, 1947, 2047, 2880, 3330, 3480, 4397]}, "edge": {"target": [], "time": []}}, "mouseout": {"state": {"target": ["15", "23", "12", "13", "14", "20", "19", "22", "13"], "time": [813, 1197, 1914, 1997, 2264, 3247, 3431, 4149, 4464]}, "edge": {"target": [], "time": []}}}, "displayed_time": "15.64", "trialTime": 30223, "trial_type": "mouselab-mdp", "trial_index": 53, "time_elapsed": 1895813, "internal_node_id": "0.0-4.0-1.0-38.0"}}, {"uniqueid": "w25038199:a64128209", "current_trial": 54, "dateTime": 1691145530212, "trialdata": {"revealed_states": [], "clicked_states": ["22"], "num_clicks_accrued": [0, 0, 0, 0, 0, 0, 0, 0, 0, 0, 0, 0, 0], "stateRewards": ["", -1, 2, -6, 6, -82, -19, -39, -16, -83, 11, -33, -2, -2, 4, -6, -82, -1, -19, -6, -10, -67, -41, -2, 1, -7, 16, -23, -78, -52, 14, 31, -71, 74], "withholdReward": false, "trial_id": "mdp_trial_40", "block": "test", "trialIndex": 43, "score": -9.15, "costs": -2.15, "simulationMode": [null, null, null, null, null, null], "rewards": [-2, -2, 4, -6, -1], "path": ["0", "0", "12", "13", "14", "15", "17"], "rt": [3231, 206, 138, 19, 254, 3], "actions": ["right", "right", "right", "right", "up", "right"], "actionTimes": [4845, 5052, 5724, 6254, 7021, 7535], "queries": {"click": {"state": {"target": ["22"], "time": [3721]}, "edge": {"target": [], "time": []}}, "mouseover": {"state": {"target": ["12", "19", "20", "20", "19", "22"], "time": [1931, 1997, 2031, 2664, 3165, 3598]}, "edge": {"target": [], "time": []}}, "mouseout": {"state": {"target": ["12", "26", "12", "19", "20", "20", "19"], "time": [764, 864, 1964, 2014, 2048, 3148, 3231]}, "edge": {"target": [], "time": []}}}, "displayed_time": "15.62", "trialTime": 17341, "trial_type": "mouselab-mdp", "trial_index": 54, "time_elapsed": 1913413, "internal_node_id": "0.0-4.0-1.0-39.0"}}, {"uniqueid": "w25038199:a64128209", "current_trial": 55, "dateTime": 1691145591788, "trialdata": {"rt": 61572, "response": {"Q0": "$-2 to $2", "Q1": "$-4 to $4", "Q2": "$-88 to $88", "Q3": "The cost for clicking on nodes varied between nodes.", "Q4": "Very motivated"}, "question_order": [0, 1, 2, 3, 4], "trial_id": "final_quiz_control", "trial_type": "survey-multi-choice", "trial_index": 55, "time_elapsed": 1974988, "internal_node_id": "0.0-4.0-2.0"}}, {"uniqueid": "w25038199:a64128209", "current_trial": 56, "dateTime": 1691145728699, "trialdata": {"rt": 136906, "response": {"Q0": "Go to the green nodes and avoid the red nodes. The Notes furthest away seemed to have more reward and targeted those", "Q1": "I did not, I stuck to the same plan", "Q2": "Yes, it required concentration"}, "trial_id": "self_report_control", "trial_type": "survey-text", "trial_index": 56, "time_elapsed": 2111900, "internal_node_id": "0.0-4.0-3.0"}}, {"uniqueid": "w25038199:a64128209", "current_trial": 57, "dateTime": 1691145767795, "trialdata": {"rt": 39093, "response": {"Q0": "Neither disagree nor agree", "Q1": "Strongly disagree", "Q2": "Strongly disagree", "Q3": "Agree", "Q4": "Agree", "Q5": "Agree", "Q6": "Neither disagree nor agree"}, "question_order": [0, 1, 2, 3, 4, 5, 6], "trial_id": "self_report_2", "trial_type": "survey-multi-choice", "trial_index": 57, "time_elapsed": 2150996, "internal_node_id": "0.0-4.0-4.0"}}, {"uniqueid": "w25038199:a64128209", "current_trial": 58, "dateTime": 1691145783643, "trialdata": {"rt": 15844, "response": {"gender": "male", "age": "29", "colorblind": "0", "effort": "0"}, "trial_type": "survey-html-form", "trial_index": 58, "time_elapsed": 2166844, "internal_node_id": "0.0-4.0-5.0"}}, {"uniqueid": "w25038199:a64128209", "current_trial": 59, "dateTime": 1691145816595, "trialdata": {"rt": 32949, "response": {"Q0": "No, it was not", "Q1": "No, this was my first time", "Q2": ""}, "trial_type": "survey-text", "trial_index": 59, "time_elapsed": 2199796, "internal_node_id": "0.0-4.0-6.0"}}, {"uniqueid": "w25038199:a64128209", "current_trial": 60, "dateTime": 1691145819083, "trialdata": {"rt": 2485, "stimulus": "Press 'Finish HIT' in order to reach the completion code. Once the data has been saved, you will receive the code either in this window or in the original browser window where you started the experiment.\n", "response": 0, "trial_type": "html-button-response", "trial_index": 60, "time_elapsed": 2202284, "internal_node_id": "0.0-5.0"}}, {"uniqueid": "w25038199:a64128209", "current_trial": 61, "dateTime": 1691145820087, "trialdata": {"success": true, "trial_type": "fullscreen", "trial_index": 61, "time_elapsed": 2203288, "internal_node_id": "0.0-6.0"}}], "questiondata": {"params": {"CODE": "C6DMOQA6", "MIN_TIME": 14, "inspectCost": 1, "startTime": "Fri Aug 04 2023 12:06:41 GMT+0200 (South Africa Standard Time)", "bonusRate": 0.002, "variance": "1_2_4_8_44", "branching": "31123"}, "final_score": 774.3}, "eventdata": [{"eventtype": "initialized", "value": null, "timestamp": 1691143600516, "interval": 0}, {"eventtype": "window_resize", "value": [1024, 767], "timestamp": 1691143600516, "interval": 0}, {"eventtype": "window_resize", "value": [1024, 767], "timestamp": 1691143601376, "interval": 860}, {"eventtype": "focus", "value": "off", "timestamp": 1691143616450, "interval": 15074}, {"eventtype": "focus", "value": "on", "timestamp": 1691143620140, "interval": 3690}, {"eventtype": "window_resize", "value": [1920, 1080], "timestamp": 1691143627125, "interval": 6985}, {"eventtype": "focus", "value": "off", "timestamp": 1691143630710, "interval": 3585}, {"eventtype": "focus", "value": "on", "timestamp": 1691143652175, "interval": 21465}, {"eventtype": "focus", "value": "off", "timestamp": 1691143655476, "interval": 3301}, {"eventtype": "focus", "value": "on", "timestamp": 1691143663031, "interval": 7555}, {"eventtype": "focus", "value": "off", "timestamp": 1691144018054, "interval": 355023}, {"eventtype": "focus", "value": "on", "timestamp": 1691144018054, "interval": 0}, {"eventtype": "window_resize", "value": [1024, 767], "timestamp": 1691144018260, "interval": 206}, {"eventtype": "window_resize", "value": [1920, 1080], "timestamp": 1691144021342, "interval": 3082}, {"eventtype": "focus", "value": "off", "timestamp": 1691144024976, "interval": 3634}, {"eventtype": "focus", "value": "on", "timestamp": 1691144094381, "interval": 69405}, {"eventtype": "focus", "value": "off", "timestamp": 1691144098569, "interval": 4188}, {"eventtype": "focus", "value": "on", "timestamp": 1691144106653, "interval": 8084}, {"eventtype": "focus", "value": "off", "timestamp": 1691144356955, "interval": 250302}, {"eventtype": "focus", "value": "on", "timestamp": 1691144358948, "interval": 1993}, {"eventtype": "focus", "value": "off", "timestamp": 1691144478499, "interval": 119551}, {"eventtype": "focus", "value": "on", "timestamp": 1691144516062, "interval": 37563}, {"eventtype": "focus", "value": "off", "timestamp": 1691144526163, "interval": 10101}, {"eventtype": "focus", "value": "on", "timestamp": 1691144529223, "interval": 3060}, {"eventtype": "focus", "value": "off", "timestamp": 1691144765141, "interval": 235918}, {"eventtype": "focus", "value": "on", "timestamp": 1691144804411, "interval": 39270}, {"eventtype": "focus", "value": "off", "timestamp": 1691145277005, "interval": 472594}, {"eventtype": "focus", "value": "on", "timestamp": 1691145372380, "interval": 95375}, {"eventtype": "focus", "value": "off", "timestamp": 1691145389405, "interval": 17025}, {"eventtype": "focus", "value": "on", "timestamp": 1691145427595, "interval": 38190}, {"eventtype": "window_resize", "value": [1024, 767], "timestamp": 1691145819306, "interval": 391711}], "useragent": "Mozilla/5.0 (Windows NT 10.0; Win64; x64) AppleWebKit/537.36 (KHTML, like Gecko) Chrome/115.0.0.0 Safari/537.36", "mode": "live", "id": "w25038199:a64128209", "status": "user data saved", "Beginhit": "2023-08-04 10:06:26.975756", "Beginexp": "2023-08-04 10:07:09.007611", "Endhit": "2023-08-04 10:43:55.917534", "psiturkStatus": 3, "browser": "<redacted>", "platform": "windows", "language": "en-US"}