{"condition": 1, "counterbalance": 0, "assignmentId": "a67303698", "workerId": "w58691235", "hitId": "h42782526", "currenttrial": 15, "bonus": 0, "data": [{"uniqueid": "w58691235:a67303698", "current_trial": 0, "dateTime": 1691159415376, "trialdata": {"success": true, "trial_type": "fullscreen", "trial_index": 0, "time_elapsed": 7259, "internal_node_id": "0.0-0.0"}}, {"uniqueid": "w58691235:a67303698", "current_trial": 1, "dateTime": 1691159419368, "trialdata": {"view_history": [{"page_index": 0, "viewing_time": 3984}], "rt": 3984, "trial_id": "exp_instructions_misaligned", "trial_type": "instructions", "trial_index": 1, "time_elapsed": 11252, "internal_node_id": "0.0-1.0"}}, {"uniqueid": "w58691235:a67303698", "current_trial": 2, "dateTime": 1691159423275, "trialdata": {"success": true, "trial_type": "fullscreen", "trial_index": 2, "time_elapsed": 15159, "internal_node_id": "0.0-2.0-0.0"}}, {"uniqueid": "w58691235:a67303698", "current_trial": 3, "dateTime": 1691159655076, "trialdata": {"view_history": [{"page_index": 0, "viewing_time": 143973}, {"page_index": 1, "viewing_time": 51163}, {"page_index": 2, "viewing_time": 3947}, {"page_index": 1, "viewing_time": 22522}, {"page_index": 2, "viewing_time": 6264}, {"page_index": 3, "viewing_time": 3929}], "rt": 231799, "trial_id": "mouselab_instructions_1_misaligned", "trial_type": "instructions", "trial_index": 3, "time_elapsed": 246960, "internal_node_id": "0.0-2.0-1.0"}}, {"uniqueid": "w58691235:a67303698", "current_trial": 4, "dateTime": 1691159772548, "trialdata": {"revealed_states": [], "clicked_states": ["23", "24", "25", "26", "29", "27", "28", "1", "2", "10", "11", "8", "9", "3", "12", "13", "14", "19", "22", "21", "20", "15", "18", "16", "17", "7", "4", "5", "6", "33", "32", "31", "30"], "num_clicks_accrued": [0, 0, 0, 0, 0, 0, 0, 0, 0, 0, 0, 0, 0], "stateRewards": ["", -10, 10, 10, 10, -10, 10, 10, 10, -10, 10, -10, -10, -10, -10, -10, 10, 10, 10, -10, -10, -10, 10, 10, -10, 10, -10, -10, 10, 10, -10, -10, 10, -10], "withholdReward": false, "trial_id": "practice_1", "block": "test", "trialIndex": 0, "score": -43, "costs": -16.5, "simulationMode": [null, null, null, null, null], "rewards": [-10, -10, -10, -10, 10], "path": ["0", "0", "12", "13", "14", "15", "18"], "rt": [97309, 664, 711, 1106, 956], "actions": ["right", "right", "right", "up", "left"], "actionTimes": [102642, 103807, 105026, 106649, 108117], "queries": {"click": {"state": {"target": ["23", "24", "25", "26", "29", "27", "28", "1", "2", "10", "11", "8", "9", "3", "12", "13", "14", "19", "22", "21", "20", "15", "18", "16", "17", "7", "4", "5", "6", "33", "32", "31", "30"], "time": [9907, 14636, 16675, 17892, 19475, 21050, 22990, 24956, 27448, 28951, 30590, 31855, 35042, 36246, 38698, 39955, 41948, 43342, 44562, 45893, 47376, 48914, 51498, 52803, 54638, 57403, 59090, 60906, 62730, 64524, 66426, 67468, 68679]}, "edge": {"target": [], "time": []}}, "mouseover": {"state": {"target": ["23", "24", "25", "26", "29", "27", "28", "1", "2", "10", "11", "8", "9", "3", "12", "22", "12", "12", "13", "14", "19", "22", "21", "20", "15", "18", "16", "18", "16", "17", "15", "7", "4", "5", "6", "4", "28", "26", "33", "30", "32", "31", "30", "0", "23", "10", "27", "29", "30", "1", "0", "1", "0"], "time": [9455, 13787, 16271, 17453, 19037, 20637, 22237, 23919, 26869, 28387, 30136, 31518, 34486, 35751, 37335, 37401, 37668, 38117, 39486, 41267, 42586, 44152, 45351, 46966, 48349, 49451, 50581, 51050, 52316, 54017, 55698, 57082, 58082, 60399, 62265, 63383, 63449, 63468, 63935, 65016, 65932, 67099, 68297, 72631, 75296, 79146, 85927, 86027, 86297, 95161, 95327, 96742, 98358]}, "edge": {"target": [], "time": []}}, "mouseout": {"state": {"target": ["0", "1", "23", "24", "25", "26", "29", "27", "28", "1", "2", "10", "11", "8", "9", "3", "12", "22", "12", "12", "12", "13", "14", "19", "22", "21", "20", "15", "18", "16", "18", "16", "17", "15", "7", "4", "5", "6", "4", "28", "26", "33", "30", "32", "31", "30", "0", "23", "10", "27", "29", "30", "1", "0", "1", "0"], "time": [2838, 3510, 13540, 16105, 17336, 18786, 20419, 22055, 23669, 26524, 28287, 30017, 31435, 34285, 35667, 36471, 37351, 37585, 37850, 38911, 39420, 40784, 42568, 44068, 45202, 46117, 47850, 49401, 50550, 50883, 51718, 53666, 55665, 55783, 57620, 59948, 61848, 62953, 63400, 63466, 63483, 64983, 65831, 66915, 68047, 72164, 72646, 78828, 79296, 85961, 86077, 86311, 95192, 95711, 98325, 98408]}, "edge": {"target": [], "time": []}}}, "displayed_time": "108.63", "trialTime": 116401, "trial_type": "mouselab-mdp", "trial_index": 4, "time_elapsed": 364430, "internal_node_id": "0.0-2.0-2.0-0.0"}}, {"uniqueid": "w58691235:a67303698", "current_trial": 5, "dateTime": 1691159857486, "trialdata": {"revealed_states": [], "clicked_states": ["12", "13", "14", "22", "21", "19", "20", "15", "17", "18", "16", "1", "2", "7", "4", "6", "5", "3", "9", "8", "11", "10", "27", "29", "26", "28", "23", "24", "25", "33", "30", "32", "31"], "num_clicks_accrued": [0, 0, 0, 0, 0, 0, 0, 0, 0, 0, 0, 0, 0], "stateRewards": ["", -10, 10, -10, 10, -10, -10, -10, -10, -10, 10, 10, -10, -10, -10, 10, 10, 10, -10, -10, 10, 10, -10, 10, -10, -10, -10, 10, -10, 10, 10, 10, 10, -10], "withholdReward": false, "trial_id": "practice_2", "block": "test", "trialIndex": 1, "score": -23, "costs": -16.5, "simulationMode": [null, null, null, null, null], "rewards": [-10, -10, -10, 10, 10], "path": ["0", "0", "12", "13", "14", "15", "16"], "rt": [63678, 3011, 521, 1009, 888], "actions": ["right", "right", "right", "up", "up"], "actionTimes": [72402, 75920, 76947, 78450, 79847], "queries": {"click": {"state": {"target": ["12", "13", "14", "22", "21", "19", "20", "15", "17", "18", "16", "1", "2", "7", "4", "6", "5", "3", "9", "8", "11", "10", "27", "29", "26", "28", "23", "24", "25", "33", "30", "32", "31"], "time": [12943, 14195, 18024, 19220, 20311, 22051, 23421, 25011, 26285, 27340, 28818, 30525, 32584, 33606, 35405, 36481, 37583, 38713, 39774, 41569, 43317, 44709, 46123, 47222, 48753, 49785, 51161, 52312, 53425, 54590, 56011, 57034, 58079]}, "edge": {"target": [], "time": []}}, "mouseover": {"state": {"target": ["12", "0", "12", "13", "22", "19", "14", "22", "21", "19", "20", "15", "17", "18", "16", "16", "1", "2", "7", "4", "6", "5", "3", "9", "8", "11", "10", "10", "26", "27", "29", "26", "28", "23", "24", "25", "33", "30", "32", "31", "0", "18", "15", "14"], "time": [10765, 12400, 12599, 13717, 14684, 16483, 17366, 18600, 19831, 20747, 22647, 24582, 25632, 26913, 27947, 28380, 29997, 30965, 33213, 34063, 35880, 37179, 38395, 39378, 40445, 42246, 44078, 44262, 45396, 45696, 46863, 48378, 49344, 50377, 51929, 53095, 54077, 55212, 56745, 57577, 59360, 62677, 62859, 63109]}, "edge": {"target": [], "time": []}}, "mouseout": {"state": {"target": ["1", "0", "12", "0", "12", "13", "22", "19", "14", "22", "21", "19", "20", "15", "15", "17", "15", "18", "16", "16", "1", "2", "7", "4", "6", "5", "3", "9", "8", "11", "10", "10", "26", "27", "27", "29", "26", "28", "23", "24", "25", "33", "30", "32", "31", "31", "0", "18", "15", "14"], "time": [7916, 8201, 11216, 12415, 13600, 14650, 15682, 16620, 18517, 19799, 20714, 22614, 23998, 25235, 25483, 26664, 26696, 27567, 27980, 29363, 30932, 33096, 34029, 35846, 36945, 38112, 39212, 40345, 41789, 43828, 44095, 45230, 45447, 46336, 46729, 47729, 49328, 50277, 51695, 52912, 53961, 55110, 56462, 57265, 58298, 59193, 62626, 62692, 62909, 72441]}, "edge": {"target": [], "time": []}}}, "displayed_time": "80.34", "trialTime": 84739, "trial_type": "mouselab-mdp", "trial_index": 5, "time_elapsed": 449370, "internal_node_id": "0.0-2.0-2.0-1.0"}}, {"uniqueid": "w58691235:a67303698", "current_trial": 6, "dateTime": 1691159867411, "trialdata": {"view_history": [{"page_index": 0, "viewing_time": 4336}, {"page_index": 1, "viewing_time": 5586}], "rt": 9922, "trial_id": "mouselab_instructions_2_misaligned", "trial_type": "instructions", "trial_index": 6, "time_elapsed": 459295, "internal_node_id": "0.0-2.0-3.0"}}, {"uniqueid": "w58691235:a67303698", "current_trial": 7, "dateTime": 1691160023314, "trialdata": {"rt": 155879, "response": {"Q0": "The cost for clicking on nodes may vary between nodes.", "Q1": "I will receive a $1 bonus if I perform well, otherwise I will receive no bonus.", "Q2": "Yes.", "Q3": "To get the highest total score.", "Q4": "Only after moving the spider.", "Q5": "3 seconds"}, "question_order": [0, 1, 2, 3, 4, 5], "correct": {"Q0": "The cost for clicking on nodes may vary between nodes.", "Q1": "The better I perform the higher my bonus will be.", "Q2": "No, the amount of cash at each node of the web may be different each time.", "Q3": "To get the highest total score.", "Q4": "Only before moving the spider.", "Q5": "3 seconds"}, "trial_id": "mouselab_quiz_misaligned", "trial_type": "survey-multi-choice", "trial_index": 7, "time_elapsed": 615198, "internal_node_id": "0.0-2.0-4.0"}}, {"uniqueid": "w58691235:a67303698", "current_trial": 8, "dateTime": 1691160048991, "trialdata": {"success": true, "trial_type": "fullscreen", "trial_index": 8, "time_elapsed": 640875, "internal_node_id": "0.0-2.1-0.1"}}, {"uniqueid": "w58691235:a67303698", "current_trial": 9, "dateTime": 1691160335273, "trialdata": {"view_history": [{"page_index": 0, "viewing_time": 88660}, {"page_index": 1, "viewing_time": 27615}, {"page_index": 2, "viewing_time": 9372}, {"page_index": 3, "viewing_time": 160632}], "rt": 286279, "trial_id": "mouselab_instructions_1_misaligned", "trial_type": "instructions", "trial_index": 9, "time_elapsed": 927157, "internal_node_id": "0.0-2.1-1.1"}}, {"uniqueid": "w58691235:a67303698", "current_trial": 10, "dateTime": 1691160400256, "trialdata": {"revealed_states": [], "clicked_states": ["23", "31", "30", "33", "32", "25", "24", "28", "26", "29", "27", "11", "9", "8", "10", "5", "3", "2", "1", "4", "6", "7", "16", "18", "15", "17", "14", "20", "21", "19", "22", "12", "13"], "num_clicks_accrued": [0, 0, 0, 0, 0, 0, 0, 0, 0, 0, 0, 0, 0], "stateRewards": ["", -10, 10, 10, 10, -10, 10, 10, 10, -10, 10, -10, -10, -10, -10, -10, 10, 10, 10, -10, -10, -10, 10, 10, -10, 10, -10, -10, 10, 10, -10, -10, 10, -10], "withholdReward": false, "trial_id": "practice_1", "block": "test", "trialIndex": 2, "score": -43, "costs": -16.5, "simulationMode": [null, null, null, null, null], "rewards": [-10, -10, -10, -10, 10], "path": ["0", "0", "12", "13", "14", "15", "16"], "rt": [51927, 1133, 79, 1253, 157], "actions": ["right", "right", "right", "up", "up"], "actionTimes": [54391, 56022, 56616, 58372, 59043], "queries": {"click": {"state": {"target": ["23", "31", "30", "33", "32", "25", "24", "28", "26", "29", "27", "11", "9", "8", "10", "5", "3", "2", "1", "4", "6", "7", "16", "18", "15", "17", "14", "20", "21", "19", "22", "12", "13"], "time": [5531, 6557, 8325, 9996, 11045, 12363, 13398, 15366, 16819, 18256, 20579, 21686, 22701, 23989, 25551, 27079, 28431, 29573, 31327, 33480, 34775, 35941, 37439, 39300, 40883, 42125, 43145, 44356, 46040, 47249, 48259, 50274, 51376]}, "edge": {"target": [], "time": []}}, "mouseover": {"state": {"target": ["0", "0", "23", "31", "31", "32", "30", "33", "32", "32", "25", "25", "24", "28", "26", "29", "27", "27", "11", "9", "8", "8", "10", "3", "5", "3", "2", "1", "7", "4", "6", "7", "18", "15", "16", "18", "18", "15", "17", "17", "14", "20", "21", "19", "22", "12", "12", "13"], "time": [3710, 4396, 5143, 5892, 6158, 7041, 7924, 8841, 10407, 10576, 11607, 11957, 12957, 13807, 15857, 17491, 18692, 20124, 21273, 22174, 23124, 23457, 24439, 26057, 26674, 27539, 29206, 30155, 31921, 32906, 34171, 35371, 36471, 36671, 36770, 37904, 38905, 39839, 41425, 41739, 42736, 43987, 44886, 46636, 47904, 48771, 48954, 51003]}, "edge": {"target": [], "time": []}}, "mouseout": {"state": {"target": ["0", "0", "0", "23", "31", "31", "32", "30", "33", "32", "32", "30", "25", "25", "24", "28", "26", "29", "27", "27", "11", "9", "8", "8", "10", "3", "5", "3", "2", "1", "7", "4", "6", "7", "18", "15", "16", "18", "18", "15", "17", "17", "14", "20", "20", "21", "19", "22", "12", "12"], "time": [3460, 3741, 4509, 5841, 6008, 6892, 7910, 8724, 10358, 10441, 11507, 11541, 11774, 12586, 13757, 15774, 17241, 18478, 19791, 20956, 22040, 23091, 23191, 24406, 25990, 26290, 27472, 28922, 30006, 31548, 32806, 34057, 35254, 36438, 36588, 36721, 37839, 38724, 39805, 41421, 41438, 42554, 43586, 44569, 44836, 46587, 47822, 48721, 48854, 50719]}, "edge": {"target": [], "time": []}}}, "displayed_time": "59.55", "trialTime": 64723, "trial_type": "mouselab-mdp", "trial_index": 10, "time_elapsed": 992139, "internal_node_id": "0.0-2.1-2.1-0.1"}}, {"uniqueid": "w58691235:a67303698", "current_trial": 11, "dateTime": 1691160461416, "trialdata": {"revealed_states": [], "clicked_states": ["12", "13", "22", "21", "19", "20", "14", "15", "17", "16", "18", "7", "4", "6", "5", "3", "2", "1", "10", "8", "9", "11", "27", "29", "26", "28", "25", "33", "30", "32", "31", "24", "23"], "num_clicks_accrued": [0, 0, 0, 0, 0, 0, 0, 0, 0, 0, 0, 0, 0], "stateRewards": ["", -10, 10, -10, 10, -10, -10, -10, -10, -10, 10, 10, -10, -10, -10, 10, 10, 10, -10, -10, 10, 10, -10, 10, -10, -10, -10, 10, -10, 10, 10, 10, 10, -10], "withholdReward": false, "trial_id": "practice_2", "block": "test", "trialIndex": 3, "score": -43, "costs": -16.5, "simulationMode": [null, null, null, null, null], "rewards": [-10, -10, -10, 10, -10], "path": ["0", "0", "12", "13", "14", "15", "18"], "rt": [47932, 138, 196, 509, 945], "actions": ["right", "right", "right", "up", "left"], "actionTimes": [50409, 51056, 51764, 52792, 54246], "queries": {"click": {"state": {"target": ["12", "13", "22", "21", "19", "20", "14", "15", "17", "16", "18", "7", "4", "6", "5", "3", "2", "1", "10", "8", "9", "11", "27", "29", "26", "28", "25", "33", "30", "32", "31", "24", "23"], "time": [4344, 5667, 7145, 8207, 9690, 10778, 12071, 13242, 14366, 15447, 16693, 17776, 19470, 20751, 22097, 23115, 24201, 26564, 27690, 29048, 30412, 31763, 33374, 34490, 35641, 36757, 38175, 39249, 40892, 42540, 43703, 45322, 47317]}, "edge": {"target": [], "time": []}}, "mouseover": {"state": {"target": ["0", "12", "13", "22", "21", "19", "20", "14", "15", "17", "16", "18", "7", "4", "4", "6", "5", "3", "2", "1", "1", "10", "8", "9", "11", "27", "29", "26", "28", "24", "25", "33", "30", "32", "31", "24", "23"], "time": [3422, 3939, 4870, 6155, 7736, 8670, 10070, 11521, 12836, 13802, 14854, 15935, 17271, 18152, 19182, 20054, 21102, 22670, 23936, 24784, 26002, 26986, 28134, 29420, 31385, 32800, 33884, 35333, 36187, 37550, 37751, 38833, 39682, 41483, 43249, 44182, 45815]}, "edge": {"target": [], "time": []}}, "mouseout": {"state": {"target": ["13", "12", "0", "0", "12", "13", "22", "21", "19", "20", "14", "15", "17", "16", "18", "7", "4", "4", "6", "5", "3", "3", "2", "1", "1", "10", "8", "9", "11", "27", "29", "29", "26", "28", "24", "25", "25", "33", "30", "32", "31", "24", "23"], "time": [1271, 1387, 3205, 3471, 4854, 6089, 7554, 8620, 10053, 11438, 12469, 13669, 14771, 15871, 17170, 18135, 18169, 19692, 20964, 22314, 23340, 23653, 24718, 25635, 26937, 28050, 29402, 30987, 32402, 33801, 34700, 35083, 36069, 37168, 37701, 38398, 38633, 39461, 41282, 42950, 43915, 45798, 48200]}, "edge": {"target": [], "time": []}}}, "displayed_time": "54.77", "trialTime": 60956, "trial_type": "mouselab-mdp", "trial_index": 11, "time_elapsed": 1053299, "internal_node_id": "0.0-2.1-2.1-1.1"}}, {"uniqueid": "w58691235:a67303698", "current_trial": 12, "dateTime": 1691160519977, "trialdata": {"view_history": [{"page_index": 0, "viewing_time": 53015}, {"page_index": 1, "viewing_time": 5544}], "rt": 58560, "trial_id": "mouselab_instructions_2_misaligned", "trial_type": "instructions", "trial_index": 12, "time_elapsed": 1111861, "internal_node_id": "0.0-2.1-3.1"}}, {"uniqueid": "w58691235:a67303698", "current_trial": 13, "dateTime": 1691160571453, "trialdata": {"rt": 51470, "response": {"Q0": "The cost for clicking on nodes may vary between nodes.", "Q1": "The better I perform the higher my bonus will be.", "Q2": "Yes.", "Q3": "To get the highest total score.", "Q4": "Only after moving the spider.", "Q5": "3 seconds"}, "question_order": [0, 1, 2, 3, 4, 5], "correct": {"Q0": "The cost for clicking on nodes may vary between nodes.", "Q1": "The better I perform the higher my bonus will be.", "Q2": "No, the amount of cash at each node of the web may be different each time.", "Q3": "To get the highest total score.", "Q4": "Only before moving the spider.", "Q5": "3 seconds"}, "trial_id": "mouselab_quiz_misaligned", "trial_type": "survey-multi-choice", "trial_index": 13, "time_elapsed": 1163337, "internal_node_id": "0.0-2.1-4.1"}}, {"uniqueid": "w58691235:a67303698", "current_trial": 14, "dateTime": 1691160579784, "trialdata": {"success": true, "trial_type": "fullscreen", "trial_index": 14, "time_elapsed": 1171668, "internal_node_id": "0.0-2.2-0.2"}}], "questiondata": {"params": {"CODE": "C6DMOQA6", "MIN_TIME": 14, "inspectCost": 1, "startTime": "Fri Aug 04 2023 16:30:06 GMT+0200 (South Africa Standard Time)", "bonusRate": 0.002, "variance": "1_2_4_8_44", "branching": "31123"}}, "eventdata": [{"eventtype": "initialized", "value": null, "timestamp": 1691159405604, "interval": 0}, {"eventtype": "window_resize", "value": [1028, 752], "timestamp": 1691159405604, "interval": 0}, {"eventtype": "window_resize", "value": [1028, 752], "timestamp": 1691159406185, "interval": 581}, {"eventtype": "window_resize", "value": [1536, 864], "timestamp": 1691159414684, "interval": 8499}, {"eventtype": "window_resize", "value": [1028, 752], "timestamp": 1691159429295, "interval": 14611}, {"eventtype": "focus", "value": "off", "timestamp": 1691159432751, "interval": 3456}, {"eventtype": "focus", "value": "on", "timestamp": 1691159509687, "interval": 76936}, {"eventtype": "focus", "value": "off", "timestamp": 1691160045976, "interval": 536289}, {"eventtype": "focus", "value": "on", "timestamp": 1691160046001, "interval": 25}, {"eventtype": "window_resize", "value": [1536, 864], "timestamp": 1691160048355, "interval": 2354}, {"eventtype": "focus", "value": "off", "timestamp": 1691160576882, "interval": 528527}, {"eventtype": "focus", "value": "on", "timestamp": 1691160576882, "interval": 0}, {"eventtype": "window_resize", "value": [1028, 752], "timestamp": 1691160577095, "interval": 213}, {"eventtype": "window_resize", "value": [1536, 864], "timestamp": 1691160579016, "interval": 1921}, {"eventtype": "window_resize", "value": [1028, 752], "timestamp": 1691160580826, "interval": 1810}], "useragent": "Mozilla/5.0 (Windows NT 10.0; Win64; x64) AppleWebKit/537.36 (KHTML, like Gecko) Chrome/115.0.0.0 Safari/537.36", "mode": "live", "id": "w58691235:a67303698", "status": "user data saved", "Beginhit": "2023-08-04 14:30:02.732616", "Beginexp": "2023-08-04 14:30:16.138472", "Endhit": null, "psiturkStatus": 6, "browser": "<redacted>", "platform": "windows", "language": "en-US", "excludeReason": "quizfail"}