{"condition": 0, "counterbalance": 0, "assignmentId": "a88850203", "workerId": "w28979187", "hitId": "h95198147", "currenttrial": 55, "bonus": 0, "data": [{"uniqueid": "w28979187:a88850203", "current_trial": 0, "dateTime": 1693660515891, "trialdata": {"success": true, "trial_type": "fullscreen", "trial_index": 0, "time_elapsed": 7828, "internal_node_id": "0.0-0.0"}}, {"uniqueid": "w28979187:a88850203", "current_trial": 1, "dateTime": 1693660532817, "trialdata": {"view_history": [{"page_index": 0, "viewing_time": 16914}], "rt": 16917, "trial_id": "exp_instructions_control", "trial_type": "instructions", "trial_index": 1, "time_elapsed": 24755, "internal_node_id": "0.0-1.0"}}, {"uniqueid": "w28979187:a88850203", "current_trial": 2, "dateTime": 1693660772680, "trialdata": {"view_history": [{"page_index": 0, "viewing_time": 70933}, {"page_index": 1, "viewing_time": 80434}, {"page_index": 2, "viewing_time": 43576}, {"page_index": 3, "viewing_time": 44913}], "rt": 239857, "trial_id": "mouselab_instructions_1_control", "trial_type": "instructions", "trial_index": 2, "time_elapsed": 264619, "internal_node_id": "0.0-2.0-1.0"}}, {"uniqueid": "w28979187:a88850203", "current_trial": 3, "dateTime": 1693660794281, "trialdata": {"revealed_states": [], "clicked_states": [], "num_clicks_accrued": [0, 0, 0, 0, 0, 0, 0, 0, 0, 0, 0, 0, 0], "stateRewards": ["", -10, -10, 10, -10, -10, 10, -10, -10, 10, 10, 10, 10, -10, 10, -10, 10, 10, -10, 10, 10, 10, 10, -10, 10, -10, 10, 10, -10, -10, -10, -10, 10, -10], "withholdReward": false, "trial_id": "practice_1", "block": "test", "trialIndex": 0, "score": -26.5, "costs": 0, "simulationMode": [null, null, null, null, null], "rewards": [-10, -10, 10, -10, -10], "path": ["0", "0", "1", "2", "3", "4", "7"], "rt": [2581, 1654, 2570, 483, 291], "actions": ["up", "up", "up", "right", "down"], "actionTimes": [5885, 8068, 11144, 12141, 12952], "queries": {"click": {"state": {"target": [], "time": []}, "edge": {"target": [], "time": []}}, "mouseover": {"state": {"target": [], "time": []}, "edge": {"target": [], "time": []}}, "mouseout": {"state": {"target": ["13", "0", "12", "15"], "time": [222, 18564, 18633, 18871]}, "edge": {"target": [], "time": []}}}, "displayed_time": "13.47", "trialTime": 20491, "trial_type": "mouselab-mdp", "trial_index": 3, "time_elapsed": 286219, "internal_node_id": "0.0-2.0-2.0-0.0"}}, {"uniqueid": "w28979187:a88850203", "current_trial": 4, "dateTime": 1693660809724, "trialdata": {"revealed_states": [], "clicked_states": [], "num_clicks_accrued": [0, 0, 0, 0, 0, 0, 0, 0, 0, 0, 0, 0, 0], "stateRewards": ["", -10, 10, 10, -10, 10, -10, -10, -10, 10, 10, 10, 10, 10, 10, 10, -10, -10, -10, -10, 10, -10, -10, -10, 10, 10, -10, -10, 10, -10, -10, -10, -10, 10], "withholdReward": false, "trial_id": "practice_2", "block": "test", "trialIndex": 1, "score": -6.5, "costs": 0, "simulationMode": [null, null, null, null, null], "rewards": [-10, 10, 10, -10, -10], "path": ["0", "0", "23", "24", "25", "30", "32"], "rt": [1091, 64, 36, 381, 209], "actions": ["left", "left", "left", "down", "down"], "actionTimes": [5841, 6420, 6996, 7915, 8653], "queries": {"click": {"state": {"target": [], "time": []}, "edge": {"target": [], "time": []}}, "mouseover": {"state": {"target": [], "time": []}, "edge": {"target": [], "time": []}}, "mouseout": {"state": {"target": ["15", "18", "12", "0"], "time": [3237, 3254, 3571, 4767]}, "edge": {"target": [], "time": []}}}, "displayed_time": "9.17", "trialTime": 15103, "trial_type": "mouselab-mdp", "trial_index": 4, "time_elapsed": 301661, "internal_node_id": "0.0-2.0-2.0-1.0"}}, {"uniqueid": "w28979187:a88850203", "current_trial": 5, "dateTime": 1693660858966, "trialdata": {"view_history": [{"page_index": 0, "viewing_time": 40085}, {"page_index": 1, "viewing_time": 9141}], "rt": 49228, "trial_id": "mouselab_instructions_2_control", "trial_type": "instructions", "trial_index": 5, "time_elapsed": 350905, "internal_node_id": "0.0-2.0-3.0"}}, {"uniqueid": "w28979187:a88850203", "current_trial": 6, "dateTime": 1693660922362, "trialdata": {"rt": 63381, "response": {"Q0": "The cost for clicking on nodes may vary between nodes.", "Q1": "The better I perform the higher my bonus will be.", "Q2": "No, the amount of cash at each node of the web may be different each time.", "Q3": "To get the highest total score.", "Q4": "Only before moving the spider.", "Q5": "3 seconds"}, "question_order": [0, 1, 2, 3, 4, 5], "correct": {"Q0": "The cost for clicking on nodes may vary between nodes.", "Q1": "The better I perform the higher my bonus will be.", "Q2": "No, the amount of cash at each node of the web may be different each time.", "Q3": "To get the highest total score.", "Q4": "Only before moving the spider.", "Q5": "3 seconds"}, "trial_id": "mouselab_quiz_control", "trial_type": "survey-multi-choice", "trial_index": 6, "time_elapsed": 414300, "internal_node_id": "0.0-2.0-4.0"}}, {"uniqueid": "w28979187:a88850203", "current_trial": 7, "dateTime": 1693660932985, "trialdata": {"rt": 10606, "response": {"Q0": "No"}, "question_order": [0], "trial_id": "repeat_check", "trial_type": "survey-multi-choice", "trial_index": 7, "time_elapsed": 424923, "internal_node_id": "0.0-4.0-0.0"}}, {"uniqueid": "w28979187:a88850203", "current_trial": 8, "dateTime": 1693660944452, "trialdata": {"rt": 11452, "stimulus": "\n<h1> Get ready to start the game! </h1>\n\nThank you for reading the instructions. Get ready start with the 40 rounds of this game.\n<br><br>\nIf you need to take a break, feel free to take one after the end of a round, before continuing to the next one.\n<br><br>\nRemember, the more money the spider gets, the bigger your bonus will be!\n<br><br>\n<div style='text-align: center;'>Press <code>space</code> to begin.</div>\n\n<br><br>\n(If, at any point, the <code>space</code> key does not take you to the next page, click once on the text and try again.)", "response": " ", "trial_id": "mdp_ready", "trial_type": "html-keyboard-response", "trial_index": 8, "time_elapsed": 436391, "internal_node_id": "0.0-6.0-0.0"}}, {"uniqueid": "w28979187:a88850203", "current_trial": 9, "dateTime": 1693660965889, "trialdata": {"revealed_states": [], "clicked_states": [], "num_clicks_accrued": [0, 0, 0, 0, 0, 0, 0, 0, 0, 0, 0, 0, 0], "stateRewards": ["", 1, 2, 7, 13, 88, -71, 27, 3, 60, 5, -53, -2, 2, -6, -1, -30, 79, 47, -4, -14, 46, 68, 1, 1, 8, 10, -14, 86, 48, -11, -67, -44, 5], "withholdReward": false, "trial_id": "mdp_trial_1", "block": "test", "trialIndex": 2, "score": 6, "costs": 0, "simulationMode": [null, null, null, null, null], "rewards": [1, 1, 8, 10, -14], "path": ["0", "0", "23", "24", "25", "26", "27"], "rt": [1575, 1076, 973, 1046, 1488], "actions": ["left", "left", "left", "up", "up"], "actionTimes": [4695, 6291, 7785, 9334, 11336], "queries": {"click": {"state": {"target": [], "time": []}, "edge": {"target": [], "time": []}}, "mouseover": {"state": {"target": [], "time": []}, "edge": {"target": [], "time": []}}, "mouseout": {"state": {"target": ["0", "18"], "time": [13794, 14388]}, "edge": {"target": [], "time": []}}}, "displayed_time": "17.13", "trialTime": 21057, "trial_type": "mouselab-mdp", "trial_index": 9, "time_elapsed": 457826, "internal_node_id": "0.0-6.0-1.0-0.0"}}, {"uniqueid": "w28979187:a88850203", "current_trial": 10, "dateTime": 1693660988637, "trialdata": {"revealed_states": [], "clicked_states": ["12"], "num_clicks_accrued": [0, 0, 0, 0, 0, 0, 0, 0, 0, 0, 0, 0, 0], "stateRewards": ["", -1, 2, -6, 6, 43, 78, 78, -2, 55, -29, -17, -2, -4, 1, -15, 13, 7, -79, 8, -28, -68, 36, -1, -3, 3, -16, 84, -18, 87, 10, 32, 13, -81], "withholdReward": false, "trial_id": "mdp_trial_2", "block": "test", "trialIndex": 3, "score": 42.6, "costs": -1.4, "simulationMode": [null, null, null, null, null, null], "rewards": [-1, 2, -6, 6, 43], "path": ["0", "0", "1", "2", "3", "4", "5"], "rt": [2207, 1432, 1851, 4582, 706, 327], "actions": ["up", "up", "up", "up", "right", "up"], "actionTimes": [4418, 5855, 8238, 13349, 14559, 15408], "queries": {"click": {"state": {"target": ["12"], "time": [3218]}, "edge": {"target": [], "time": []}}, "mouseover": {"state": {"target": ["12"], "time": [2551]}, "edge": {"target": [], "time": []}}, "mouseout": {"state": {"target": ["18", "12", "12", "1", "10", "7", "3", "0"], "time": [565, 832, 8809, 9034, 10565, 12051, 19563, 19714]}, "edge": {"target": [], "time": []}}}, "displayed_time": "16.21", "trialTime": 22349, "trial_type": "mouselab-mdp", "trial_index": 10, "time_elapsed": 480575, "internal_node_id": "0.0-6.0-1.0-1.0"}}, {"uniqueid": "w28979187:a88850203", "current_trial": 11, "dateTime": 1693661008966, "trialdata": {"revealed_states": [], "clicked_states": ["1"], "num_clicks_accrued": [0, 0, 0, 0, 0, 0, 0, 0, 0, 0, 0, 0, 0], "stateRewards": ["", -2, -2, -3, -6, -15, -11, 41, -12, -63, -76, 2, -2, -3, 8, 9, -36, -2, -18, -16, -32, -85, -17, -2, 1, 5, -16, 82, 35, -88, -1, 80, -82, -20], "withholdReward": false, "trial_id": "mdp_trial_3", "block": "test", "trialIndex": 4, "score": 8.6, "costs": -1.4, "simulationMode": [null, null, null, null, null], "rewards": [-2, -3, 8, 9, -2], "path": ["0", "0", "12", "13", "14", "15", "17"], "rt": [2954, 1246, 392, 986, 437], "actions": ["right", "right", "right", "up", "right"], "actionTimes": [5615, 7375, 8268, 9778, 10720], "queries": {"click": {"state": {"target": ["1"], "time": [3832]}, "edge": {"target": [], "time": []}}, "mouseover": {"state": {"target": ["1", "2"], "time": [3197, 4424]}, "edge": {"target": [], "time": []}}, "mouseout": {"state": {"target": ["0", "1", "2"], "time": [1043, 3840, 14857]}, "edge": {"target": [], "time": []}}}, "displayed_time": "16.67", "trialTime": 19875, "trial_type": "mouselab-mdp", "trial_index": 11, "time_elapsed": 500905, "internal_node_id": "0.0-6.0-1.0-2.0"}}, {"uniqueid": "w28979187:a88850203", "current_trial": 12, "dateTime": 1693661039179, "trialdata": {"revealed_states": [], "clicked_states": ["12"], "num_clicks_accrued": [0, 0, 0, 0, 0, 0, 0, 0, 0, 0, 0, 0, 0], "stateRewards": ["", 1, 1, -5, 8, -6, 45, 16, -6, -7, -22, -38, -1, -4, 8, -11, -16, 21, -45, -15, -59, -32, 42, -1, 3, 6, 11, -7, 34, -27, -8, 85, 43, -9], "withholdReward": false, "trial_id": "mdp_trial_4", "block": "test", "trialIndex": 5, "score": -32.4, "costs": -1.4, "simulationMode": [null, null, null, null, null, null], "rewards": [1, 1, -5, -6, -22], "path": ["0", "0", "1", "2", "3", "8", "10"], "rt": [2479, 819, 8228, 2705, 925, 238], "actions": ["up", "up", "up", "up", "left", "down"], "actionTimes": [7579, 8403, 17151, 20396, 21847, 22630], "queries": {"click": {"state": {"target": ["12"], "time": [6515]}, "edge": {"target": [], "time": []}}, "mouseover": {"state": {"target": ["12"], "time": [5890]}, "edge": {"target": [], "time": []}}, "mouseout": {"state": {"target": ["2", "28", "23", "12", "2", "7", "4", "4", "3", "3", "8", "1", "0"], "time": [705, 1038, 3621, 9352, 13033, 13302, 13507, 16019, 18719, 21464, 25285, 26618, 26804]}, "edge": {"target": [], "time": []}}}, "displayed_time": "23.16", "trialTime": 29733, "trial_type": "mouselab-mdp", "trial_index": 12, "time_elapsed": 531117, "internal_node_id": "0.0-6.0-1.0-3.0"}}, {"uniqueid": "w28979187:a88850203", "current_trial": 13, "dateTime": 1693661082576, "trialdata": {"revealed_states": [], "clicked_states": ["23", "1"], "num_clicks_accrued": [0, 0, 0, 0, 0, 0, 0, 0, 0, 0, 0, 0, 0], "stateRewards": ["", -1, 2, -7, -12, -62, 12, -13, 5, 77, -71, 83, 1, -4, 7, 15, -42, -87, -4, 5, -25, 44, 88, -1, 4, -5, -8, 14, 51, 8, -5, 83, -24, -19], "withholdReward": false, "trial_id": "mdp_trial_5", "block": "test", "trialIndex": 6, "score": -70.8, "costs": -2.8, "simulationMode": [null, null, null, null, null, null], "rewards": [1, -4, 7, 15, -87], "path": ["0", "0", "12", "13", "14", "15", "17"], "rt": [3566, 720, 3385, 1542, 233, 259], "actions": ["right", "right", "right", "right", "up", "right"], "actionTimes": [5635, 6359, 10267, 12322, 13061, 13842], "queries": {"click": {"state": {"target": ["23", "1"], "time": [3109, 5113]}, "edge": {"target": [], "time": []}}, "mouseover": {"state": {"target": ["23", "1"], "time": [2566, 3794]}, "edge": {"target": [], "time": []}}, "mouseout": {"state": {"target": ["0", "0", "23", "1"], "time": [548, 2200, 3460, 41947]}, "edge": {"target": [], "time": []}}}, "displayed_time": "16.08", "trialTime": 42911, "trial_type": "mouselab-mdp", "trial_index": 13, "time_elapsed": 574514, "internal_node_id": "0.0-6.0-1.0-4.0"}}, {"uniqueid": "w28979187:a88850203", "current_trial": 14, "dateTime": 1693661100657, "trialdata": {"revealed_states": [], "clicked_states": ["4"], "num_clicks_accrued": [0, 0, 0, 0, 0, 0, 0, 0, 0, 0, 0, 0, 0], "stateRewards": ["", 1, 2, 3, 16, 63, -25, 16, -4, -14, 82, -66, -1, -3, -3, -11, -14, 19, 46, 3, -34, -82, 66, -2, -3, 4, -5, -63, 77, -37, -1, -45, -41, 84], "withholdReward": false, "trial_id": "mdp_trial_6", "block": "test", "trialIndex": 7, "score": 83.6, "costs": -1.4, "simulationMode": [null, null, null, null, null], "rewards": [1, 2, 3, 16, 63], "path": ["0", "0", "1", "2", "3", "4", "5"], "rt": [2944, 99, 373, 782, 357], "actions": ["up", "up", "up", "right", "up"], "actionTimes": [4535, 5153, 6059, 7365, 8240], "queries": {"click": {"state": {"target": ["4"], "time": [2733]}, "edge": {"target": [], "time": []}}, "mouseover": {"state": {"target": ["7", "4"], "time": [1644, 2020]}, "edge": {"target": [], "time": []}}, "mouseout": {"state": {"target": ["7", "4", "6"], "time": [1852, 12767, 12829]}, "edge": {"target": [], "time": []}}}, "displayed_time": "15.59", "trialTime": 17549, "trial_type": "mouselab-mdp", "trial_index": 14, "time_elapsed": 592595, "internal_node_id": "0.0-6.0-1.0-5.0"}}, {"uniqueid": "w28979187:a88850203", "current_trial": 15, "dateTime": 1693661121271, "trialdata": {"revealed_states": [], "clicked_states": ["8"], "num_clicks_accrued": [0, 0, 0, 0, 0, 0, 0, 0, 0, 0, 0, 0, 0], "stateRewards": ["", -2, 3, -1, 2, -72, 63, 20, -1, 62, -66, 39, -2, 3, -6, 14, 22, 47, 1, 8, -49, -1, -41, 2, 2, -6, -16, -64, -60, -34, 16, 54, 22, -7], "withholdReward": false, "trial_id": "mdp_trial_7", "block": "test", "trialIndex": 8, "score": 20.6, "costs": -1.4, "simulationMode": [null, null, null, null, null], "rewards": [-2, 3, -1, 2, 20], "path": ["0", "0", "1", "2", "3", "4", "7"], "rt": [4186, 240, 163, 2775, 278], "actions": ["up", "up", "up", "right", "down"], "actionTimes": [6116, 6868, 7562, 10852, 11647], "queries": {"click": {"state": {"target": ["8"], "time": [2948]}, "edge": {"target": [], "time": []}}, "mouseover": {"state": {"target": ["10", "8", "8", "10"], "time": [1947, 2062, 2380, 5978]}, "edge": {"target": [], "time": []}}, "mouseout": {"state": {"target": ["6", "4", "2", "10", "8", "8", "10", "2", "1"], "time": [376, 407, 458, 1988, 2194, 5674, 16677, 17559, 17606]}, "edge": {"target": [], "time": []}}}, "displayed_time": "15.94", "trialTime": 20110, "trial_type": "mouselab-mdp", "trial_index": 15, "time_elapsed": 613210, "internal_node_id": "0.0-6.0-1.0-6.0"}}, {"uniqueid": "w28979187:a88850203", "current_trial": 16, "dateTime": 1693661142589, "trialdata": {"revealed_states": [], "clicked_states": ["21"], "num_clicks_accrued": [0, 0, 0, 0, 0, 0, 0, 0, 0, 0, 0, 0, 0], "stateRewards": ["", 2, -3, -4, -1, 25, -16, 16, 10, -71, -20, -55, 1, 3, -4, -9, 1, 32, 11, -6, 32, -50, -41, -1, 4, 4, -8, 7, -81, 70, 2, -52, 45, -10], "withholdReward": false, "trial_id": "mdp_trial_8", "block": "test", "trialIndex": 9, "score": -9.4, "costs": -1.4, "simulationMode": [null, null, null, null, null], "rewards": [1, 3, -4, -9, 1], "path": ["0", "0", "12", "13", "14", "15", "16"], "rt": [3625, 878, 240, 1478, 235], "actions": ["right", "right", "right", "up", "up"], "actionTimes": [5238, 6655, 7418, 9425, 10165], "queries": {"click": {"state": {"target": ["21"], "time": [3245]}, "edge": {"target": [], "time": []}}, "mouseover": {"state": {"target": ["12", "22", "21"], "time": [1630, 2222, 2663]}, "edge": {"target": [], "time": []}}, "mouseout": {"state": {"target": ["1", "12", "22"], "time": [444, 2165, 2289]}, "edge": {"target": [], "time": []}}}, "displayed_time": "15.62", "trialTime": 20430, "trial_type": "mouselab-mdp", "trial_index": 16, "time_elapsed": 634528, "internal_node_id": "0.0-6.0-1.0-7.0"}}, {"uniqueid": "w28979187:a88850203", "current_trial": 17, "dateTime": 1693661160264, "trialdata": {"revealed_states": [], "clicked_states": ["9"], "num_clicks_accrued": [0, 0, 0, 0, 0, 0, 0, 0, 0, 0, 0, 0, 0], "stateRewards": ["", -2, -4, -8, 8, 63, -50, -19, -7, -17, -31, 31, 1, 3, -5, 12, -35, -63, -29, -4, -17, -75, -79, -2, -3, -2, 8, -3, -85, 10, -2, -82, -82, 56], "withholdReward": false, "trial_id": "mdp_trial_9", "block": "test", "trialIndex": 10, "score": -3.4000000000000004, "costs": -1.4, "simulationMode": [null, null, null, null, null], "rewards": [-2, -3, -2, 8, -3], "path": ["0", "0", "23", "24", "25", "26", "27"], "rt": [4061, 236, 114, 809, 103], "actions": ["left", "left", "left", "up", "up"], "actionTimes": [5627, 6385, 7030, 8358, 8984], "queries": {"click": {"state": {"target": ["9"], "time": [2768]}, "edge": {"target": [], "time": []}}, "mouseover": {"state": {"target": ["2", "8", "9", "5"], "time": [1581, 1681, 2270, 3462]}, "edge": {"target": [], "time": []}}, "mouseout": {"state": {"target": ["0", "2", "8", "9", "5"], "time": [549, 1627, 1730, 2944, 4179]}, "edge": {"target": [], "time": []}}}, "displayed_time": "15.57", "trialTime": 17110, "trial_type": "mouselab-mdp", "trial_index": 17, "time_elapsed": 652202, "internal_node_id": "0.0-6.0-1.0-8.0"}}, {"uniqueid": "w28979187:a88850203", "current_trial": 18, "dateTime": 1693661194020, "trialdata": {"revealed_states": [], "clicked_states": ["22"], "num_clicks_accrued": [0, 0, 0, 0, 0, 0, 0, 0, 0, 0, 0, 0, 0], "stateRewards": ["", 2, -3, 5, 11, -79, 54, 11, -9, -78, 33, 22, -2, -1, 2, 14, 43, 34, 1, 10, 49, -65, 39, -1, 1, -1, 3, -16, -2, 11, 2, 12, 48, -65], "withholdReward": false, "trial_id": "mdp_trial_10", "block": "test", "trialIndex": 11, "score": 46.6, "costs": -1.4, "simulationMode": [null, null, null, null, null], "rewards": [-2, -1, 2, 10, 39], "path": ["0", "0", "12", "13", "14", "19", "22"], "rt": [3721, 400, 278, 213, 258], "actions": ["right", "right", "right", "down", "left"], "actionTimes": [6058, 6981, 7776, 8511, 9292], "queries": {"click": {"state": {"target": ["22"], "time": [3612]}, "edge": {"target": [], "time": []}}, "mouseover": {"state": {"target": ["12", "22", "19"], "time": [2379, 2519, 4428]}, "edge": {"target": [], "time": []}}, "mouseout": {"state": {"target": ["6", "7", "23", "0", "12", "22", "19"], "time": [567, 598, 949, 2354, 2408, 4414, 4464]}, "edge": {"target": [], "time": []}}}, "displayed_time": "16.34", "trialTime": 33188, "trial_type": "mouselab-mdp", "trial_index": 18, "time_elapsed": 685958, "internal_node_id": "0.0-6.0-1.0-9.0"}}, {"uniqueid": "w28979187:a88850203", "current_trial": 19, "dateTime": 1693661222524, "trialdata": {"revealed_states": [], "clicked_states": ["16", "15", "14", "13"], "num_clicks_accrued": [0, 0, 0, 0, 0, 0, 0, 0, 0, 0, 0, 0, 0], "stateRewards": ["", 1, 1, 1, 15, -76, 52, -32, 14, -57, 37, 49, 1, -4, -3, 6, 83, -76, 25, 9, 36, -1, -17, -1, 4, 4, -2, -22, -21, 58, -15, -57, 49, -24], "withholdReward": false, "trial_id": "mdp_trial_11", "block": "test", "trialIndex": 12, "score": 77.4, "costs": -5.6, "simulationMode": [null, null, null, null, null], "rewards": [1, -4, -3, 6, 83], "path": ["0", "0", "12", "13", "14", "15", "16"], "rt": [12592, 273, 228, 293, 175], "actions": ["right", "right", "right", "up", "up"], "actionTimes": [16419, 17216, 17971, 18784, 19484], "queries": {"click": {"state": {"target": ["16", "15", "14", "13"], "time": [6590, 9558, 12108, 14535]}, "edge": {"target": [], "time": []}}, "mouseover": {"state": {"target": ["12", "18", "15", "16", "15", "14", "13"], "time": [4261, 4956, 5193, 6044, 8210, 10737, 12953]}, "edge": {"target": [], "time": []}}, "mouseout": {"state": {"target": ["12", "12", "18", "15", "16", "15", "14", "13", "12", "0"], "time": [2775, 4929, 4990, 5429, 7421, 10387, 12116, 21521, 21622, 21689]}, "edge": {"target": [], "time": []}}}, "displayed_time": "20.01", "trialTime": 27952, "trial_type": "mouselab-mdp", "trial_index": 19, "time_elapsed": 714462, "internal_node_id": "0.0-6.0-1.0-10.0"}}, {"uniqueid": "w28979187:a88850203", "current_trial": 20, "dateTime": 1693661244663, "trialdata": {"revealed_states": [], "clicked_states": ["32", "30", "21", "31", "33"], "num_clicks_accrued": [0, 0, 0, 0, 0, 0, 0, 0, 0, 0, 0, 0, 0], "stateRewards": ["", 1, 1, 5, 6, -29, -7, 3, -16, 9, -46, 65, -1, 4, -1, -16, -63, -77, -87, 8, 80, -50, 43, -1, -1, -5, 5, -38, -71, -62, 9, 81, -50, -52], "withholdReward": false, "trial_id": "mdp_trial_12", "block": "test", "trialIndex": 13, "score": 76, "costs": -7, "simulationMode": [null, null, null, null, null], "rewards": [-1, -1, -5, 9, 81], "path": ["0", "0", "23", "24", "25", "30", "31"], "rt": [13020, 337, 223, 137, 202], "actions": ["left", "left", "left", "down", "right"], "actionTimes": [14534, 15384, 16117, 16771, 17499], "queries": {"click": {"state": {"target": ["32", "30", "21", "31", "33"], "time": [2913, 5304, 7654, 9910, 12111]}, "edge": {"target": [], "time": []}}, "mouseover": {"state": {"target": ["23", "24", "31", "30", "32", "30", "31", "20", "20", "21", "22", "31", "33", "24", "23"], "time": [1530, 1684, 2081, 2125, 2428, 3526, 5561, 5692, 6127, 6393, 8192, 8742, 10876, 12843, 13025]}, "edge": {"target": [], "time": []}}, "mouseout": {"state": {"target": ["0", "1", "23", "24", "31", "30", "32", "30", "31", "20", "20", "21", "22", "31", "33", "24", "23", "1"], "time": [95, 480, 1559, 1749, 2093, 2160, 3492, 5548, 5576, 5744, 6143, 8142, 8209, 10592, 12742, 12992, 20310, 20910]}, "edge": {"target": [], "time": []}}}, "displayed_time": "18.01", "trialTime": 21532, "trial_type": "mouselab-mdp", "trial_index": 20, "time_elapsed": 736600, "internal_node_id": "0.0-6.0-1.0-11.0"}}, {"uniqueid": "w28979187:a88850203", "current_trial": 21, "dateTime": 1693661278547, "trialdata": {"revealed_states": [], "clicked_states": ["9", "5", "4", "3", "16", "17", "14", "15"], "num_clicks_accrued": [0, 0, 0, 0, 0, 0, 0, 0, 0, 0, 0, 0, 0], "stateRewards": ["", 2, -4, -8, -15, 71, -43, -41, 7, -17, 20, 67, -1, -1, -4, 6, 37, -24, -47, 9, 34, 57, 45, 1, 2, -4, -5, -23, 88, -5, 13, -40, 43, 44], "withholdReward": false, "trial_id": "mdp_trial_13", "block": "test", "trialIndex": 14, "score": 25.799999999999997, "costs": -11.200000000000001, "simulationMode": [null, null, null, null, null], "rewards": [-1, -1, -4, 6, 37], "path": ["0", "0", "12", "13", "14", "15", "16"], "rt": [21218, 253, 101, 212, 228], "actions": ["right", "right", "right", "up", "up"], "actionTimes": [23638, 24411, 25077, 25805, 26555], "queries": {"click": {"state": {"target": ["9", "5", "4", "3", "16", "17", "14", "15"], "time": [3700, 5967, 9633, 12366, 14616, 16925, 19271, 21560]}, "edge": {"target": [], "time": []}}, "mouseover": {"state": {"target": ["3", "8", "9", "5", "17", "16", "4", "3", "16", "17", "14", "15"], "time": [2484, 2533, 3119, 4517, 6900, 7400, 9108, 11855, 13033, 16017, 17600, 19917]}, "edge": {"target": [], "time": []}}, "mouseout": {"state": {"target": ["1", "0", "0", "3", "8", "9", "5", "5", "17", "16", "4", "3", "16", "17", "14", "15", "0"], "time": [455, 657, 1005, 2501, 3005, 4271, 5977, 6435, 7118, 8839, 11755, 12935, 15251, 17449, 19632, 29169, 32286]}, "edge": {"target": [], "time": []}}}, "displayed_time": "27.07", "trialTime": 33360, "trial_type": "mouselab-mdp", "trial_index": 21, "time_elapsed": 770484, "internal_node_id": "0.0-6.0-1.0-12.0"}}, {"uniqueid": "w28979187:a88850203", "current_trial": 22, "dateTime": 1693661298876, "trialdata": {"revealed_states": [], "clicked_states": ["25", "27", "5", "3"], "num_clicks_accrued": [0, 0, 0, 0, 0, 0, 0, 0, 0, 0, 0, 0, 0], "stateRewards": ["", 1, 2, -3, -6, 50, -7, 7, -7, -80, 21, -1, 2, 2, 4, -1, 33, 84, 1, 14, -53, 81, 6, -2, -2, -3, -9, -87, -38, -59, -5, -74, -3, -71], "withholdReward": false, "trial_id": "mdp_trial_14", "block": "test", "trialIndex": 15, "score": 38.4, "costs": -5.6, "simulationMode": [null, null, null, null, null], "rewards": [1, 2, -3, -6, 50], "path": ["0", "0", "1", "2", "3", "4", "5"], "rt": [11791, 122, 145, 125, 138], "actions": ["up", "up", "up", "right", "up"], "actionTimes": [13827, 14472, 15141, 15789, 16456], "queries": {"click": {"state": {"target": ["25", "27", "5", "3"], "time": [3313, 5686, 8019, 11790]}, "edge": {"target": [], "time": []}}, "mouseover": {"state": {"target": ["23", "24", "25", "26", "27", "5", "6", "16", "17", "19", "13", "7", "3"], "time": [2110, 2200, 2500, 4312, 4427, 6546, 8629, 8711, 8811, 10050, 10295, 10934, 11285]}, "edge": {"target": [], "time": []}}, "mouseout": {"state": {"target": ["0", "23", "24", "25", "26", "27", "5", "6", "16", "17", "19", "13", "7", "3", "1", "0"], "time": [2077, 2143, 2302, 4262, 4378, 6062, 8577, 8644, 8728, 9905, 10263, 10349, 11017, 18529, 18666, 18713]}, "edge": {"target": [], "time": []}}}, "displayed_time": "16.98", "trialTime": 19869, "trial_type": "mouselab-mdp", "trial_index": 22, "time_elapsed": 790814, "internal_node_id": "0.0-6.0-1.0-13.0"}}, {"uniqueid": "w28979187:a88850203", "current_trial": 23, "dateTime": 1693661316340, "trialdata": {"revealed_states": [], "clicked_states": ["21", "14", "16"], "num_clicks_accrued": [0, 0, 0, 0, 0, 0, 0, 0, 0, 0, 0, 0, 0], "stateRewards": ["", -1, -2, -8, 8, -27, -82, 19, -14, -62, 4, 1, -2, 2, 6, 10, 73, -51, -2, 2, 73, -48, 54, -1, 2, -4, 11, -25, 47, 86, 15, 33, 43, -42], "withholdReward": false, "trial_id": "mdp_trial_15", "block": "test", "trialIndex": 16, "score": 84.8, "costs": -4.199999999999999, "simulationMode": [null, null, null, null, null], "rewards": [-2, 2, 6, 10, 73], "path": ["0", "0", "12", "13", "14", "15", "16"], "rt": [8302, 86, 102, 250, 158], "actions": ["right", "right", "right", "up", "up"], "actionTimes": [10042, 10651, 11281, 12045, 12722], "queries": {"click": {"state": {"target": ["21", "14", "16"], "time": [2756, 5089, 7379]}, "edge": {"target": [], "time": []}}, "mouseover": {"state": {"target": ["19", "21", "19", "14", "14", "15", "16", "6", "5"], "time": [1759, 2217, 3443, 3472, 3875, 5509, 5625, 7729, 7774]}, "edge": {"target": [], "time": []}}, "mouseout": {"state": {"target": ["0", "13", "12", "0", "19", "21", "19", "14", "14", "15", "16", "6", "5"], "time": [314, 646, 665, 1756, 2114, 2763, 3467, 3503, 5492, 5543, 7725, 7741, 15727]}, "edge": {"target": [], "time": []}}}, "displayed_time": "15.74", "trialTime": 16933, "trial_type": "mouselab-mdp", "trial_index": 23, "time_elapsed": 808277, "internal_node_id": "0.0-6.0-1.0-14.0"}}, {"uniqueid": "w28979187:a88850203", "current_trial": 24, "dateTime": 1693661336755, "trialdata": {"revealed_states": [], "clicked_states": ["26", "28", "29", "27"], "num_clicks_accrued": [0, 0, 0, 0, 0, 0, 0, 0, 0, 0, 0, 0, 0], "stateRewards": ["", 1, 4, -8, -5, -15, -7, 21, 13, -30, 40, -65, 1, 1, 5, -14, 35, 27, -38, -11, 36, -58, -47, -2, 4, -3, 13, -16, -49, 22, 15, -56, -44, -10], "withholdReward": false, "trial_id": "mdp_trial_16", "block": "test", "trialIndex": 17, "score": 28.4, "costs": -5.6, "simulationMode": [null, null, null, null, null], "rewards": [-2, 4, -3, 13, 22], "path": ["0", "0", "23", "24", "25", "26", "29"], "rt": [11952, 82, 667, 305, 181], "actions": ["left", "left", "left", "up", "left"], "actionTimes": [13788, 14393, 15628, 16448, 17162], "queries": {"click": {"state": {"target": ["26", "28", "29", "27"], "time": [3132, 7136, 9448, 11864]}, "edge": {"target": [], "time": []}}, "mouseover": {"state": {"target": ["23", "28", "26", "25", "27", "28", "26", "29", "27"], "time": [1958, 2131, 2364, 4219, 5582, 6597, 7777, 7990, 10123]}, "edge": {"target": [], "time": []}}, "mouseout": {"state": {"target": ["3", "2", "1", "23", "28", "26", "25", "26", "27", "26", "28", "26", "29"], "time": [230, 660, 946, 2028, 2161, 4008, 5328, 5447, 6228, 6494, 7742, 7871, 9460]}, "edge": {"target": [], "time": []}}}, "displayed_time": "17.68", "trialTime": 19883, "trial_type": "mouselab-mdp", "trial_index": 24, "time_elapsed": 828693, "internal_node_id": "0.0-6.0-1.0-15.0"}}, {"uniqueid": "w28979187:a88850203", "current_trial": 25, "dateTime": 1693661360012, "trialdata": {"revealed_states": [], "clicked_states": ["25", "30", "32", "31", "33"], "num_clicks_accrued": [0, 0, 0, 0, 0, 0, 0, 0, 0, 0, 0, 0, 0], "stateRewards": ["", 1, -3, -2, 14, 49, -40, -39, 2, 26, -61, 73, 1, -4, -8, 12, 79, 29, -65, -13, 55, -26, 27, -1, 3, 3, 9, -17, -60, -18, -8, 35, -88, 69], "withholdReward": false, "trial_id": "mdp_trial_17", "block": "test", "trialIndex": 18, "score": 59, "costs": -7, "simulationMode": [null, null, null, null, null], "rewards": [-1, 3, 3, -8, 69], "path": ["0", "0", "23", "24", "25", "30", "33"], "rt": [14465, 5, 90, 99, 147], "actions": ["left", "left", "left", "down", "left"], "actionTimes": [17887, 18420, 19035, 19662, 20327], "queries": {"click": {"state": {"target": ["25", "30", "32", "31", "33"], "time": [4606, 8087, 10518, 12980, 15317]}, "edge": {"target": [], "time": []}}, "mouseover": {"state": {"target": ["23", "24", "25", "31", "30", "32", "31", "30", "33"], "time": [3546, 3800, 4019, 7017, 7518, 10035, 11461, 13444, 13503]}, "edge": {"target": [], "time": []}}, "mouseout": {"state": {"target": ["27", "10", "24", "24", "23", "0", "0", "23", "24", "25", "31", "30", "32", "30", "31", "30"], "time": [300, 666, 733, 2097, 2145, 2283, 3494, 3661, 3901, 5362, 7334, 9610, 10527, 11396, 13427, 13460]}, "edge": {"target": [], "time": []}}}, "displayed_time": "20.85", "trialTime": 22695, "trial_type": "mouselab-mdp", "trial_index": 25, "time_elapsed": 851949, "internal_node_id": "0.0-6.0-1.0-16.0"}}, {"uniqueid": "w28979187:a88850203", "current_trial": 26, "dateTime": 1693661397708, "trialdata": {"revealed_states": [], "clicked_states": ["3", "14", "25", "31", "32", "33", "20", "21", "22"], "num_clicks_accrued": [0, 0, 0, 0, 0, 0, 0, 0, 0, 0, 0, 0, 0], "stateRewards": ["", -1, 1, -5, -6, -78, 47, -13, 12, 48, -88, 20, 2, -3, -2, 13, -20, 37, -57, 14, -38, 30, 31, -2, -2, 8, 2, -23, 78, 28, 12, -74, -88, 8], "withholdReward": false, "trial_id": "mdp_trial_18", "block": "test", "trialIndex": 19, "score": 29.4, "costs": -12.600000000000001, "simulationMode": [null, null, null, null, null], "rewards": [2, -3, -2, 14, 31], "path": ["0", "0", "12", "13", "14", "19", "22"], "rt": [24792, 70, 101, 100, 107], "actions": ["right", "right", "right", "down", "left"], "actionTimes": [26593, 27184, 27815, 28433, 29055], "queries": {"click": {"state": {"target": ["3", "14", "25", "31", "32", "33", "20", "21", "22"], "time": [4066, 6680, 8901, 11937, 14247, 16518, 20121, 22310, 24663]}, "edge": {"target": [], "time": []}}, "mouseover": {"state": {"target": ["1", "2", "3", "7", "18", "14", "13", "12", "24", "25", "31", "32", "33", "30", "20", "21", "22"], "time": [2321, 2724, 3121, 4798, 4881, 6055, 6930, 6964, 7279, 7396, 11319, 12745, 14695, 18116, 19467, 21049, 23012]}, "edge": {"target": [], "time": []}}, "mouseout": {"state": {"target": ["1", "1", "2", "3", "7", "18", "14", "13", "12", "24", "25", "31", "32", "33", "30", "20", "21"], "time": [918, 2534, 2821, 4764, 4830, 4913, 6914, 6948, 6979, 7313, 10918, 12512, 14595, 18068, 18147, 20728, 22795]}, "edge": {"target": [], "time": []}}}, "displayed_time": "29.58", "trialTime": 36763, "trial_type": "mouselab-mdp", "trial_index": 26, "time_elapsed": 889647, "internal_node_id": "0.0-6.0-1.0-17.0"}}, {"uniqueid": "w28979187:a88850203", "current_trial": 27, "dateTime": 1693661416454, "trialdata": {"revealed_states": [], "clicked_states": ["4", "8", "5", "6"], "num_clicks_accrued": [0, 0, 0, 0, 0, 0, 0, 0, 0, 0, 0, 0, 0], "stateRewards": ["", 2, -1, 1, 10, -52, 86, -22, -2, -14, -63, 38, 1, 3, 7, -8, 11, -32, -27, 9, -71, 40, -87, -2, -1, 5, -7, 12, 31, -57, 13, 86, -58, 29], "withholdReward": false, "trial_id": "mdp_trial_19", "block": "test", "trialIndex": 20, "score": 92.4, "costs": -5.6, "simulationMode": [null, null, null, null, null], "rewards": [2, -1, 1, 10, 86], "path": ["0", "0", "1", "2", "3", "4", "6"], "rt": [11858, 37, 58, 75, 244], "actions": ["up", "up", "up", "right", "right"], "actionTimes": [13110, 13674, 14261, 14862, 15629], "queries": {"click": {"state": {"target": ["4", "8", "5", "6"], "time": [3507, 5954, 8205, 10393]}, "edge": {"target": [], "time": []}}, "mouseover": {"state": {"target": ["7", "4", "3", "8", "5", "6", "7"], "time": [1295, 2290, 4304, 4416, 6934, 9183, 11457]}, "edge": {"target": [], "time": []}}, "mouseout": {"state": {"target": ["12", "0", "7", "4", "3", "8", "5", "6"], "time": [337, 1291, 1444, 4300, 4317, 6717, 8849, 10949]}, "edge": {"target": [], "time": []}}}, "displayed_time": "16.15", "trialTime": 18182, "trial_type": "mouselab-mdp", "trial_index": 27, "time_elapsed": 908392, "internal_node_id": "0.0-6.0-1.0-18.0"}}, {"uniqueid": "w28979187:a88850203", "current_trial": 28, "dateTime": 1693661440128, "trialdata": {"revealed_states": [], "clicked_states": ["25", "14", "3", "5"], "num_clicks_accrued": [0, 0, 0, 0, 0, 0, 0, 0, 0, 0, 0, 0, 0], "stateRewards": ["", -2, 3, 3, -14, 62, 36, 49, 16, 11, 17, -84, 2, -1, 6, 2, -82, -73, 49, -6, -87, 48, 50, -1, -2, -1, -16, -11, 37, -44, 4, 55, 73, -10], "withholdReward": false, "trial_id": "mdp_trial_20", "block": "test", "trialIndex": 21, "score": 46.4, "costs": -5.6, "simulationMode": [null, null, null, null, null], "rewards": [-2, 3, 3, -14, 62], "path": ["0", "0", "1", "2", "3", "4", "5"], "rt": [10497, 126, 139, 120, 260], "actions": ["up", "up", "up", "right", "up"], "actionTimes": [12047, 12693, 13371, 14001, 14758], "queries": {"click": {"state": {"target": ["25", "14", "3", "5"], "time": [2867, 5057, 7304, 9467]}, "edge": {"target": [], "time": []}}, "mouseover": {"state": {"target": ["23", "24", "25", "24", "18", "15", "14", "18", "7", "2", "3", "4", "5", "6", "16", "17"], "time": [1668, 1936, 1996, 3649, 3729, 3764, 4045, 5545, 5728, 5829, 5962, 8079, 8361, 10021, 10211, 10345]}, "edge": {"target": [], "time": []}}, "mouseout": {"state": {"target": ["7", "1", "23", "24", "25", "24", "18", "15", "14", "18", "7", "2", "3", "4", "5", "6", "16"], "time": [266, 583, 1802, 1982, 3646, 3663, 3746, 3779, 5528, 5628, 5778, 5862, 7962, 8344, 9964, 10057, 10277]}, "edge": {"target": [], "time": []}}}, "displayed_time": "15.56", "trialTime": 23104, "trial_type": "mouselab-mdp", "trial_index": 28, "time_elapsed": 932066, "internal_node_id": "0.0-6.0-1.0-19.0"}}, {"uniqueid": "w28979187:a88850203", "current_trial": 29, "dateTime": 1693661461095, "trialdata": {"revealed_states": [], "clicked_states": ["3", "14", "25", "21"], "num_clicks_accrued": [0, 0, 0, 0, 0, 0, 0, 0, 0, 0, 0, 0, 0], "stateRewards": ["", -2, 3, -5, -7, 66, 43, -60, -4, -70, -75, 4, -1, 2, 2, -13, 54, 11, -40, -1, 77, 32, 15, -2, 3, -8, -9, -35, 83, -27, 6, -74, -34, 44], "withholdReward": false, "trial_id": "mdp_trial_21", "block": "test", "trialIndex": 22, "score": 28.4, "costs": -5.6, "simulationMode": [null, null, null, null, null], "rewards": [-1, 2, 2, -1, 32], "path": ["0", "0", "12", "13", "14", "19", "21"], "rt": [11517, 60, 157, 106, 196], "actions": ["right", "right", "right", "down", "down"], "actionTimes": [13174, 13748, 14444, 15077, 15792], "queries": {"click": {"state": {"target": ["3", "14", "25", "21"], "time": [3430, 5605, 7771, 9955]}, "edge": {"target": [], "time": []}}, "mouseover": {"state": {"target": ["12", "2", "3", "7", "15", "14", "13", "0", "25", "24", "23", "22", "21", "22"], "time": [1674, 2541, 2836, 4351, 4400, 5067, 5936, 5996, 6351, 8054, 8072, 8218, 8451, 10433]}, "edge": {"target": [], "time": []}}, "mouseout": {"state": {"target": ["17", "12", "2", "3", "7", "15", "14", "13", "0", "25", "24", "23", "22", "21", "22", "12", "0", "0"], "time": [64, 1818, 2791, 4335, 4368, 4417, 5921, 5992, 6018, 8050, 8068, 8087, 8254, 10234, 18201, 18267, 18391, 19738]}, "edge": {"target": [], "time": []}}}, "displayed_time": "16.30", "trialTime": 20279, "trial_type": "mouselab-mdp", "trial_index": 29, "time_elapsed": 953033, "internal_node_id": "0.0-6.0-1.0-20.0"}}, {"uniqueid": "w28979187:a88850203", "current_trial": 30, "dateTime": 1693661485827, "trialdata": {"revealed_states": [], "clicked_states": ["8", "4", "15", "19", "22", "21"], "num_clicks_accrued": [0, 0, 0, 0, 0, 0, 0, 0, 0, 0, 0, 0, 0], "stateRewards": ["", 2, -4, -4, 13, -80, 62, 13, -11, 57, -13, -44, 1, 4, 3, -4, -29, -88, 15, 16, -58, 68, -45, -1, -3, -1, -9, -44, -86, -19, -7, -36, 59, 66], "withholdReward": false, "trial_id": "mdp_trial_22", "block": "test", "trialIndex": 23, "score": 83.6, "costs": -8.4, "simulationMode": [null, null, null, null, null], "rewards": [1, 4, 3, 16, 68], "path": ["0", "0", "12", "13", "14", "19", "21"], "rt": [17076, 54, 86, 33, 67], "actions": ["right", "right", "right", "down", "down"], "actionTimes": [18381, 18946, 19561, 20109, 20692], "queries": {"click": {"state": {"target": ["8", "4", "15", "19", "22", "21"], "time": [2948, 5319, 7591, 10237, 13615, 15878]}, "edge": {"target": [], "time": []}}, "mouseover": {"state": {"target": ["10", "8", "3", "4", "15", "14", "19", "23", "24", "25", "22", "21", "20"], "time": [1680, 2098, 3457, 4440, 5823, 9022, 9563, 10546, 10587, 10856, 13027, 14689, 16406]}, "edge": {"target": [], "time": []}}, "mouseout": {"state": {"target": ["0", "10", "8", "3", "4", "15", "14", "19", "23", "24", "25", "22", "19", "21", "20"], "time": [44, 1813, 3389, 4123, 5656, 8939, 9212, 10475, 10566, 10632, 12568, 14140, 14386, 15886, 22411]}, "edge": {"target": [], "time": []}}}, "displayed_time": "21.21", "trialTime": 24118, "trial_type": "mouselab-mdp", "trial_index": 30, "time_elapsed": 977764, "internal_node_id": "0.0-6.0-1.0-21.0"}}, {"uniqueid": "w28979187:a88850203", "current_trial": 31, "dateTime": 1693661515112, "trialdata": {"revealed_states": [], "clicked_states": ["25", "14", "20", "21", "22", "16", "18", "17"], "num_clicks_accrued": [0, 0, 0, 0, 0, 0, 0, 0, 0, 0, 0, 0, 0], "stateRewards": ["", -2, 2, 5, -14, -56, 64, 84, -5, 52, 39, 85, -2, 1, 7, 8, 21, 29, -78, -9, -10, -69, 10, -2, -1, -7, 15, 72, 20, 41, -2, 52, 80, 22], "withholdReward": false, "trial_id": "mdp_trial_23", "block": "test", "trialIndex": 24, "score": 31.799999999999997, "costs": -11.200000000000001, "simulationMode": [null, null, null, null, null], "rewards": [-2, 1, 7, 8, 29], "path": ["0", "0", "12", "13", "14", "15", "17"], "rt": [21113, 33, 69, 71, 119], "actions": ["right", "right", "right", "up", "right"], "actionTimes": [23025, 23581, 24182, 24778, 25416], "queries": {"click": {"state": {"target": ["25", "14", "20", "21", "22", "16", "18", "17"], "time": [3450, 5645, 9058, 11290, 13510, 16346, 18779, 21052]}, "edge": {"target": [], "time": []}}, "mouseover": {"state": {"target": ["23", "24", "25", "1", "18", "14", "18", "7", "3", "15", "20", "21", "22", "15", "16", "18", "15", "17"], "time": [2352, 2618, 2937, 4180, 4233, 4646, 6012, 6196, 6412, 7936, 8537, 9930, 11880, 15401, 15787, 17728, 19245, 19779]}, "edge": {"target": [], "time": []}}, "mouseout": {"state": {"target": ["14", "13", "23", "24", "25", "1", "18", "14", "18", "7", "3", "15", "20", "21", "22", "15", "16", "18", "15", "17"], "time": [490, 531, 2563, 2719, 4129, 4196, 4265, 5996, 6029, 6297, 7820, 7948, 9595, 11662, 14261, 15527, 17412, 19177, 19462, 21063]}, "edge": {"target": [], "time": []}}}, "displayed_time": "25.93", "trialTime": 28713, "trial_type": "mouselab-mdp", "trial_index": 31, "time_elapsed": 1007050, "internal_node_id": "0.0-6.0-1.0-22.0"}}, {"uniqueid": "w28979187:a88850203", "current_trial": 32, "dateTime": 1693661539018, "trialdata": {"revealed_states": [], "clicked_states": ["3", "14", "25", "17", "16", "18"], "num_clicks_accrued": [0, 0, 0, 0, 0, 0, 0, 0, 0, 0, 0, 0, 0], "stateRewards": ["", -2, -3, -3, 9, 79, 67, 22, -15, -56, 27, -85, -2, 4, -4, -15, -20, -32, 60, 15, 71, 57, 17, 1, 2, -8, 15, -37, -81, 82, 15, 21, -3, 2], "withholdReward": false, "trial_id": "mdp_trial_24", "block": "test", "trialIndex": 25, "score": 34.6, "costs": -8.4, "simulationMode": [null, null, null, null, null], "rewards": [-2, 4, -4, -15, 60], "path": ["0", "0", "12", "13", "14", "15", "18"], "rt": [16505, 47, 45, 468, 160], "actions": ["right", "right", "right", "up", "left"], "actionTimes": [18610, 19186, 19769, 20776, 21450], "queries": {"click": {"state": {"target": ["3", "14", "25", "17", "16", "18"], "time": [3573, 5799, 8092, 11682, 13861, 16053]}, "edge": {"target": [], "time": []}}, "mouseover": {"state": {"target": ["10", "3", "15", "14", "13", "23", "24", "25", "24", "1", "18", "17", "17", "16", "18", "20"], "time": [2628, 2979, 4038, 4354, 6089, 6171, 6213, 6504, 10258, 10287, 10326, 10370, 10993, 12388, 14588, 16820]}, "edge": {"target": [], "time": []}}, "mouseout": {"state": {"target": ["17", "12", "0", "10", "3", "15", "14", "13", "23", "24", "25", "24", "1", "18", "17", "17", "16", "18"], "time": [642, 926, 2125, 2712, 3855, 4071, 5807, 6104, 6188, 6471, 10255, 10273, 10304, 10338, 10387, 12104, 14253, 16336]}, "edge": {"target": [], "time": []}}}, "displayed_time": "21.97", "trialTime": 23414, "trial_type": "mouselab-mdp", "trial_index": 32, "time_elapsed": 1030956, "internal_node_id": "0.0-6.0-1.0-23.0"}}, {"uniqueid": "w28979187:a88850203", "current_trial": 33, "dateTime": 1693661557574, "trialdata": {"revealed_states": [], "clicked_states": ["3", "6", "11"], "num_clicks_accrued": [0, 0, 0, 0, 0, 0, 0, 0, 0, 0, 0, 0, 0], "stateRewards": ["", -1, 2, 6, 11, 21, -21, -21, -6, 48, -71, 88, -1, -3, 3, 7, 64, 2, 9, -4, 37, -67, 72, 2, 2, -8, -8, -10, 71, -40, -3, 73, 80, 47], "withholdReward": false, "trial_id": "mdp_trial_25", "block": "test", "trialIndex": 26, "score": 84.8, "costs": -4.199999999999999, "simulationMode": [null, null, null, null, null], "rewards": [-1, 2, 6, -6, 88], "path": ["0", "0", "1", "2", "3", "8", "11"], "rt": [10211, 65, 93, 96, 195], "actions": ["up", "up", "up", "left", "left"], "actionTimes": [12661, 13253, 13876, 14500, 15211], "queries": {"click": {"state": {"target": ["3", "6", "11"], "time": [4257, 7633, 9881]}, "edge": {"target": [], "time": []}}, "mouseover": {"state": {"target": ["2", "3", "4", "15", "14", "6", "4", "8", "11"], "time": [3404, 3704, 4766, 4981, 5197, 7038, 7964, 8106, 8397]}, "edge": {"target": [], "time": []}}, "mouseout": {"state": {"target": ["20", "19", "22", "2", "3", "4", "15", "14", "6", "4", "8", "11"], "time": [537, 801, 836, 3620, 4749, 4782, 5165, 6433, 7947, 7997, 8348, 11888]}, "edge": {"target": [], "time": []}}}, "displayed_time": "16.45", "trialTime": 17982, "trial_type": "mouselab-mdp", "trial_index": 33, "time_elapsed": 1049512, "internal_node_id": "0.0-6.0-1.0-24.0"}}, {"uniqueid": "w28979187:a88850203", "current_trial": 34, "dateTime": 1693661584815, "trialdata": {"revealed_states": [], "clicked_states": ["25", "14", "3", "16", "17", "21", "22", "20"], "num_clicks_accrued": [0, 0, 0, 0, 0, 0, 0, 0, 0, 0, 0, 0, 0], "stateRewards": ["", -2, 2, -5, 1, 42, -63, -58, -6, 2, 16, 81, -2, 4, 7, -10, 33, 3, -33, -2, -52, -84, -27, 2, -3, -3, 15, -74, -14, -5, -5, -84, 79, -31], "withholdReward": false, "trial_id": "mdp_trial_26", "block": "test", "trialIndex": 27, "score": 20.799999999999997, "costs": -11.200000000000001, "simulationMode": [null, null, null, null, null], "rewards": [-2, 4, 7, -10, 33], "path": ["0", "0", "12", "13", "14", "15", "16"], "rt": [19281, 58, 44, 861, 284], "actions": ["right", "right", "right", "up", "up"], "actionTimes": [21127, 21706, 22275, 23676, 24464], "queries": {"click": {"state": {"target": ["25", "14", "3", "16", "17", "21", "22", "20"], "time": [3253, 5451, 7807, 9986, 12551, 14770, 16957, 19179]}, "edge": {"target": [], "time": []}}, "mouseover": {"state": {"target": ["23", "24", "25", "24", "14", "18", "7", "3", "4", "6", "16", "17", "21", "22", "19", "20"], "time": [1867, 2331, 2652, 3614, 4146, 6130, 6197, 6463, 8263, 8296, 8863, 10563, 13212, 15445, 17194, 17395]}, "edge": {"target": [], "time": []}}, "mouseout": {"state": {"target": ["23", "24", "25", "24", "14", "18", "7", "3", "4", "6", "16", "17", "21", "22", "19"], "time": [2065, 2485, 3530, 3663, 6112, 6163, 6229, 8246, 8280, 8329, 10265, 12862, 15112, 17178, 17278]}, "edge": {"target": [], "time": []}}}, "displayed_time": "24.98", "trialTime": 26658, "trial_type": "mouselab-mdp", "trial_index": 34, "time_elapsed": 1076754, "internal_node_id": "0.0-6.0-1.0-25.0"}}, {"uniqueid": "w28979187:a88850203", "current_trial": 35, "dateTime": 1693661604584, "trialdata": {"revealed_states": [], "clicked_states": ["3", "25"], "num_clicks_accrued": [0, 0, 0, 0, 0, 0, 0, 0, 0, 0, 0, 0, 0], "stateRewards": ["", -2, 3, -1, -9, 44, 48, -37, -3, 71, -39, 87, -1, 3, -4, 4, -21, 59, -15, -8, -1, 28, -38, 2, 4, 4, 8, -85, -72, -63, 14, 58, 63, -46], "withholdReward": false, "trial_id": "mdp_trial_27", "block": "test", "trialIndex": 28, "score": -56.8, "costs": -2.8, "simulationMode": [null, null, null, null, null], "rewards": [2, 4, 4, 8, -72], "path": ["0", "0", "23", "24", "25", "26", "28"], "rt": [9699, 494, 218, 121, 152], "actions": ["left", "left", "left", "up", "right"], "actionTimes": [11127, 12114, 12855, 13491, 14154], "queries": {"click": {"state": {"target": ["3", "25"], "time": [2521, 4846]}, "edge": {"target": [], "time": []}}, "mouseover": {"state": {"target": ["1", "2", "3", "10", "28", "24", "25", "24", "13", "14", "13", "23", "26", "26", "27"], "time": [1471, 1707, 1971, 2884, 2968, 3234, 3317, 5084, 5383, 5483, 7216, 7249, 7332, 7556, 9034]}, "edge": {"target": [], "time": []}}, "mouseout": {"state": {"target": ["20", "14", "13", "12", "1", "2", "3", "10", "28", "24", "25", "24", "13", "14", "13", "23", "26", "26", "27", "1"], "time": [104, 322, 388, 417, 1486, 1841, 2868, 2900, 3001, 3251, 5068, 5100, 5451, 7210, 7228, 7266, 7507, 7690, 17651, 18635]}, "edge": {"target": [], "time": []}}}, "displayed_time": "15.43", "trialTime": 19133, "trial_type": "mouselab-mdp", "trial_index": 35, "time_elapsed": 1096522, "internal_node_id": "0.0-6.0-1.0-26.0"}}, {"uniqueid": "w28979187:a88850203", "current_trial": 36, "dateTime": 1693661625612, "trialdata": {"revealed_states": [], "clicked_states": ["25", "27", "28", "29", "32"], "num_clicks_accrued": [0, 0, 0, 0, 0, 0, 0, 0, 0, 0, 0, 0, 0], "stateRewards": ["", 2, 3, 8, 14, 69, -27, 17, 2, -71, -65, -10, 2, -3, 7, 8, 65, -10, 65, -12, 73, -12, 13, -2, -2, 6, 10, -79, -69, -18, 10, -85, 67, 74], "withholdReward": false, "trial_id": "mdp_trial_28", "block": "test", "trialIndex": 29, "score": 72, "costs": -7, "simulationMode": [null, null, null, null, null], "rewards": [-2, -2, 6, 10, 67], "path": ["0", "0", "23", "24", "25", "30", "32"], "rt": [13450, 17, 55, 72, 141], "actions": ["left", "left", "left", "down", "down"], "actionTimes": [14798, 15330, 15915, 16516, 17184], "queries": {"click": {"state": {"target": ["25", "27", "28", "29", "32"], "time": [2306, 5651, 7871, 10082, 12314]}, "edge": {"target": [], "time": []}}, "mouseover": {"state": {"target": ["24", "25", "28", "10", "3", "27", "28", "26", "29", "25", "30", "32", "33"], "time": [1392, 1816, 2626, 2726, 2942, 5114, 6641, 8376, 8692, 10425, 10491, 10791, 12757]}, "edge": {"target": [], "time": []}}, "mouseout": {"state": {"target": ["0", "1", "0", "24", "25", "28", "10", "3", "27", "28", "26", "29", "25", "30", "32", "33", "24", "23", "0"], "time": [11, 396, 1364, 1599, 2575, 2658, 2775, 4740, 6375, 8325, 8575, 10374, 10442, 10591, 12676, 19158, 19207, 19463, 19581]}, "edge": {"target": [], "time": []}}}, "displayed_time": "17.70", "trialTime": 20420, "trial_type": "mouselab-mdp", "trial_index": 36, "time_elapsed": 1117550, "internal_node_id": "0.0-6.0-1.0-27.0"}}, {"uniqueid": "w28979187:a88850203", "current_trial": 37, "dateTime": 1693661653682, "trialdata": {"revealed_states": [], "clicked_states": ["14", "3", "9", "5", "6", "7", "10", "11"], "num_clicks_accrued": [0, 0, 0, 0, 0, 0, 0, 0, 0, 0, 0, 0, 0], "stateRewards": ["", -1, -3, -3, 1, -38, 2, -53, -2, -1, -81, 70, -1, 1, -5, -9, 46, 15, 35, -1, -22, 38, 59, -2, 4, -8, 13, 1, -83, -43, 4, 76, 13, 48], "withholdReward": false, "trial_id": "mdp_trial_29", "block": "test", "trialIndex": 30, "score": 49.8, "costs": -11.200000000000001, "simulationMode": [null, null, null, null, null], "rewards": [-1, -3, -3, -2, 70], "path": ["0", "0", "1", "2", "3", "8", "11"], "rt": [19755, 30, 127, 260, 128], "actions": ["up", "up", "up", "left", "left"], "actionTimes": [20916, 21456, 22119, 22903, 23575], "queries": {"click": {"state": {"target": ["14", "3", "9", "5", "6", "7", "10", "11"], "time": [2123, 4328, 6493, 8847, 11011, 13249, 15546, 18162]}, "edge": {"target": [], "time": []}}, "mouseover": {"state": {"target": ["13", "14", "18", "7", "3", "9", "5", "6", "7", "2", "10", "11", "27"], "time": [1362, 1614, 2361, 2408, 2708, 5391, 8348, 9541, 11540, 13523, 13873, 16657, 18722]}, "edge": {"target": [], "time": []}}, "mouseout": {"state": {"target": ["0", "13", "14", "18", "7", "3", "9", "5", "6", "7", "2", "10", "11", "27", "1"], "time": [479, 1413, 2357, 2376, 2641, 5324, 7874, 9208, 11391, 13490, 13623, 16473, 18523, 26142, 26259]}, "edge": {"target": [], "time": []}}}, "displayed_time": "24.09", "trialTime": 27457, "trial_type": "mouselab-mdp", "trial_index": 37, "time_elapsed": 1145619, "internal_node_id": "0.0-6.0-1.0-28.0"}}, {"uniqueid": "w28979187:a88850203", "current_trial": 38, "dateTime": 1693661674764, "trialdata": {"revealed_states": [], "clicked_states": ["25", "3", "6", "7", "5"], "num_clicks_accrued": [0, 0, 0, 0, 0, 0, 0, 0, 0, 0, 0, 0, 0], "stateRewards": ["", -2, -3, 1, -7, 39, -67, 16, 5, -20, 73, 66, -1, 4, 5, -3, 23, -68, -87, -8, 3, -3, 17, 1, -4, -2, -13, -32, 34, 61, -5, -11, -18, 12], "withholdReward": false, "trial_id": "mdp_trial_30", "block": "test", "trialIndex": 31, "score": 21, "costs": -7, "simulationMode": [null, null, null, null, null], "rewards": [-2, -3, 1, -7, 39], "path": ["0", "0", "1", "2", "3", "4", "5"], "rt": [14620, 87, 143, 150, 165], "actions": ["up", "up", "up", "right", "up"], "actionTimes": [15792, 16397, 17069, 17742, 18424], "queries": {"click": {"state": {"target": ["25", "3", "6", "7", "5"], "time": [2312, 4487, 8192, 10405, 12911]}, "edge": {"target": [], "time": []}}, "mouseover": {"state": {"target": ["23", "24", "25", "28", "10", "3", "7", "18", "14", "15", "6", "7", "4", "5", "9"], "time": [1256, 1381, 1790, 2807, 2958, 3174, 5390, 5490, 5807, 7159, 7608, 8940, 10856, 11167, 13290]}, "edge": {"target": [], "time": []}}, "mouseout": {"state": {"target": ["12", "0", "23", "24", "25", "28", "10", "3", "7", "18", "14", "15", "6", "7", "4", "5"], "time": [124, 1252, 1278, 1650, 2674, 2841, 2991, 5374, 5407, 5730, 7144, 7190, 8824, 10774, 11057, 13240]}, "edge": {"target": [], "time": []}}}, "displayed_time": "18.94", "trialTime": 20379, "trial_type": "mouselab-mdp", "trial_index": 38, "time_elapsed": 1166702, "internal_node_id": "0.0-6.0-1.0-29.0"}}, {"uniqueid": "w28979187:a88850203", "current_trial": 39, "dateTime": 1693661695680, "trialdata": {"revealed_states": [], "clicked_states": ["25", "3", "27", "32", "33"], "num_clicks_accrued": [0, 0, 0, 0, 0, 0, 0, 0, 0, 0, 0, 0, 0], "stateRewards": ["", 1, -3, -1, 9, -34, -40, 22, -7, 45, 53, -11, 2, 4, 5, 15, 21, 37, -49, -3, 80, -28, -34, 1, -3, 1, 1, -40, -6, -5, -16, -85, -86, 59], "withholdReward": false, "trial_id": "mdp_trial_31", "block": "test", "trialIndex": 32, "score": 35, "costs": -7, "simulationMode": [null, null, null, null, null], "rewards": [1, -3, 1, -16, 59], "path": ["0", "0", "23", "24", "25", "30", "33"], "rt": [13957, 116, 108, 100, 165], "actions": ["left", "left", "left", "down", "left"], "actionTimes": [15770, 16411, 17052, 17661, 18342], "queries": {"click": {"state": {"target": ["25", "3", "27", "32", "33"], "time": [3163, 5967, 8206, 10416, 12689]}, "edge": {"target": [], "time": []}}, "mouseover": {"state": {"target": ["24", "12", "12", "23", "24", "25", "28", "10", "3", "8", "27", "32", "33", "29"], "time": [1837, 2009, 2260, 2285, 2325, 2676, 3501, 3553, 3977, 6463, 6860, 8775, 11075, 13376]}, "edge": {"target": [], "time": []}}, "mouseout": {"state": {"target": ["28", "23", "24", "12", "12", "23", "24", "25", "28", "10", "3", "8", "27", "32", "33"], "time": [347, 547, 1960, 2042, 2281, 2304, 2442, 3482, 3520, 3617, 6459, 6480, 8612, 10775, 12925]}, "edge": {"target": [], "time": []}}}, "displayed_time": "18.86", "trialTime": 20213, "trial_type": "mouselab-mdp", "trial_index": 39, "time_elapsed": 1187617, "internal_node_id": "0.0-6.0-1.0-30.0"}}, {"uniqueid": "w28979187:a88850203", "current_trial": 40, "dateTime": 1693661719087, "trialdata": {"revealed_states": [], "clicked_states": ["14", "16", "21", "22", "18"], "num_clicks_accrued": [0, 0, 0, 0, 0, 0, 0, 0, 0, 0, 0, 0, 0], "stateRewards": ["", -1, -3, -7, -4, -85, -70, 79, 8, 84, -66, 42, 2, -2, -3, -16, -54, -66, 68, -3, 21, -14, 7, -2, -1, -3, -8, 75, 80, 86, -7, -84, 73, -16], "withholdReward": false, "trial_id": "mdp_trial_32", "block": "test", "trialIndex": 33, "score": 42, "costs": -7, "simulationMode": [null, null, null, null, null], "rewards": [2, -2, -3, -16, 68], "path": ["0", "0", "12", "13", "14", "15", "18"], "rt": [15102, 130, 161, 133, 157], "actions": ["right", "right", "right", "up", "left"], "actionTimes": [16787, 17434, 18130, 18788, 19460], "queries": {"click": {"state": {"target": ["14", "16", "21", "22", "18"], "time": [4141, 7092, 9613, 11833, 14089]}, "edge": {"target": [], "time": []}}, "mouseover": {"state": {"target": ["14", "19", "15", "16", "19", "21", "22", "13", "18", "15", "17"], "time": [3588, 5150, 6190, 6487, 8738, 8956, 10200, 12166, 12250, 14451, 14761]}, "edge": {"target": [], "time": []}}, "mouseout": {"state": {"target": ["29", "2", "1", "14", "19", "15", "16", "14", "19", "21", "22", "13", "18", "15", "17"], "time": [66, 588, 704, 5034, 6138, 6406, 8017, 8683, 8856, 9900, 12116, 12200, 14420, 14560, 22336]}, "edge": {"target": [], "time": []}}}, "displayed_time": "19.97", "trialTime": 22914, "trial_type": "mouselab-mdp", "trial_index": 40, "time_elapsed": 1211025, "internal_node_id": "0.0-6.0-1.0-31.0"}}, {"uniqueid": "w28979187:a88850203", "current_trial": 41, "dateTime": 1693661741313, "trialdata": {"revealed_states": [], "clicked_states": ["25", "27", "32", "33", "28"], "num_clicks_accrued": [0, 0, 0, 0, 0, 0, 0, 0, 0, 0, 0, 0, 0], "stateRewards": ["", -2, -4, -2, 10, -8, -15, -47, 7, -84, 53, 5, -1, 2, -7, 3, 83, 31, 47, -1, 30, -8, 69, 2, -4, -1, 8, -7, 12, -8, -8, -13, 30, -84], "withholdReward": false, "trial_id": "mdp_trial_33", "block": "test", "trialIndex": 34, "score": 12, "costs": -7, "simulationMode": [null, null, null, null, null], "rewards": [2, -4, -1, -8, 30], "path": ["0", "0", "23", "24", "25", "30", "32"], "rt": [13269, 78, 71, 101, 187], "actions": ["left", "left", "left", "down", "down"], "actionTimes": [14571, 15175, 15784, 16398, 17101], "queries": {"click": {"state": {"target": ["25", "27", "32", "33", "28"], "time": [2506, 4846, 7044, 9491, 11957]}, "edge": {"target": [], "time": []}}, "mouseover": {"state": {"target": ["23", "24", "25", "26", "27", "26", "30", "32", "33", "25", "28", "2", "3", "8", "27"], "time": [1395, 1665, 1928, 3129, 3195, 5294, 5411, 5562, 7661, 10019, 10260, 12311, 12577, 13110, 13294]}, "edge": {"target": [], "time": []}}, "mouseout": {"state": {"target": ["14", "13", "12", "0", "23", "24", "25", "26", "27", "27", "26", "25", "30", "32", "33", "25", "28", "2", "3", "8", "27", "27", "10", "2", "7", "13"], "time": [44, 283, 410, 1328, 1514, 1882, 3045, 3145, 4854, 5278, 5328, 5379, 5511, 7428, 9977, 10041, 12260, 12494, 13094, 13144, 13412, 19153, 19228, 19334, 19485, 19600]}, "edge": {"target": [], "time": []}}}, "displayed_time": "17.61", "trialTime": 21636, "trial_type": "mouselab-mdp", "trial_index": 41, "time_elapsed": 1233251, "internal_node_id": "0.0-6.0-1.0-32.0"}}, {"uniqueid": "w28979187:a88850203", "current_trial": 42, "dateTime": 1693661759533, "trialdata": {"revealed_states": [], "clicked_states": ["3", "6"], "num_clicks_accrued": [0, 0, 0, 0, 0, 0, 0, 0, 0, 0, 0, 0, 0], "stateRewards": ["", -1, -1, 4, -16, -75, 81, -51, -7, -84, 73, -30, -2, 1, -3, -16, -77, 33, 14, 1, 45, 87, -66, 2, 2, -5, -7, -19, -17, 79, -3, 8, 49, 47], "withholdReward": false, "trial_id": "mdp_trial_34", "block": "test", "trialIndex": 35, "score": 64.2, "costs": -2.8, "simulationMode": [null, null, null, null, null], "rewards": [-1, -1, 4, -16, 81], "path": ["0", "0", "1", "2", "3", "4", "6"], "rt": [7332, 100, 105, 79, 84], "actions": ["up", "up", "up", "right", "right"], "actionTimes": [8438, 9061, 9699, 10291, 10911], "queries": {"click": {"state": {"target": ["3", "6"], "time": [2481, 5731]}, "edge": {"target": [], "time": []}}, "mouseover": {"state": {"target": ["1", "2", "3", "15", "14", "15", "6", "7"], "time": [1625, 1691, 1915, 2942, 3274, 4758, 5181, 6590]}, "edge": {"target": [], "time": []}}, "mouseout": {"state": {"target": ["0", "1", "2", "3", "15", "14", "15", "6", "7", "2", "7"], "time": [1599, 1642, 1831, 2497, 3043, 4738, 4848, 6392, 13532, 14398, 14564]}, "edge": {"target": [], "time": []}}}, "displayed_time": "15.11", "trialTime": 17605, "trial_type": "mouselab-mdp", "trial_index": 42, "time_elapsed": 1251470, "internal_node_id": "0.0-6.0-1.0-33.0"}}, {"uniqueid": "w28979187:a88850203", "current_trial": 43, "dateTime": 1693661779607, "trialdata": {"revealed_states": [], "clicked_states": ["25", "27", "32", "33", "31"], "num_clicks_accrued": [0, 0, 0, 0, 0, 0, 0, 0, 0, 0, 0, 0, 0], "stateRewards": ["", 2, 3, 3, 10, 19, -21, 6, 9, 54, 68, 16, 2, 2, -6, -8, 40, -2, -75, -2, -42, 55, 59, -1, 2, 4, -14, 11, -34, -30, -6, 61, -53, 13], "withholdReward": false, "trial_id": "mdp_trial_35", "block": "test", "trialIndex": 36, "score": 53, "costs": -7, "simulationMode": [null, null, null, null, null], "rewards": [-1, 2, 4, -6, 61], "path": ["0", "0", "23", "24", "25", "30", "31"], "rt": [13223, 108, 90, 120, 152], "actions": ["left", "left", "left", "down", "right"], "actionTimes": [14942, 15577, 16215, 16851, 17517], "queries": {"click": {"state": {"target": ["25", "27", "32", "33", "31"], "time": [2664, 5657, 7993, 10211, 12433]}, "edge": {"target": [], "time": []}}, "mouseover": {"state": {"target": ["24", "25", "28", "10", "3", "8", "27", "27", "26", "30", "32", "33", "30", "31", "24", "28"], "time": [1789, 2088, 2866, 3014, 3447, 4688, 4784, 5138, 6213, 6396, 6513, 8563, 10546, 10763, 12729, 12864]}, "edge": {"target": [], "time": []}}, "mouseout": {"state": {"target": ["16", "18", "0", "24", "25", "28", "10", "3", "8", "27", "27", "26", "25", "30", "32", "33", "30", "31", "24"], "time": [155, 299, 1785, 1830, 2847, 2902, 3280, 4686, 4713, 4919, 6180, 6264, 6347, 6463, 8463, 10462, 10696, 12679, 12762]}, "edge": {"target": [], "time": []}}}, "displayed_time": "18.03", "trialTime": 19486, "trial_type": "mouselab-mdp", "trial_index": 43, "time_elapsed": 1271545, "internal_node_id": "0.0-6.0-1.0-34.0"}}, {"uniqueid": "w28979187:a88850203", "current_trial": 44, "dateTime": 1693661797080, "trialdata": {"revealed_states": [], "clicked_states": ["3", "6", "11"], "num_clicks_accrued": [0, 0, 0, 0, 0, 0, 0, 0, 0, 0, 0, 0, 0], "stateRewards": ["", -2, -3, 8, -4, -30, 31, 69, 9, 66, 87, 64, -2, 2, 8, 5, 47, 16, -39, -8, -54, 51, -19, 1, -2, -2, -11, -25, -26, 43, -9, 19, -84, 86], "withholdReward": false, "trial_id": "mdp_trial_36", "block": "test", "trialIndex": 37, "score": 71.8, "costs": -4.199999999999999, "simulationMode": [null, null, null, null, null], "rewards": [-2, -3, 8, 9, 64], "path": ["0", "0", "1", "2", "3", "8", "11"], "rt": [8765, 64, 106, 61, 181], "actions": ["up", "up", "up", "left", "left"], "actionTimes": [10109, 10689, 11332, 11903, 12606], "queries": {"click": {"state": {"target": ["3", "6", "11"], "time": [2229, 4827, 7437]}, "edge": {"target": [], "time": []}}, "mouseover": {"state": {"target": ["3", "4", "6", "4", "8", "11", "9", "9"], "time": [1729, 3355, 4246, 5689, 5806, 5955, 8238, 8889]}, "edge": {"target": [], "time": []}}, "mouseout": {"state": {"target": ["1", "3", "4", "6", "4", "3", "8", "11", "9", "9", "6"], "time": [293, 2856, 4161, 5655, 5722, 5756, 5890, 8205, 8438, 15421, 15640]}, "edge": {"target": [], "time": []}}}, "displayed_time": "15.35", "trialTime": 16771, "trial_type": "mouselab-mdp", "trial_index": 44, "time_elapsed": 1289018, "internal_node_id": "0.0-6.0-1.0-35.0"}}, {"uniqueid": "w28979187:a88850203", "current_trial": 45, "dateTime": 1693661818480, "trialdata": {"revealed_states": [], "clicked_states": ["14", "3", "26", "30", "32"], "num_clicks_accrued": [0, 0, 0, 0, 0, 0, 0, 0, 0, 0, 0, 0, 0], "stateRewards": ["", -1, -3, -7, -7, -76, 30, -49, 11, -70, 56, 2, 1, 4, -3, -14, -59, -83, -25, -9, -21, -67, -73, -2, 4, 4, -9, -11, -32, 60, 9, -87, 22, -64], "withholdReward": false, "trial_id": "mdp_trial_37", "block": "test", "trialIndex": 38, "score": 30, "costs": -7, "simulationMode": [null, null, null, null, null], "rewards": [-2, 4, 4, 9, 22], "path": ["0", "0", "23", "24", "25", "30", "32"], "rt": [13485, 90, 7, 117, 106], "actions": ["left", "left", "left", "down", "down"], "actionTimes": [14955, 15571, 16113, 16756, 17379], "queries": {"click": {"state": {"target": ["14", "3", "26", "30", "32"], "time": [2450, 4697, 6907, 9326, 12082]}, "edge": {"target": [], "time": []}}, "mouseover": {"state": {"target": ["13", "14", "2", "3", "10", "28", "26", "25", "30", "32", "33"], "time": [1517, 1845, 2904, 3171, 5003, 5105, 5371, 7337, 7604, 11576, 13886]}, "edge": {"target": [], "time": []}}, "mouseout": {"state": {"target": ["0", "13", "14", "2", "3", "3", "10", "28", "26", "25", "30", "30", "32", "33", "24", "23"], "time": [644, 1708, 2805, 3005, 4706, 4943, 5038, 5171, 7320, 7488, 10791, 11393, 13520, 19988, 20205, 20371]}, "edge": {"target": [], "time": []}}}, "displayed_time": "17.89", "trialTime": 20687, "trial_type": "mouselab-mdp", "trial_index": 45, "time_elapsed": 1310418, "internal_node_id": "0.0-6.0-1.0-36.0"}}, {"uniqueid": "w28979187:a88850203", "current_trial": 46, "dateTime": 1693661845740, "trialdata": {"revealed_states": [], "clicked_states": ["3", "14", "25", "32", "31", "33", "29"], "num_clicks_accrued": [0, 0, 0, 0, 0, 0, 0, 0, 0, 0, 0, 0, 0], "stateRewards": ["", 1, -4, -4, 8, 1, -79, 68, -10, -79, 8, -74, -1, -3, -6, 14, 43, 23, 9, 5, -51, 63, 61, -2, 4, 6, -10, 69, -32, 57, 15, -80, -80, -77], "withholdReward": false, "trial_id": "mdp_trial_38", "block": "test", "trialIndex": 39, "score": 45.2, "costs": -9.8, "simulationMode": [null, null, null, null, null], "rewards": [-2, 4, 6, -10, 57], "path": ["0", "0", "23", "24", "25", "26", "29"], "rt": [18596, 59, 95, 73, 98], "actions": ["left", "left", "left", "up", "left"], "actionTimes": [19949, 20532, 21151, 21747, 22372], "queries": {"click": {"state": {"target": ["3", "14", "25", "32", "31", "33", "29"], "time": [2742, 4881, 7072, 10334, 12625, 14887, 17079]}, "edge": {"target": [], "time": []}}, "mouseover": {"state": {"target": ["1", "2", "3", "16", "15", "14", "13", "12", "0", "23", "24", "25", "30", "32", "31", "30", "33", "29", "27"], "time": [1372, 1557, 2105, 3038, 3338, 3438, 5140, 5176, 5212, 5251, 5329, 5505, 9521, 9824, 11471, 12989, 13303, 15237, 17603]}, "edge": {"target": [], "time": []}}, "mouseout": {"state": {"target": ["1", "2", "3", "16", "15", "14", "13", "12", "0", "23", "24", "25", "30", "32", "31", "30", "33", "29", "27", "1"], "time": [1494, 2090, 2938, 3122, 3371, 5122, 5158, 5194, 5232, 5297, 5390, 9472, 9710, 10343, 12971, 13154, 15154, 17370, 24482, 24622]}, "edge": {"target": [], "time": []}}}, "displayed_time": "22.89", "trialTime": 26634, "trial_type": "mouselab-mdp", "trial_index": 46, "time_elapsed": 1337678, "internal_node_id": "0.0-6.0-1.0-37.0"}}, {"uniqueid": "w28979187:a88850203", "current_trial": 47, "dateTime": 1693661869867, "trialdata": {"revealed_states": [], "clicked_states": ["3", "14", "5", "16", "7", "6", "11"], "num_clicks_accrued": [0, 0, 0, 0, 0, 0, 0, 0, 0, 0, 0, 0, 0], "stateRewards": ["", 1, 2, 8, -2, 23, -69, -18, -16, 54, -21, 71, -1, -4, 7, 11, 43, -6, 88, 6, -55, 72, 43, 1, -3, -2, -1, 68, -31, -54, 4, -8, 25, -2], "withholdReward": false, "trial_id": "mdp_trial_39", "block": "test", "trialIndex": 40, "score": 56.2, "costs": -9.8, "simulationMode": [null, null, null, null, null], "rewards": [1, 2, 8, -16, 71], "path": ["0", "0", "1", "2", "3", "8", "11"], "rt": [17538, 54, 76, 101, 230], "actions": ["up", "up", "up", "left", "left"], "actionTimes": [18863, 19439, 20045, 20669, 21398], "queries": {"click": {"state": {"target": ["3", "14", "5", "16", "7", "6", "11"], "time": [2501, 4689, 7155, 9281, 11658, 13879, 16139]}, "edge": {"target": [], "time": []}}, "mouseover": {"state": {"target": ["1", "2", "3", "16", "15", "14", "4", "5", "6", "16", "7", "6", "4", "8", "11", "9"], "time": [1455, 1511, 1994, 2986, 3151, 3351, 5053, 5367, 7700, 8350, 10400, 12065, 14202, 14383, 14599, 17049]}, "edge": {"target": [], "time": []}}, "mouseout": {"state": {"target": ["0", "1", "2", "3", "16", "15", "14", "4", "5", "6", "16", "7", "6", "4", "8", "11", "9"], "time": [1425, 1507, 1774, 2751, 3018, 3251, 5001, 5097, 7466, 8066, 9289, 12000, 14183, 14220, 14517, 16849, 23002]}, "edge": {"target": [], "time": []}}}, "displayed_time": "21.92", "trialTime": 23492, "trial_type": "mouselab-mdp", "trial_index": 47, "time_elapsed": 1361805, "internal_node_id": "0.0-6.0-1.0-38.0"}}, {"uniqueid": "w28979187:a88850203", "current_trial": 48, "dateTime": 1693661895209, "trialdata": {"revealed_states": [], "clicked_states": ["25", "3", "27", "32", "29", "28", "31"], "num_clicks_accrued": [0, 0, 0, 0, 0, 0, 0, 0, 0, 0, 0, 0, 0], "stateRewards": ["", -1, -4, -1, -5, -28, -23, -15, -15, -38, 59, -87, 2, 2, -5, 9, -55, -39, -71, -6, 85, -85, -11, -1, -2, 5, -10, 1, 25, 41, -4, 69, -35, 86], "withholdReward": false, "trial_id": "mdp_trial_40", "block": "test", "trialIndex": 41, "score": 57.2, "costs": -9.8, "simulationMode": [null, null, null, null, null], "rewards": [-1, -2, 5, -4, 69], "path": ["0", "0", "23", "24", "25", "30", "31"], "rt": [17707, 95, 92, 63, 105], "actions": ["left", "left", "left", "down", "right"], "actionTimes": [19092, 19698, 20329, 20918, 21576], "queries": {"click": {"state": {"target": ["25", "3", "27", "32", "29", "28", "31"], "time": [3074, 5370, 7528, 9729, 11929, 14276, 16553]}, "edge": {"target": [], "time": []}}, "mouseover": {"state": {"target": ["23", "24", "25", "28", "10", "3", "27", "26", "25", "30", "32", "30", "29", "26", "28", "24", "31", "30", "33"], "time": [1434, 1534, 2306, 3336, 3402, 3718, 5986, 7821, 7857, 7911, 8101, 10084, 10352, 12228, 12418, 14733, 14967, 16834, 17050]}, "edge": {"target": [], "time": []}}, "mouseout": {"state": {"target": ["8", "2", "1", "23", "24", "25", "28", "10", "3", "27", "26", "25", "30", "32", "30", "29", "29", "26", "28", "24", "31", "30", "33"], "time": [27, 188, 340, 1469, 1825, 3318, 3369, 3618, 5685, 7818, 7839, 7884, 7991, 9738, 10134, 11936, 12158, 12303, 14667, 14833, 16825, 16926, 23666]}, "edge": {"target": [], "time": []}}}, "displayed_time": "22.09", "trialTime": 24722, "trial_type": "mouselab-mdp", "trial_index": 48, "time_elapsed": 1387147, "internal_node_id": "0.0-6.0-1.0-39.0"}}, {"uniqueid": "w28979187:a88850203", "current_trial": 49, "dateTime": 1693662035627, "trialdata": {"rt": 140381, "response": {"Q0": "$-2 to $2", "Q1": "$-32 to $32", "Q2": "$-88 to $88", "Q3": "The cost was always $1.4.", "Q4": "Very motivated"}, "question_order": [0, 1, 2, 3, 4], "trial_id": "final_quiz_control", "trial_type": "survey-multi-choice", "trial_index": 49, "time_elapsed": 1527565, "internal_node_id": "0.0-6.0-2.0"}}, {"uniqueid": "w28979187:a88850203", "current_trial": 50, "dateTime": 1693662414571, "trialdata": {"rt": 378909, "response": {"Q0": "The basic strategy that I used was to first inspect the third nodes. After inspecting the third node, if the value was positive, I would inspect the fifth nodes and choose one with a high positive value. This increased my chances of receiving a high score even if the nodes that I did not inspect had negative values.", "Q1": "I only started devising the strategy that I stated in the above paragraph after approximately the 10th round. Before then, i was clicking on random nodes and moved the spider in a more random fashion.", "Q2": "The timer made it the most difficult as there were a few occasions when I wanted to change my mind, however my indecision in the three seconds meant that I missed my opportunity to inspect a node and therefore had to make uninformed decisions in the form of random guesses."}, "trial_id": "self_report_control", "trial_type": "survey-text", "trial_index": 50, "time_elapsed": 1906510, "internal_node_id": "0.0-6.0-3.0"}}, {"uniqueid": "w28979187:a88850203", "current_trial": 51, "dateTime": 1693662437426, "trialdata": {"rt": 22836, "response": {"gender": "male", "age": "36", "colorblind": "0", "effort": "0"}, "trial_type": "survey-html-form", "trial_index": 51, "time_elapsed": 1929365, "internal_node_id": "0.0-6.0-4.0"}}, {"uniqueid": "w28979187:a88850203", "current_trial": 52, "dateTime": 1693662582369, "trialdata": {"rt": 144927, "response": {"Q0": "Yes. I did not initially understand that you were able to inspect multiple nodes before moving the spider. Although I read through the instructions, it would have been helpful if this was demonstrated during the tutorial.", "Q1": "This is my first time completing Web of Cash.", "Q2": ""}, "trial_type": "survey-text", "trial_index": 52, "time_elapsed": 2074308, "internal_node_id": "0.0-6.0-5.0"}}, {"uniqueid": "w28979187:a88850203", "current_trial": 53, "dateTime": 1693662627363, "trialdata": {"rt": 44978, "stimulus": "<h1>Completion Code Instructions (1/2)</h1>\n<br><br><br><br>\nYou have reached the end of the experiment! The completion code consists of two parts: (1) a code with 2 characters (2) a code with 6 characters. On this page, you will receive the second part of the code. The first part of the completion code will be on the next page.\n<br><br>\nThe second part of your completion code is: <b>EWEK22</b>\n<br><br>\nPlease note this down. Then, press 'Next' in order to find the first part of your completion code. Once the data has been saved, you will receive this code either in this window or in the original browser window where you started the experiment.\n <br><br>\n<h2 style='color: red;'>Note: this is <strong>NOT</strong> the full completion code. Copy this down and click 'Next' to get the full completion code on the next page.</h2>", "response": 0, "trial_type": "html-button-response", "trial_index": 53, "time_elapsed": 2119301, "internal_node_id": "0.0-6.0-6.0"}}, {"uniqueid": "w28979187:a88850203", "current_trial": 54, "dateTime": 1693662628376, "trialdata": {"success": true, "trial_type": "fullscreen", "trial_index": 54, "time_elapsed": 2120315, "internal_node_id": "0.0-7.0"}}], "questiondata": {"params": {"CODE": "C6DMOQA6", "MIN_TIME": 14, "inspectCost": 1, "startTime": "Sat Sep 02 2023 15:15:04 GMT+0200 (South Africa Standard Time)", "bonusRate": 0.002, "variance": "1_2_4_8_44", "branching": "31123"}, "final_score": 1486.6}, "eventdata": [{"eventtype": "initialized", "value": null, "timestamp": 1693660503613, "interval": 0}, {"eventtype": "window_resize", "value": [1366, 651], "timestamp": 1693660503613, "interval": 0}, {"eventtype": "window_resize", "value": [1366, 651], "timestamp": 1693660504256, "interval": 643}, {"eventtype": "window_resize", "value": [1366, 768], "timestamp": 1693660515144, "interval": 10888}, {"eventtype": "window_resize", "value": [1366, 651], "timestamp": 1693662627665, "interval": 2112521}], "useragent": "Mozilla/5.0 (X11; CrOS x86_64 14541.0.0) AppleWebKit/537.36 (KHTML, like Gecko) Chrome/115.0.0.0 Safari/537.36", "mode": "live", "id": "w28979187:a88850203", "status": "user data saved", "Beginhit": "2023-09-02 13:14:57.917921", "Beginexp": "2023-09-02 13:15:16.957444", "Endhit": "2023-09-02 13:50:30.898914", "psiturkStatus": 3, "browser": "<redacted>", "platform": "chromeos", "language": "en-GB"}