{"condition": 0, "counterbalance": 0, "assignmentId": "a13387308", "workerId": "w69034335", "hitId": "h28290743", "currenttrial": 55, "bonus": 0, "data": [{"uniqueid": "w69034335:a13387308", "current_trial": 0, "dateTime": 1693481012420, "trialdata": {"success": true, "trial_type": "fullscreen", "trial_index": 0, "time_elapsed": 6313, "internal_node_id": "0.0-0.0"}}, {"uniqueid": "w69034335:a13387308", "current_trial": 1, "dateTime": 1693481039381, "trialdata": {"view_history": [{"page_index": 0, "viewing_time": 26959}], "rt": 26960, "trial_id": "exp_instructions_control", "trial_type": "instructions", "trial_index": 1, "time_elapsed": 33275, "internal_node_id": "0.0-1.0"}}, {"uniqueid": "w69034335:a13387308", "current_trial": 2, "dateTime": 1693481257227, "trialdata": {"view_history": [{"page_index": 0, "viewing_time": 71761}, {"page_index": 1, "viewing_time": 72482}, {"page_index": 2, "viewing_time": 31249}, {"page_index": 3, "viewing_time": 42352}], "rt": 217845, "trial_id": "mouselab_instructions_1_control", "trial_type": "instructions", "trial_index": 2, "time_elapsed": 251121, "internal_node_id": "0.0-2.0-1.0"}}, {"uniqueid": "w69034335:a13387308", "current_trial": 3, "dateTime": 1693481274577, "trialdata": {"revealed_states": [], "clicked_states": ["29", "28", "27"], "num_clicks_accrued": [0, 0, 0, 0, 0, 0, 0, 0, 0, 0, 0, 0, 0], "stateRewards": ["", 10, 10, 10, 10, 10, -10, -10, -10, -10, 10, 10, -10, 10, -10, 10, -10, -10, -10, 10, 10, 10, -10, 10, -10, -10, 10, -10, 10, -10, -10, 10, 10, 10], "withholdReward": false, "trial_id": "practice_1", "block": "test", "trialIndex": 0, "score": 12, "costs": -1.5, "simulationMode": [null, null, null, null, null], "rewards": [10, -10, -10, 10, 10], "path": ["0", "0", "23", "24", "25", "26", "28"], "rt": [8796, 286, 178, 107, 93], "actions": ["left", "left", "left", "up", "right"], "actionTimes": [10930, 11709, 12384, 12981, 13583], "queries": {"click": {"state": {"target": ["29", "28", "27"], "time": [4080, 7943, 9274]}, "edge": {"target": [], "time": []}}, "mouseover": {"state": {"target": ["23", "26", "29", "27", "28", "23", "28", "27"], "time": [2647, 2964, 3047, 4899, 5899, 6633, 7684, 8402]}, "edge": {"target": [], "time": []}}, "mouseout": {"state": {"target": ["12", "0", "23", "26", "29", "27", "28", "23", "28", "27", "28", "24", "31"], "time": [795, 2631, 2680, 2981, 4516, 5616, 6450, 7034, 8302, 9736, 9903, 14757, 15958]}, "edge": {"target": [], "time": []}}}, "displayed_time": "14.07", "trialTime": 16863, "trial_type": "mouselab-mdp", "trial_index": 3, "time_elapsed": 268471, "internal_node_id": "0.0-2.0-2.0-0.0"}}, {"uniqueid": "w69034335:a13387308", "current_trial": 4, "dateTime": 1693481285616, "trialdata": {"revealed_states": [], "clicked_states": ["9"], "num_clicks_accrued": [0, 0, 0, 0, 0, 0, 0, 0, 0, 0, 0, 0, 0], "stateRewards": ["", 10, 10, -10, -10, -10, -10, -10, 10, 10, 10, 10, 10, 10, -10, -10, 10, -10, 10, -10, -10, 10, 10, -10, -10, 10, 10, 10, -10, -10, 10, -10, 10, -10], "withholdReward": false, "trial_id": "practice_2", "block": "test", "trialIndex": 1, "score": 33, "costs": -0.5, "simulationMode": [null, null, null, null, null], "rewards": [10, 10, -10, 10, 10], "path": ["0", "0", "1", "2", "3", "8", "9"], "rt": [3835, 201, 83, 129, 109], "actions": ["up", "up", "up", "left", "up"], "actionTimes": [6001, 6704, 7287, 7917, 8514], "queries": {"click": {"state": {"target": ["9"], "time": [3021]}, "edge": {"target": [], "time": []}}, "mouseover": {"state": {"target": ["10", "8", "9", "11", "11", "8"], "time": [2632, 2682, 2816, 3416, 3600, 4901]}, "edge": {"target": [], "time": []}}, "mouseout": {"state": {"target": ["0", "10", "8", "9", "11", "11", "8", "1", "0"], "time": [1731, 2649, 2716, 3400, 3483, 4751, 4951, 9972, 10021]}, "edge": {"target": [], "time": []}}}, "displayed_time": "9.01", "trialTime": 10907, "trial_type": "mouselab-mdp", "trial_index": 4, "time_elapsed": 279509, "internal_node_id": "0.0-2.0-2.0-1.0"}}, {"uniqueid": "w69034335:a13387308", "current_trial": 5, "dateTime": 1693481324386, "trialdata": {"view_history": [{"page_index": 0, "viewing_time": 33627}, {"page_index": 1, "viewing_time": 5141}], "rt": 38768, "trial_id": "mouselab_instructions_2_control", "trial_type": "instructions", "trial_index": 5, "time_elapsed": 318280, "internal_node_id": "0.0-2.0-3.0"}}, {"uniqueid": "w69034335:a13387308", "current_trial": 6, "dateTime": 1693481363767, "trialdata": {"rt": 39378, "response": {"Q0": "The cost for clicking on nodes may vary between nodes.", "Q1": "The better I perform the higher my bonus will be.", "Q2": "No, the amount of cash at each node of the web may be different each time.", "Q3": "To get the highest total score.", "Q4": "Only before moving the spider.", "Q5": "3 seconds"}, "question_order": [0, 1, 2, 3, 4, 5], "correct": {"Q0": "The cost for clicking on nodes may vary between nodes.", "Q1": "The better I perform the higher my bonus will be.", "Q2": "No, the amount of cash at each node of the web may be different each time.", "Q3": "To get the highest total score.", "Q4": "Only before moving the spider.", "Q5": "3 seconds"}, "trial_id": "mouselab_quiz_control", "trial_type": "survey-multi-choice", "trial_index": 6, "time_elapsed": 357660, "internal_node_id": "0.0-2.0-4.0"}}, {"uniqueid": "w69034335:a13387308", "current_trial": 7, "dateTime": 1693481368679, "trialdata": {"rt": 4909, "response": {"Q0": "No"}, "question_order": [0], "trial_id": "repeat_check", "trial_type": "survey-multi-choice", "trial_index": 7, "time_elapsed": 362573, "internal_node_id": "0.0-4.0-0.0"}}, {"uniqueid": "w69034335:a13387308", "current_trial": 8, "dateTime": 1693481371116, "trialdata": {"rt": 2434, "stimulus": "\n<h1> Get ready to start the game! </h1>\n\nThank you for reading the instructions. Get ready start with the 40 rounds of this game.\n<br><br>\nIf you need to take a break, feel free to take one after the end of a round, before continuing to the next one.\n<br><br>\nRemember, the more money the spider gets, the bigger your bonus will be!\n<br><br>\n<div style='text-align: center;'>Press <code>space</code> to begin.</div>\n\n<br><br>\n(If, at any point, the <code>space</code> key does not take you to the next page, click once on the text and try again.)", "response": " ", "trial_id": "mdp_ready", "trial_type": "html-keyboard-response", "trial_index": 8, "time_elapsed": 365010, "internal_node_id": "0.0-6.0-0.0"}}, {"uniqueid": "w69034335:a13387308", "current_trial": 9, "dateTime": 1693481388346, "trialdata": {"revealed_states": [], "clicked_states": ["9", "11"], "num_clicks_accrued": [0, 0, 0, 0, 0, 0, 0, 0, 0, 0, 0, 0, 0], "stateRewards": ["", 1, -1, 4, -2, -75, -75, 84, -9, -60, -79, 59, 2, -4, 8, 9, -17, -82, 80, 14, -4, 49, 49, -1, 3, 6, -11, -33, 34, 55, 9, -57, 5, 59], "withholdReward": false, "trial_id": "mdp_trial_1", "block": "test", "trialIndex": 2, "score": 51.2, "costs": -2.8, "simulationMode": [null, null, null, null, null], "rewards": [1, -1, 4, -9, 59], "path": ["0", "0", "1", "2", "3", "8", "11"], "rt": [5580, 55, 293, 193, 120], "actions": ["up", "up", "up", "left", "left"], "actionTimes": [6597, 7152, 7941, 8625, 9235], "queries": {"click": {"state": {"target": ["9", "11"], "time": [1953, 3859]}, "edge": {"target": [], "time": []}}, "mouseover": {"state": {"target": ["1", "2", "3", "3", "9", "11", "10"], "time": [1342, 1391, 1475, 1558, 1808, 2509, 4261]}, "edge": {"target": [], "time": []}}, "mouseout": {"state": {"target": ["0", "0", "1", "2", "3", "3", "9", "11"], "time": [523, 1258, 1358, 1441, 1492, 1608, 2309, 4177]}, "edge": {"target": [], "time": []}}}, "displayed_time": "15.02", "trialTime": 17069, "trial_type": "mouselab-mdp", "trial_index": 9, "time_elapsed": 382240, "internal_node_id": "0.0-6.0-1.0-0.0"}}, {"uniqueid": "w69034335:a13387308", "current_trial": 10, "dateTime": 1693481408851, "trialdata": {"revealed_states": [], "clicked_states": ["5", "6", "7", "11", "10"], "num_clicks_accrued": [0, 0, 0, 0, 0, 0, 0, 0, 0, 0, 0, 0, 0], "stateRewards": ["", -2, -4, -2, 10, -8, -15, -47, 7, -84, 53, 5, -1, 2, -7, 3, 83, 31, 47, -1, 30, -8, 69, 2, -4, -1, 8, -7, 12, -8, -8, -13, 30, -84], "withholdReward": false, "trial_id": "mdp_trial_2", "block": "test", "trialIndex": 3, "score": 45, "costs": -7, "simulationMode": [null, null, null, null, null], "rewards": [-2, -4, -2, 7, 53], "path": ["0", "0", "1", "2", "3", "8", "10"], "rt": [12318, 151, 145, 267, 225], "actions": ["up", "up", "up", "left", "down"], "actionTimes": [14180, 14822, 15466, 16222, 16948], "queries": {"click": {"state": {"target": ["5", "6", "7", "11", "10"], "time": [2567, 4524, 6476, 8821, 11766]}, "edge": {"target": [], "time": []}}, "mouseover": {"state": {"target": ["1", "4", "5", "6", "7", "2", "3", "8", "11", "9", "8", "10", "8", "9"], "time": [2110, 2244, 2427, 3445, 5380, 8351, 8482, 8582, 8682, 9316, 10901, 11534, 11951, 12102]}, "edge": {"target": [], "time": []}}, "mouseout": {"state": {"target": ["10", "1", "1", "4", "5", "6", "7", "2", "3", "8", "11", "9", "8", "10", "8"], "time": [1376, 1459, 2127, 2327, 3028, 5063, 8334, 8366, 8499, 8649, 8901, 10884, 11501, 11843, 12001]}, "edge": {"target": [], "time": []}}}, "displayed_time": "17.44", "trialTime": 20345, "trial_type": "mouselab-mdp", "trial_index": 10, "time_elapsed": 402744, "internal_node_id": "0.0-6.0-1.0-1.0"}}, {"uniqueid": "w69034335:a13387308", "current_trial": 11, "dateTime": 1693481426996, "trialdata": {"revealed_states": [], "clicked_states": ["11", "10"], "num_clicks_accrued": [0, 0, 0, 0, 0, 0, 0, 0, 0, 0, 0, 0, 0], "stateRewards": ["", 1, 1, -3, 2, 22, -25, -11, -5, 50, 49, 3, 1, -1, 8, 14, -85, -30, 57, -6, -39, -16, 59, -2, -1, 5, 5, 59, -16, 8, 4, 67, 56, -9], "withholdReward": false, "trial_id": "mdp_trial_3", "block": "test", "trialIndex": 4, "score": 40.2, "costs": -2.8, "simulationMode": [null, null, null, null, null], "rewards": [1, 1, -3, -5, 49], "path": ["0", "0", "1", "2", "3", "8", "10"], "rt": [5479, 24, 49, 28, 90], "actions": ["up", "up", "up", "left", "down"], "actionTimes": [7809, 8327, 8869, 9398, 9978], "queries": {"click": {"state": {"target": ["11", "10"], "time": [3415, 5449]}, "edge": {"target": [], "time": []}}, "mouseover": {"state": {"target": ["1", "11", "8", "10", "8", "9"], "time": [2815, 3115, 3799, 3882, 5734, 5817]}, "edge": {"target": [], "time": []}}, "mouseout": {"state": {"target": ["9", "1", "11", "8", "10", "8"], "time": [1813, 2898, 3765, 3816, 5700, 5784]}, "edge": {"target": [], "time": []}}}, "displayed_time": "16.33", "trialTime": 17994, "trial_type": "mouselab-mdp", "trial_index": 11, "time_elapsed": 420890, "internal_node_id": "0.0-6.0-1.0-2.0"}}, {"uniqueid": "w69034335:a13387308", "current_trial": 12, "dateTime": 1693481443143, "trialdata": {"revealed_states": [], "clicked_states": ["29"], "num_clicks_accrued": [0, 0, 0, 0, 0, 0, 0, 0, 0, 0, 0, 0, 0], "stateRewards": ["", -2, 2, -5, -6, 10, -66, -58, -10, -11, -63, -70, -1, -4, -5, 7, 66, -64, -43, -3, 45, -37, 4, -2, -2, -6, -4, -30, 33, 43, 15, -32, -65, -59], "withholdReward": false, "trial_id": "mdp_trial_4", "block": "test", "trialIndex": 5, "score": 27.6, "costs": -1.4, "simulationMode": [null, null, null, null, null], "rewards": [-2, -2, -6, -4, 43], "path": ["0", "0", "23", "24", "25", "26", "29"], "rt": [3267, 102, 159, 151, 143], "actions": ["left", "left", "left", "up", "left"], "actionTimes": [4305, 4905, 5563, 6205, 6848], "queries": {"click": {"state": {"target": ["29"], "time": [1794]}, "edge": {"target": [], "time": []}}, "mouseover": {"state": {"target": ["23", "29", "26", "27"], "time": [1366, 1516, 2183, 2300]}, "edge": {"target": [], "time": []}}, "mouseout": {"state": {"target": ["9", "8", "10", "1", "23", "29", "26", "27", "28", "23"], "time": [398, 448, 481, 681, 1383, 2150, 2200, 3851, 15026, 15093]}, "edge": {"target": [], "time": []}}}, "displayed_time": "15.04", "trialTime": 15979, "trial_type": "mouselab-mdp", "trial_index": 12, "time_elapsed": 437037, "internal_node_id": "0.0-6.0-1.0-3.0"}}, {"uniqueid": "w69034335:a13387308", "current_trial": 13, "dateTime": 1693481460291, "trialdata": {"revealed_states": [], "clicked_states": ["27"], "num_clicks_accrued": [0, 0, 0, 0, 0, 0, 0, 0, 0, 0, 0, 0, 0], "stateRewards": ["", -2, 2, 3, -7, 76, 63, 21, 15, 35, -8, -44, 1, 1, -2, -12, 23, 24, 76, -9, 46, 66, -49, -2, -1, 7, 12, 40, -71, -45, -6, 38, -49, 46], "withholdReward": false, "trial_id": "mdp_trial_5", "block": "test", "trialIndex": 6, "score": 54.6, "costs": -1.4, "simulationMode": [null, null, null, null, null], "rewards": [-2, -1, 7, 12, 40], "path": ["0", "0", "23", "24", "25", "26", "27"], "rt": [3223, 123, 181, 76, 148], "actions": ["left", "left", "left", "up", "up"], "actionTimes": [4511, 5126, 5801, 6380, 7019], "queries": {"click": {"state": {"target": ["27"], "time": [2145]}, "edge": {"target": [], "time": []}}, "mouseover": {"state": {"target": ["0", "23", "28", "27", "28"], "time": [1499, 1616, 1732, 1949, 2733]}, "edge": {"target": [], "time": []}}, "mouseout": {"state": {"target": ["0", "0", "23", "28", "27", "27", "28", "0"], "time": [1048, 1582, 1682, 1816, 2210, 2700, 15460, 15543]}, "edge": {"target": [], "time": []}}}, "displayed_time": "15.29", "trialTime": 16981, "trial_type": "mouselab-mdp", "trial_index": 13, "time_elapsed": 454185, "internal_node_id": "0.0-6.0-1.0-4.0"}}, {"uniqueid": "w69034335:a13387308", "current_trial": 14, "dateTime": 1693481484870, "trialdata": {"revealed_states": [], "clicked_states": ["32", "31", "33"], "num_clicks_accrued": [0, 0, 0, 0, 0, 0, 0, 0, 0, 0, 0, 0, 0], "stateRewards": ["", -1, 1, 3, -8, -23, -15, -14, -11, -23, 58, 68, 1, 3, 5, 12, -17, -41, -7, -10, -4, 82, 10, 1, 4, -4, 11, 73, 55, -55, -1, -86, -86, 54], "withholdReward": false, "trial_id": "mdp_trial_6", "block": "test", "trialIndex": 7, "score": 49.8, "costs": -4.199999999999999, "simulationMode": [null, null, null, null, null], "rewards": [1, 4, -4, -1, 54], "path": ["0", "0", "23", "24", "25", "30", "33"], "rt": [7364, 74, 68, 112, 98], "actions": ["left", "left", "left", "down", "left"], "actionTimes": [8421, 8985, 9546, 10157, 10744], "queries": {"click": {"state": {"target": ["32", "31", "33"], "time": [1922, 3784, 5662]}, "edge": {"target": [], "time": []}}, "mouseover": {"state": {"target": ["0", "23", "31", "32", "32", "31", "30", "33", "25"], "time": [1204, 1270, 1354, 1404, 1721, 2388, 4140, 4240, 6224]}, "edge": {"target": [], "time": []}}, "mouseout": {"state": {"target": ["0", "0", "23", "31", "32", "32", "31", "30", "33", "25"], "time": [853, 1254, 1287, 1387, 1421, 2305, 4106, 4173, 5908, 7275]}, "edge": {"target": [], "time": []}}}, "displayed_time": "15.06", "trialTime": 24418, "trial_type": "mouselab-mdp", "trial_index": 14, "time_elapsed": 478764, "internal_node_id": "0.0-6.0-1.0-5.0"}}, {"uniqueid": "w69034335:a13387308", "current_trial": 15, "dateTime": 1693481502477, "trialdata": {"revealed_states": [], "clicked_states": ["20"], "num_clicks_accrued": [0, 0, 0, 0, 0, 0, 0, 0, 0, 0, 0, 0, 0], "stateRewards": ["", -2, -3, 7, -13, 60, 9, 37, -6, 37, 20, 1, 2, -2, -8, 6, -80, -31, -10, -7, 70, -65, -44, -1, 1, 7, 6, -11, 73, -85, 16, -21, 47, 34], "withholdReward": false, "trial_id": "mdp_trial_7", "block": "test", "trialIndex": 8, "score": 53.6, "costs": -1.4, "simulationMode": [null, null, null, null, null], "rewards": [2, -2, -8, -7, 70], "path": ["0", "0", "12", "13", "14", "19", "20"], "rt": [3684, 52, 113, 91, 127], "actions": ["right", "right", "right", "down", "right"], "actionTimes": [5517, 6082, 6693, 7272, 7892], "queries": {"click": {"state": {"target": ["20"], "time": [2971]}, "edge": {"target": [], "time": []}}, "mouseover": {"state": {"target": ["1", "7", "18", "14", "20", "21"], "time": [2192, 2276, 2392, 2426, 2709, 3793]}, "edge": {"target": [], "time": []}}, "mouseout": {"state": {"target": ["29", "1", "0", "1", "7", "18", "14", "20", "21", "21"], "time": [907, 1341, 1641, 2225, 2376, 2409, 2492, 2993, 4978, 11299]}, "edge": {"target": [], "time": []}}}, "displayed_time": "15.84", "trialTime": 17443, "trial_type": "mouselab-mdp", "trial_index": 15, "time_elapsed": 496371, "internal_node_id": "0.0-6.0-1.0-6.0"}}, {"uniqueid": "w69034335:a13387308", "current_trial": 16, "dateTime": 1693481519381, "trialdata": {"revealed_states": [], "clicked_states": ["17"], "num_clicks_accrued": [0, 0, 0, 0, 0, 0, 0, 0, 0, 0, 0, 0, 0], "stateRewards": ["", 2, -2, 7, -11, -76, -65, -23, 16, -58, 30, 81, 1, 2, 7, 14, 9, 55, -2, 6, 11, -15, 31, -1, -1, -3, 2, 15, 2, 46, 15, 18, 45, -34], "withholdReward": false, "trial_id": "mdp_trial_8", "block": "test", "trialIndex": 9, "score": 77.6, "costs": -1.4, "simulationMode": [null, null, null, null, null], "rewards": [1, 2, 7, 14, 55], "path": ["0", "0", "12", "13", "14", "15", "17"], "rt": [2850, 90, 106, 50, 55], "actions": ["right", "right", "right", "up", "right"], "actionTimes": [4924, 5503, 6104, 6647, 7203], "queries": {"click": {"state": {"target": ["17"], "time": [2538]}, "edge": {"target": [], "time": []}}, "mouseover": {"state": {"target": ["13", "17", "16"], "time": [2209, 2275, 3260]}, "edge": {"target": [], "time": []}}, "mouseout": {"state": {"target": ["22", "15", "12", "0", "13", "17"], "time": [674, 1525, 1591, 1875, 2226, 2639]}, "edge": {"target": [], "time": []}}}, "displayed_time": "16.08", "trialTime": 16733, "trial_type": "mouselab-mdp", "trial_index": 16, "time_elapsed": 513274, "internal_node_id": "0.0-6.0-1.0-7.0"}}, {"uniqueid": "w69034335:a13387308", "current_trial": 17, "dateTime": 1693481535839, "trialdata": {"revealed_states": [], "clicked_states": ["16"], "num_clicks_accrued": [0, 0, 0, 0, 0, 0, 0, 0, 0, 0, 0, 0, 0], "stateRewards": ["", -2, 4, -7, -3, -76, 39, -28, 10, 14, 12, 60, 2, -3, 6, -10, 88, -34, -41, -3, 72, -13, -56, 1, 3, 2, 8, -51, 23, -57, 1, 14, -46, -16], "withholdReward": false, "trial_id": "mdp_trial_9", "block": "test", "trialIndex": 10, "score": 81.6, "costs": -1.4, "simulationMode": [null, null, null, null, null], "rewards": [2, -3, 6, -10, 88], "path": ["0", "0", "12", "13", "14", "15", "16"], "rt": [2902, 70, 196, 46, 109], "actions": ["right", "right", "right", "up", "up"], "actionTimes": [4187, 4752, 5445, 5979, 6576], "queries": {"click": {"state": {"target": ["16"], "time": [1855]}, "edge": {"target": [], "time": []}}, "mouseover": {"state": {"target": ["12", "18", "16", "18"], "time": [1428, 1511, 1694, 2362]}, "edge": {"target": [], "time": []}}, "mouseout": {"state": {"target": ["16", "16", "16", "12", "0", "12", "18", "16"], "time": [160, 343, 393, 927, 1411, 1444, 1577, 2312]}, "edge": {"target": [], "time": []}}}, "displayed_time": "15.29", "trialTime": 16280, "trial_type": "mouselab-mdp", "trial_index": 17, "time_elapsed": 529732, "internal_node_id": "0.0-6.0-1.0-8.0"}}, {"uniqueid": "w69034335:a13387308", "current_trial": 18, "dateTime": 1693481552815, "trialdata": {"revealed_states": [], "clicked_states": ["5", "6"], "num_clicks_accrued": [0, 0, 0, 0, 0, 0, 0, 0, 0, 0, 0, 0, 0], "stateRewards": ["", -1, 1, 8, -8, -49, 62, -78, 16, 28, -81, 78, -2, -3, -1, -4, 67, 49, -2, -13, -16, -39, 83, 1, -4, 4, -5, -20, 7, 84, 7, -32, -59, 19], "withholdReward": false, "trial_id": "mdp_trial_10", "block": "test", "trialIndex": 11, "score": 59.2, "costs": -2.8, "simulationMode": [null, null, null, null, null], "rewards": [-1, 1, 8, -8, 62], "path": ["0", "0", "1", "2", "3", "4", "6"], "rt": [4991, 55, 125, 64, 65], "actions": ["up", "up", "up", "right", "right"], "actionTimes": [6261, 6822, 7442, 7998, 8550], "queries": {"click": {"state": {"target": ["5", "6"], "time": [1888, 3755]}, "edge": {"target": [], "time": []}}, "mouseover": {"state": {"target": ["1", "4", "5", "6", "7", "7"], "time": [1478, 1561, 1695, 2362, 4113, 4297]}, "edge": {"target": [], "time": []}}, "mouseout": {"state": {"target": ["18", "12", "0", "1", "4", "5", "5", "6", "7", "7", "0"], "time": [310, 643, 1094, 1495, 1661, 1981, 2245, 4063, 4147, 15756, 15806]}, "edge": {"target": [], "time": []}}}, "displayed_time": "15.27", "trialTime": 16793, "trial_type": "mouselab-mdp", "trial_index": 18, "time_elapsed": 546708, "internal_node_id": "0.0-6.0-1.0-9.0"}}, {"uniqueid": "w69034335:a13387308", "current_trial": 19, "dateTime": 1693481568798, "trialdata": {"revealed_states": [], "clicked_states": ["7", "10"], "num_clicks_accrued": [0, 0, 0, 0, 0, 0, 0, 0, 0, 0, 0, 0, 0], "stateRewards": ["", 1, -4, -6, -1, -21, 17, -72, 10, 77, 67, -46, -1, 4, -2, 14, -66, -49, -45, -15, -52, 23, -67, 2, -2, -2, 15, -3, 45, -64, 5, -44, 83, 61], "withholdReward": false, "trial_id": "mdp_trial_11", "block": "test", "trialIndex": 12, "score": 65.2, "costs": -2.8, "simulationMode": [null, null, null, null, null], "rewards": [1, -4, -6, 10, 67], "path": ["0", "0", "1", "2", "3", "8", "10"], "rt": [4763, 1416, 73, 58, 174], "actions": ["up", "up", "up", "left", "down"], "actionTimes": [5616, 7535, 8110, 8662, 9328], "queries": {"click": {"state": {"target": ["7", "10"], "time": [1306, 3239]}, "edge": {"target": [], "time": []}}, "mouseover": {"state": {"target": ["1", "7", "7", "2", "2", "10", "2"], "time": [963, 1046, 1196, 1997, 2514, 2748, 5183]}, "edge": {"target": [], "time": []}}, "mouseout": {"state": {"target": ["1", "7", "7", "2", "2", "10", "10", "2"], "time": [980, 1113, 1391, 2097, 2564, 4182, 5116, 5216]}, "edge": {"target": [], "time": []}}}, "displayed_time": "14.85", "trialTime": 15798, "trial_type": "mouselab-mdp", "trial_index": 19, "time_elapsed": 562692, "internal_node_id": "0.0-6.0-1.0-10.0"}}, {"uniqueid": "w69034335:a13387308", "current_trial": 20, "dateTime": 1693481586958, "trialdata": {"revealed_states": [], "clicked_states": ["27", "28"], "num_clicks_accrued": [0, 0, 0, 0, 0, 0, 0, 0, 0, 0, 0, 0, 0], "stateRewards": ["", -2, -4, 4, -11, -63, -60, -7, 2, -14, 81, -43, -1, -1, -5, 7, 10, 69, 40, 8, -83, 52, 60, 1, 2, 5, -5, 16, 64, 14, -3, 29, 7, -51], "withholdReward": false, "trial_id": "mdp_trial_12", "block": "test", "trialIndex": 13, "score": 64.2, "costs": -2.8, "simulationMode": [null, null, null, null, null], "rewards": [1, 2, 5, -5, 64], "path": ["0", "0", "23", "24", "25", "26", "28"], "rt": [5245, 174, 172, 117, 188], "actions": ["left", "left", "left", "up", "right"], "actionTimes": [6247, 6917, 7582, 8194, 8882], "queries": {"click": {"state": {"target": ["27", "28"], "time": [1591, 3755]}, "edge": {"target": [], "time": []}}, "mouseover": {"state": {"target": ["28", "27", "28", "26", "29"], "time": [1304, 1437, 1938, 4090, 4473]}, "edge": {"target": [], "time": []}}, "mouseout": {"state": {"target": ["10", "28", "27", "28", "26"], "time": [436, 1320, 1904, 4073, 4240]}, "edge": {"target": [], "time": []}}}, "displayed_time": "15.00", "trialTime": 17969, "trial_type": "mouselab-mdp", "trial_index": 20, "time_elapsed": 580852, "internal_node_id": "0.0-6.0-1.0-11.0"}}, {"uniqueid": "w69034335:a13387308", "current_trial": 21, "dateTime": 1693481604294, "trialdata": {"revealed_states": [], "clicked_states": ["31"], "num_clicks_accrued": [0, 0, 0, 0, 0, 0, 0, 0, 0, 0, 0, 0, 0], "stateRewards": ["", 1, -2, -2, 10, -31, -77, 35, 9, -47, 8, 48, -2, 1, -4, -3, -26, -50, 43, -11, 76, -38, 17, 1, -1, 6, 10, 15, -9, 12, -8, 85, 11, -55], "withholdReward": false, "trial_id": "mdp_trial_13", "block": "test", "trialIndex": 14, "score": 81.6, "costs": -1.4, "simulationMode": [null, null, null, null, null], "rewards": [1, -1, 6, -8, 85], "path": ["0", "0", "23", "24", "25", "30", "31"], "rt": [3278, 127, 99, 110, 180], "actions": ["left", "left", "left", "down", "right"], "actionTimes": [5090, 5713, 6302, 6913, 7584], "queries": {"click": {"state": {"target": ["31"], "time": [2524]}, "edge": {"target": [], "time": []}}, "mouseover": {"state": {"target": ["23", "31", "30", "31", "32"], "time": [2115, 2181, 2265, 2381, 3099]}, "edge": {"target": [], "time": []}}, "mouseout": {"state": {"target": ["29", "28", "1", "1", "23", "31", "30", "31", "32"], "time": [663, 696, 713, 947, 2148, 2198, 2286, 2882, 4600]}, "edge": {"target": [], "time": []}}}, "displayed_time": "15.81", "trialTime": 17134, "trial_type": "mouselab-mdp", "trial_index": 21, "time_elapsed": 598188, "internal_node_id": "0.0-6.0-1.0-12.0"}}, {"uniqueid": "w69034335:a13387308", "current_trial": 22, "dateTime": 1693481620824, "trialdata": {"revealed_states": [], "clicked_states": ["33", "32"], "num_clicks_accrued": [0, 0, 0, 0, 0, 0, 0, 0, 0, 0, 0, 0, 0], "stateRewards": ["", -2, 2, 5, -14, -56, 64, 84, -5, 52, 39, 85, -2, 1, 7, 8, 21, 29, -78, -9, -10, -69, 10, -2, -1, -7, 15, 72, 20, 41, -2, 52, 80, 22], "withholdReward": false, "trial_id": "mdp_trial_14", "block": "test", "trialIndex": 15, "score": 65.2, "costs": -2.8, "simulationMode": [null, null, null, null, null], "rewards": [-2, -1, -7, -2, 80], "path": ["0", "0", "23", "24", "25", "30", "32"], "rt": [5206, 53, 90, 150, 129], "actions": ["left", "left", "left", "down", "down"], "actionTimes": [6242, 6794, 7382, 8025, 8655], "queries": {"click": {"state": {"target": ["33", "32"], "time": [1790, 3756]}, "edge": {"target": [], "time": []}}, "mouseover": {"state": {"target": ["30", "33", "32", "31"], "time": [1385, 1452, 2253, 4455]}, "edge": {"target": [], "time": []}}, "mouseout": {"state": {"target": ["0", "30", "33", "32", "31", "24"], "time": [1302, 1419, 2136, 4171, 5655, 15063]}, "edge": {"target": [], "time": []}}}, "displayed_time": "15.04", "trialTime": 16338, "trial_type": "mouselab-mdp", "trial_index": 22, "time_elapsed": 614718, "internal_node_id": "0.0-6.0-1.0-13.0"}}, {"uniqueid": "w69034335:a13387308", "current_trial": 23, "dateTime": 1693481637688, "trialdata": {"revealed_states": [], "clicked_states": ["10", "7", "5"], "num_clicks_accrued": [0, 0, 0, 0, 0, 0, 0, 0, 0, 0, 0, 0, 0], "stateRewards": ["", -2, -1, -2, -15, 87, 57, 29, -10, 77, -80, -7, 1, -3, 6, 14, -11, 87, -59, 4, -71, 16, -11, 2, 2, -7, 2, -47, 61, 50, 14, -20, 17, 81], "withholdReward": false, "trial_id": "mdp_trial_15", "block": "test", "trialIndex": 16, "score": 62.8, "costs": -4.199999999999999, "simulationMode": [null, null, null, null, null], "rewards": [-2, -1, -2, -15, 87], "path": ["0", "0", "1", "2", "3", "4", "5"], "rt": [7169, 60, 52, 51, 57], "actions": ["up", "up", "up", "right", "up"], "actionTimes": [9086, 9650, 10193, 10759, 11315], "queries": {"click": {"state": {"target": ["10", "7", "5"], "time": [2681, 4577, 6683]}, "edge": {"target": [], "time": []}}, "mouseover": {"state": {"target": ["1", "2", "10", "2", "7", "4", "5", "6"], "time": [2216, 2433, 2583, 3017, 3084, 4969, 5086, 7671]}, "edge": {"target": [], "time": []}}, "mouseout": {"state": {"target": ["0", "0", "1", "2", "10", "2", "7", "4", "5", "6", "6", "12"], "time": [1449, 2147, 2283, 2483, 2967, 3034, 4936, 5036, 7121, 13935, 16261, 16361]}, "edge": {"target": [], "time": []}}}, "displayed_time": "15.92", "trialTime": 16669, "trial_type": "mouselab-mdp", "trial_index": 23, "time_elapsed": 631582, "internal_node_id": "0.0-6.0-1.0-14.0"}}, {"uniqueid": "w69034335:a13387308", "current_trial": 24, "dateTime": 1693481653320, "trialdata": {"revealed_states": [], "clicked_states": ["28", "27"], "num_clicks_accrued": [0, 0, 0, 0, 0, 0, 0, 0, 0, 0, 0, 0, 0], "stateRewards": ["", 2, -3, -2, 14, -4, 85, 46, 15, -28, 41, 31, -1, -1, -1, 5, 62, 79, 57, 12, -73, -64, 86, -1, 1, -3, -5, 68, 11, -32, 8, -80, -21, -56], "withholdReward": false, "trial_id": "mdp_trial_16", "block": "test", "trialIndex": 17, "score": 57.2, "costs": -2.8, "simulationMode": [null, null, null, null, null], "rewards": [-1, 1, -3, -5, 68], "path": ["0", "0", "23", "24", "25", "26", "27"], "rt": [5435, 58, 56, 12, 27], "actions": ["left", "left", "left", "up", "up"], "actionTimes": [6406, 6980, 7528, 8035, 8567], "queries": {"click": {"state": {"target": ["28", "27"], "time": [1843, 3961]}, "edge": {"target": [], "time": []}}, "mouseover": {"state": {"target": ["28", "28", "27", "29"], "time": [1216, 1666, 2117, 4336]}, "edge": {"target": [], "time": []}}, "mouseout": {"state": {"target": ["23", "23", "28", "28", "27", "29"], "time": [398, 615, 1299, 2052, 4219, 5887]}, "edge": {"target": [], "time": []}}}, "displayed_time": "14.97", "trialTime": 15438, "trial_type": "mouselab-mdp", "trial_index": 24, "time_elapsed": 647214, "internal_node_id": "0.0-6.0-1.0-15.0"}}, {"uniqueid": "w69034335:a13387308", "current_trial": 25, "dateTime": 1693481669257, "trialdata": {"revealed_states": [], "clicked_states": ["20"], "num_clicks_accrued": [0, 0, 0, 0, 0, 0, 0, 0, 0, 0, 0, 0, 0], "stateRewards": ["", -2, -1, -6, -14, -55, 78, -13, 11, 14, -71, 59, 2, 2, 6, -6, 9, 38, 14, 7, 85, 11, 68, 1, -4, -1, -3, -63, -85, 9, -2, 63, -86, -10], "withholdReward": false, "trial_id": "mdp_trial_17", "block": "test", "trialIndex": 18, "score": 100.6, "costs": -1.4, "simulationMode": [null, null, null, null, null], "rewards": [2, 2, 6, 7, 85], "path": ["0", "0", "12", "13", "14", "19", "20"], "rt": [3299, 20, 56, 414, 170], "actions": ["right", "right", "right", "down", "right"], "actionTimes": [4578, 5098, 5650, 6558, 7233], "queries": {"click": {"state": {"target": ["20"], "time": [2086]}, "edge": {"target": [], "time": []}}, "mouseover": {"state": {"target": ["12", "13", "19", "20", "21"], "time": [1456, 1491, 1523, 1940, 2641]}, "edge": {"target": [], "time": []}}, "mouseout": {"state": {"target": ["26", "28", "12", "22", "19", "21", "22", "12", "0", "12", "13", "19", "20"], "time": [138, 188, 272, 305, 355, 605, 672, 855, 1439, 1490, 1506, 1640, 2357]}, "edge": {"target": [], "time": []}}}, "displayed_time": "15.28", "trialTime": 15719, "trial_type": "mouselab-mdp", "trial_index": 25, "time_elapsed": 663150, "internal_node_id": "0.0-6.0-1.0-16.0"}}, {"uniqueid": "w69034335:a13387308", "current_trial": 26, "dateTime": 1693481686166, "trialdata": {"revealed_states": [], "clicked_states": ["21", "22"], "num_clicks_accrued": [0, 0, 0, 0, 0, 0, 0, 0, 0, 0, 0, 0, 0], "stateRewards": ["", -1, -3, -3, 1, -38, 2, -53, -2, -1, -81, 70, -1, 1, -5, -9, 46, 15, 35, -1, -22, 38, 59, -2, 4, -8, 13, 1, -83, -43, 4, 76, 13, 48], "withholdReward": false, "trial_id": "mdp_trial_18", "block": "test", "trialIndex": 19, "score": 50.2, "costs": -2.8, "simulationMode": [null, null, null, null, null], "rewards": [-1, 1, -5, -1, 59], "path": ["0", "0", "12", "13", "14", "19", "22"], "rt": [5276, 111, 48, 28, 90], "actions": ["right", "right", "right", "down", "left"], "actionTimes": [6582, 7185, 7722, 8269, 8849], "queries": {"click": {"state": {"target": ["21", "22"], "time": [2079, 4079]}, "edge": {"target": [], "time": []}}, "mouseover": {"state": {"target": ["12", "13", "21", "22", "14", "15", "18"], "time": [1551, 1569, 1918, 2552, 4420, 4671, 4971]}, "edge": {"target": [], "time": []}}, "mouseout": {"state": {"target": ["21", "22", "12", "0", "12", "13", "21", "22", "14", "15", "18", "13", "14", "22", "14", "15"], "time": [750, 900, 984, 1017, 1568, 1585, 2402, 4370, 4537, 4921, 11842, 12143, 12827, 16096, 16163, 16263]}, "edge": {"target": [], "time": []}}}, "displayed_time": "15.31", "trialTime": 16710, "trial_type": "mouselab-mdp", "trial_index": 26, "time_elapsed": 680060, "internal_node_id": "0.0-6.0-1.0-17.0"}}, {"uniqueid": "w69034335:a13387308", "current_trial": 27, "dateTime": 1693481703387, "trialdata": {"revealed_states": [], "clicked_states": ["18", "16", "17", "20", "21", "22"], "num_clicks_accrued": [0, 0, 0, 0, 0, 0, 0, 0, 0, 0, 0, 0, 0], "stateRewards": ["", 2, -1, -2, -5, -47, -57, -33, -11, 31, -18, -72, -2, 1, -4, -8, -46, -53, -50, 15, -85, -9, 39, -2, -2, 1, 14, -1, -8, 53, -12, -41, -74, 62], "withholdReward": false, "trial_id": "mdp_trial_19", "block": "test", "trialIndex": 20, "score": 40.6, "costs": -8.4, "simulationMode": [null, null, null, null, null], "rewards": [-2, 1, -4, 15, 39], "path": ["0", "0", "12", "13", "14", "19", "22"], "rt": [12479, 92, 51, 36, 47], "actions": ["right", "right", "right", "down", "left"], "actionTimes": [13356, 13953, 14495, 15048, 15609], "queries": {"click": {"state": {"target": ["18", "16", "17", "20", "21", "22"], "time": [1493, 3325, 5145, 7103, 8967, 10845]}, "edge": {"target": [], "time": []}}, "mouseover": {"state": {"target": ["12", "18", "18", "16", "17", "17", "20", "21", "22", "13", "6"], "time": [1016, 1082, 1366, 1800, 3618, 3751, 6520, 7571, 9489, 11190, 11691]}, "edge": {"target": [], "time": []}}, "mouseout": {"state": {"target": ["15", "12", "0", "12", "18", "18", "16", "17", "17", "20", "21", "22", "13"], "time": [364, 448, 999, 1032, 1099, 1716, 3568, 3651, 5553, 7371, 9272, 11174, 11224]}, "edge": {"target": [], "time": []}}}, "displayed_time": "16.11", "trialTime": 16999, "trial_type": "mouselab-mdp", "trial_index": 27, "time_elapsed": 697280, "internal_node_id": "0.0-6.0-1.0-18.0"}}, {"uniqueid": "w69034335:a13387308", "current_trial": 28, "dateTime": 1693481719692, "trialdata": {"revealed_states": [], "clicked_states": ["5", "6", "7"], "num_clicks_accrued": [0, 0, 0, 0, 0, 0, 0, 0, 0, 0, 0, 0, 0], "stateRewards": ["", -2, -4, 2, 10, -17, 18, 73, 11, -32, 23, -13, -2, -4, 7, 12, -25, 66, -23, 15, 40, -76, -9, 1, 2, -7, -5, -20, 24, 3, -5, 16, -73, 70], "withholdReward": false, "trial_id": "mdp_trial_20", "block": "test", "trialIndex": 21, "score": 74.8, "costs": -4.199999999999999, "simulationMode": [null, null, null, null, null], "rewards": [-2, -4, 2, 10, 73], "path": ["0", "0", "1", "2", "3", "4", "7"], "rt": [6694, 63, 34, 689, 116], "actions": ["up", "up", "up", "right", "down"], "actionTimes": [7672, 8223, 8761, 9966, 10577], "queries": {"click": {"state": {"target": ["5", "6", "7"], "time": [1402, 3280, 5292]}, "edge": {"target": [], "time": []}}, "mouseover": {"state": {"target": ["1", "2", "5", "6", "7", "8", "8", "9"], "time": [1053, 1086, 1219, 2137, 3571, 5707, 5807, 5910]}, "edge": {"target": [], "time": []}}, "mouseout": {"state": {"target": ["6", "7", "1", "2", "5", "5", "6", "7", "8", "8", "9", "8", "10", "0", "0", "1", "2"], "time": [352, 485, 1069, 1103, 1478, 1887, 3555, 5640, 5740, 5823, 13429, 13546, 13629, 13863, 15848, 15898, 15981]}, "edge": {"target": [], "time": []}}}, "displayed_time": "14.98", "trialTime": 16094, "trial_type": "mouselab-mdp", "trial_index": 28, "time_elapsed": 713585, "internal_node_id": "0.0-6.0-1.0-19.0"}}, {"uniqueid": "w69034335:a13387308", "current_trial": 29, "dateTime": 1693481736448, "trialdata": {"revealed_states": [], "clicked_states": ["9", "11"], "num_clicks_accrued": [0, 0, 0, 0, 0, 0, 0, 0, 0, 0, 0, 0, 0], "stateRewards": ["", -2, 1, -5, 2, -68, 80, 33, 10, 67, -59, 20, -1, -3, 3, 14, 74, -2, 24, -16, 63, 80, 46, -1, 4, 6, 12, 83, -38, -43, -4, 43, 14, -79], "withholdReward": false, "trial_id": "mdp_trial_21", "block": "test", "trialIndex": 22, "score": 68.2, "costs": -2.8, "simulationMode": [null, null, null, null, null], "rewards": [-2, 1, -5, 10, 67], "path": ["0", "0", "1", "2", "3", "8", "9"], "rt": [4117, 32, 10, 643, 73], "actions": ["up", "up", "up", "left", "up"], "actionTimes": [4897, 5426, 5954, 7104, 7669], "queries": {"click": {"state": {"target": ["9", "11"], "time": [1198, 3146]}, "edge": {"target": [], "time": []}}, "mouseover": {"state": {"target": ["1", "10", "8", "9", "11"], "time": [872, 906, 939, 1022, 1790]}, "edge": {"target": [], "time": []}}, "mouseout": {"state": {"target": ["2", "1", "1", "10", "8", "9", "11", "11", "8"], "time": [355, 405, 889, 922, 956, 1606, 3217, 3341, 16134]}, "edge": {"target": [], "time": []}}}, "displayed_time": "14.78", "trialTime": 16540, "trial_type": "mouselab-mdp", "trial_index": 29, "time_elapsed": 730341, "internal_node_id": "0.0-6.0-1.0-20.0"}}, {"uniqueid": "w69034335:a13387308", "current_trial": 30, "dateTime": 1693481752461, "trialdata": {"revealed_states": [], "clicked_states": ["27", "28", "29"], "num_clicks_accrued": [0, 0, 0, 0, 0, 0, 0, 0, 0, 0, 0, 0, 0], "stateRewards": ["", -1, -3, -7, -7, -76, 30, -49, 11, -70, 56, 2, 1, 4, -3, -14, -59, -83, -25, -9, -21, -67, -73, -2, 4, 4, -9, -11, -32, 60, 9, -87, 22, -64], "withholdReward": false, "trial_id": "mdp_trial_22", "block": "test", "trialIndex": 23, "score": 52.8, "costs": -4.199999999999999, "simulationMode": [null, null, null, null, null], "rewards": [-2, 4, 4, -9, 60], "path": ["0", "0", "23", "24", "25", "26", "29"], "rt": [6977, 29, 81, 6, 572], "actions": ["left", "left", "left", "up", "left"], "actionTimes": [7936, 8461, 9030, 9543, 10622], "queries": {"click": {"state": {"target": ["27", "28", "29"], "time": [1575, 3408, 5217]}, "edge": {"target": [], "time": []}}, "mouseover": {"state": {"target": ["23", "26", "27", "28", "26", "29", "25", "30", "33"], "time": [1057, 1257, 1458, 1975, 3676, 3826, 5528, 5612, 5845]}, "edge": {"target": [], "time": []}}, "mouseout": {"state": {"target": ["3", "10", "0", "23", "26", "27", "28", "26", "29", "25", "30", "33", "30", "31"], "time": [190, 306, 821, 1074, 1274, 1825, 3643, 3726, 5495, 5562, 5729, 12951, 13051, 13118]}, "edge": {"target": [], "time": []}}}, "displayed_time": "14.96", "trialTime": 15791, "trial_type": "mouselab-mdp", "trial_index": 30, "time_elapsed": 746354, "internal_node_id": "0.0-6.0-1.0-21.0"}}, {"uniqueid": "w69034335:a13387308", "current_trial": 31, "dateTime": 1693481768239, "trialdata": {"revealed_states": [], "clicked_states": ["31", "32"], "num_clicks_accrued": [0, 0, 0, 0, 0, 0, 0, 0, 0, 0, 0, 0, 0], "stateRewards": ["", 1, 1, -7, -9, -44, 24, -83, -15, 44, -24, 72, -2, -3, 4, -5, 57, 55, 29, -11, 22, 12, -25, -1, 2, 7, 12, 33, -8, 47, -4, 8, 50, -4], "withholdReward": false, "trial_id": "mdp_trial_23", "block": "test", "trialIndex": 24, "score": 51.2, "costs": -2.8, "simulationMode": [null, null, null, null, null], "rewards": [-1, 2, 7, -4, 50], "path": ["0", "0", "23", "24", "25", "30", "32"], "rt": [6685, 42, 60, 13, 57], "actions": ["left", "left", "left", "down", "down"], "actionTimes": [7615, 8148, 8700, 9220, 9781], "queries": {"click": {"state": {"target": ["31", "32"], "time": [1564, 4738]}, "edge": {"target": [], "time": []}}, "mouseover": {"state": {"target": ["31", "32", "33"], "time": [1383, 4569, 5136]}, "edge": {"target": [], "time": []}}, "mouseout": {"state": {"target": ["0", "31", "32", "33", "33", "30"], "time": [1116, 4369, 5019, 11174, 11291, 11324]}, "edge": {"target": [], "time": []}}}, "displayed_time": "14.93", "trialTime": 15565, "trial_type": "mouselab-mdp", "trial_index": 31, "time_elapsed": 762133, "internal_node_id": "0.0-6.0-1.0-22.0"}}, {"uniqueid": "w69034335:a13387308", "current_trial": 32, "dateTime": 1693481783791, "trialdata": {"revealed_states": [], "clicked_states": ["17", "16", "18"], "num_clicks_accrued": [0, 0, 0, 0, 0, 0, 0, 0, 0, 0, 0, 0, 0], "stateRewards": ["", -2, -3, -6, -7, 9, 16, 65, 5, -41, 20, -25, -1, -4, 1, -11, -49, -4, 71, 1, 39, -62, 52, -2, -3, 7, -9, -28, -70, 84, 8, 24, -58, 82], "withholdReward": false, "trial_id": "mdp_trial_24", "block": "test", "trialIndex": 25, "score": 51.8, "costs": -4.199999999999999, "simulationMode": [null, null, null, null, null], "rewards": [-1, -4, 1, -11, 71], "path": ["0", "0", "12", "13", "14", "15", "18"], "rt": [7014, 124, 250, 78, 19], "actions": ["right", "right", "right", "up", "left"], "actionTimes": [7768, 8406, 9149, 9727, 10253], "queries": {"click": {"state": {"target": ["17", "16", "18"], "time": [1492, 3355, 5212]}, "edge": {"target": [], "time": []}}, "mouseover": {"state": {"target": ["12", "15", "17", "16", "18", "7"], "time": [1058, 1208, 1258, 2777, 3978, 7030]}, "edge": {"target": [], "time": []}}, "mouseout": {"state": {"target": ["0", "12", "15", "17", "17", "16", "18", "7"], "time": [1025, 1075, 1225, 1893, 2426, 3661, 6946, 7297]}, "edge": {"target": [], "time": []}}}, "displayed_time": "14.76", "trialTime": 15329, "trial_type": "mouselab-mdp", "trial_index": 32, "time_elapsed": 777685, "internal_node_id": "0.0-6.0-1.0-23.0"}}, {"uniqueid": "w69034335:a13387308", "current_trial": 33, "dateTime": 1693481799833, "trialdata": {"revealed_states": [], "clicked_states": ["7", "10", "11"], "num_clicks_accrued": [0, 0, 0, 0, 0, 0, 0, 0, 0, 0, 0, 0, 0], "stateRewards": ["", 2, 4, -5, 7, 81, 35, 6, 11, 14, -72, 42, -1, 2, 3, -7, -77, -44, -40, -15, -85, 51, -32, -2, -1, -5, 7, -74, 47, 52, 16, -49, 48, -46], "withholdReward": false, "trial_id": "mdp_trial_25", "block": "test", "trialIndex": 26, "score": 49.8, "costs": -4.199999999999999, "simulationMode": [null, null, null, null, null], "rewards": [2, 4, -5, 11, 42], "path": ["0", "0", "1", "2", "3", "8", "11"], "rt": [6842, 80, 7, 538, 485], "actions": ["up", "up", "up", "left", "left"], "actionTimes": [7862, 8435, 8945, 9995, 10975], "queries": {"click": {"state": {"target": ["7", "10", "11"], "time": [1664, 3512, 5379]}, "edge": {"target": [], "time": []}}, "mouseover": {"state": {"target": ["1", "2", "7", "2", "10", "11", "9"], "time": [1231, 1331, 1531, 2049, 2182, 4818, 5719]}, "edge": {"target": [], "time": []}}, "mouseout": {"state": {"target": ["2", "0", "1", "2", "7", "2", "10", "11", "9", "2", "1", "0"], "time": [647, 1198, 1298, 1448, 1745, 2099, 4668, 5668, 13491, 13608, 13658, 13725]}, "edge": {"target": [], "time": []}}}, "displayed_time": "15.02", "trialTime": 15848, "trial_type": "mouselab-mdp", "trial_index": 33, "time_elapsed": 793726, "internal_node_id": "0.0-6.0-1.0-24.0"}}, {"uniqueid": "w69034335:a13387308", "current_trial": 34, "dateTime": 1693481816001, "trialdata": {"revealed_states": [], "clicked_states": ["9", "5", "27"], "num_clicks_accrued": [0, 0, 0, 0, 0, 0, 0, 0, 0, 0, 0, 0, 0], "stateRewards": ["", -2, -1, -4, -15, -14, -67, 32, -3, -59, 63, 31, 2, -1, -7, -15, 71, -66, -27, -3, -54, -39, 72, 2, 1, 1, -13, 77, -40, 35, -9, 35, 75, 57], "withholdReward": false, "trial_id": "mdp_trial_26", "block": "test", "trialIndex": 27, "score": 63.8, "costs": -4.199999999999999, "simulationMode": [null, null, null, null, null], "rewards": [2, 1, 1, -13, 77], "path": ["0", "0", "23", "24", "25", "26", "27"], "rt": [7130, 475, 77, 17, 13], "actions": ["left", "left", "left", "up", "up"], "actionTimes": [8375, 9341, 9911, 10435, 10964], "queries": {"click": {"state": {"target": ["9", "5", "27"], "time": [1606, 3430, 5977]}, "edge": {"target": [], "time": []}}, "mouseover": {"state": {"target": ["1", "9", "5", "4", "7", "2", "10", "27", "27", "10", "2", "7", "16"], "time": [1256, 1443, 2027, 3728, 4062, 5196, 5363, 5429, 5880, 6364, 6382, 6414, 6580]}, "edge": {"target": [], "time": []}}, "mouseout": {"state": {"target": ["0", "3", "0", "1", "9", "5", "4", "7", "2", "10", "27", "27", "10", "2", "7", "16", "16", "15", "14", "19", "21"], "time": [241, 558, 1255, 1278, 1960, 3711, 3778, 5129, 5346, 5379, 5546, 6330, 6380, 6397, 6430, 7865, 12752, 12802, 12835, 12885, 12919]}, "edge": {"target": [], "time": []}}}, "displayed_time": "15.25", "trialTime": 15948, "trial_type": "mouselab-mdp", "trial_index": 34, "time_elapsed": 809894, "internal_node_id": "0.0-6.0-1.0-25.0"}}, {"uniqueid": "w69034335:a13387308", "current_trial": 35, "dateTime": 1693481831594, "trialdata": {"revealed_states": [], "clicked_states": ["31", "32"], "num_clicks_accrued": [0, 0, 0, 0, 0, 0, 0, 0, 0, 0, 0, 0, 0], "stateRewards": ["", 2, -2, -3, 10, -4, -1, -11, -8, -9, -36, -78, 2, 1, 7, -7, 44, -1, -31, -1, 26, 47, 83, 2, -4, -4, -6, -52, -76, -81, -1, -59, 45, 67], "withholdReward": false, "trial_id": "mdp_trial_27", "block": "test", "trialIndex": 28, "score": 35.2, "costs": -2.8, "simulationMode": [null, null, null, null, null], "rewards": [2, -4, -4, -1, 45], "path": ["0", "0", "23", "24", "25", "30", "32"], "rt": [5006, 445, 136, 35, 33], "actions": ["left", "left", "left", "down", "down"], "actionTimes": [5994, 6951, 7576, 8109, 8657], "queries": {"click": {"state": {"target": ["31", "32"], "time": [1500, 3374]}, "edge": {"target": [], "time": []}}, "mouseover": {"state": {"target": ["0", "31", "32", "30", "33"], "time": [1117, 1367, 1918, 3719, 3836]}, "edge": {"target": [], "time": []}}, "mouseout": {"state": {"target": ["0", "0", "31", "31", "32", "30", "33", "24"], "time": [733, 1134, 1598, 1851, 3603, 3786, 5421, 10175]}, "edge": {"target": [], "time": []}}}, "displayed_time": "14.99", "trialTime": 15386, "trial_type": "mouselab-mdp", "trial_index": 35, "time_elapsed": 825488, "internal_node_id": "0.0-6.0-1.0-26.0"}}, {"uniqueid": "w69034335:a13387308", "current_trial": 36, "dateTime": 1693481847629, "trialdata": {"revealed_states": [], "clicked_states": ["23", "25", "30", "33"], "num_clicks_accrued": [0, 0, 0, 0, 0, 0, 0, 0, 0, 0, 0, 0, 0], "stateRewards": ["", -2, 2, 8, -6, -25, 3, 87, 2, -62, -2, 74, -2, -1, 2, -1, 79, 49, -37, -14, 5, 67, -9, -1, 2, -2, 5, 15, 38, 32, -14, -38, -38, 30], "withholdReward": false, "trial_id": "mdp_trial_28", "block": "test", "trialIndex": 29, "score": 9.399999999999999, "costs": -5.6, "simulationMode": [null, null, null, null, null], "rewards": [-1, 2, -2, -14, 30], "path": ["0", "0", "23", "24", "25", "30", "33"], "rt": [9902, 491, 136, 140, 136], "actions": ["left", "left", "left", "down", "left"], "actionTimes": [10803, 11793, 12421, 13059, 13689], "queries": {"click": {"state": {"target": ["23", "25", "30", "33"], "time": [1294, 4256, 6371, 8202]}, "edge": {"target": [], "time": []}}, "mouseover": {"state": {"target": ["23", "24", "24", "0", "25", "30", "33", "32"], "time": [1175, 1776, 3444, 3512, 4061, 4929, 7764, 8615]}, "edge": {"target": [], "time": []}}, "mouseout": {"state": {"target": ["0", "23", "24", "24", "23", "0", "25", "30", "33", "32"], "time": [1059, 1659, 3327, 3477, 3511, 3528, 4645, 7397, 8548, 10233]}, "edge": {"target": [], "time": []}}}, "displayed_time": "14.90", "trialTime": 15800, "trial_type": "mouselab-mdp", "trial_index": 36, "time_elapsed": 841523, "internal_node_id": "0.0-6.0-1.0-27.0"}}, {"uniqueid": "w69034335:a13387308", "current_trial": 37, "dateTime": 1693481864425, "trialdata": {"revealed_states": [], "clicked_states": ["27", "28", "10", "29", "9", "11"], "num_clicks_accrued": [0, 0, 0, 0, 0, 0, 0, 0, 0, 0, 0, 0, 0], "stateRewards": ["", -1, 1, -1, 2, 19, 85, -18, 2, -3, -26, 36, 2, 4, 7, -9, -18, 70, 72, -5, 35, -20, -28, 1, -2, -4, -3, -59, -11, -63, -2, -72, 59, -69], "withholdReward": false, "trial_id": "mdp_trial_29", "block": "test", "trialIndex": 30, "score": 28.6, "costs": -8.4, "simulationMode": [null, null, null, null, null], "rewards": [-1, 1, -1, 2, 36], "path": ["0", "0", "1", "2", "3", "8", "11"], "rt": [12490, 49, 47, 3, 55], "actions": ["up", "up", "up", "left", "left"], "actionTimes": [13305, 13848, 14396, 14902, 15472], "queries": {"click": {"state": {"target": ["27", "28", "10", "29", "9", "11"], "time": [1371, 3233, 5198, 7247, 9116, 10982]}, "edge": {"target": [], "time": []}}, "mouseover": {"state": {"target": ["27", "28", "10", "29", "27", "11", "9", "11"], "time": [1188, 2689, 4625, 7126, 7526, 7560, 7610, 9478]}, "edge": {"target": [], "time": []}}, "mouseout": {"state": {"target": ["0", "27", "28", "10", "29", "27", "11", "9", "11"], "time": [587, 1465, 3873, 6792, 7350, 7543, 7576, 9411, 12880]}, "edge": {"target": [], "time": []}}}, "displayed_time": "15.97", "trialTime": 16562, "trial_type": "mouselab-mdp", "trial_index": 37, "time_elapsed": 858319, "internal_node_id": "0.0-6.0-1.0-28.0"}}, {"uniqueid": "w69034335:a13387308", "current_trial": 38, "dateTime": 1693481880021, "trialdata": {"revealed_states": [], "clicked_states": ["6"], "num_clicks_accrued": [0, 0, 0, 0, 0, 0, 0, 0, 0, 0, 0, 0, 0], "stateRewards": ["", -1, -1, 4, -16, -75, 81, -51, -7, -84, 73, -30, -2, 1, -3, -16, -77, 33, 14, 1, 45, 87, -66, 2, 2, -5, -7, -19, -17, 79, -3, 8, 49, 47], "withholdReward": false, "trial_id": "mdp_trial_30", "block": "test", "trialIndex": 31, "score": 65.6, "costs": -1.4, "simulationMode": [null, null, null, null, null], "rewards": [-1, -1, 4, -16, 81], "path": ["0", "0", "1", "2", "3", "4", "6"], "rt": [3136, 310, 38, 38, 33], "actions": ["up", "up", "up", "right", "right"], "actionTimes": [4128, 4940, 5469, 6003, 6531], "queries": {"click": {"state": {"target": ["6"], "time": [1709]}, "edge": {"target": [], "time": []}}, "mouseover": {"state": {"target": ["1", "7", "6", "6", "7"], "time": [1259, 1293, 1343, 1593, 2260]}, "edge": {"target": [], "time": []}}, "mouseout": {"state": {"target": ["8", "10", "0", "1", "7", "6", "6", "7"], "time": [275, 308, 1243, 1276, 1309, 1376, 2027, 3711]}, "edge": {"target": [], "time": []}}}, "displayed_time": "14.99", "trialTime": 15350, "trial_type": "mouselab-mdp", "trial_index": 38, "time_elapsed": 873915, "internal_node_id": "0.0-6.0-1.0-29.0"}}, {"uniqueid": "w69034335:a13387308", "current_trial": 39, "dateTime": 1693481895899, "trialdata": {"revealed_states": [], "clicked_states": ["5", "7", "16", "17"], "num_clicks_accrued": [0, 0, 0, 0, 0, 0, 0, 0, 0, 0, 0, 0, 0], "stateRewards": ["", 2, -1, 3, -12, -83, 6, -33, 9, 28, 24, -50, -2, -1, -2, -5, -87, 37, 82, 12, 80, -5, 10, -2, -3, -6, 9, 22, -1, 16, 9, 77, -62, 58], "withholdReward": false, "trial_id": "mdp_trial_31", "block": "test", "trialIndex": 32, "score": 21.4, "costs": -5.6, "simulationMode": [null, null, null, null, null], "rewards": [-2, -1, -2, -5, 37], "path": ["0", "0", "12", "13", "14", "15", "17"], "rt": [9255, 512, 135, 100, 115], "actions": ["right", "right", "right", "up", "right"], "actionTimes": [10103, 11105, 11729, 12327, 12943], "queries": {"click": {"state": {"target": ["5", "7", "16", "17"], "time": [1368, 3571, 5732, 7598]}, "edge": {"target": [], "time": []}}, "mouseover": {"state": {"target": ["7", "4", "5", "4", "7", "7", "18", "18", "16", "17", "14"], "time": [1050, 1083, 1200, 3236, 3268, 3468, 3919, 5336, 5570, 6838, 7922]}, "edge": {"target": [], "time": []}}, "mouseout": {"state": {"target": ["18", "7", "4", "5", "4", "7", "7", "18", "18", "16", "17", "14", "13"], "time": [415, 1066, 1133, 3235, 3252, 3285, 3869, 3986, 5453, 6771, 7872, 9540, 14677]}, "edge": {"target": [], "time": []}}}, "displayed_time": "14.85", "trialTime": 15606, "trial_type": "mouselab-mdp", "trial_index": 39, "time_elapsed": 889793, "internal_node_id": "0.0-6.0-1.0-30.0"}}, {"uniqueid": "w69034335:a13387308", "current_trial": 40, "dateTime": 1693481911483, "trialdata": {"revealed_states": [], "clicked_states": ["20", "21"], "num_clicks_accrued": [0, 0, 0, 0, 0, 0, 0, 0, 0, 0, 0, 0, 0], "stateRewards": ["", 2, -4, -4, 13, -80, 62, 13, -11, 57, -13, -44, 1, 4, 3, -4, -29, -88, 15, 16, -58, 68, -45, -1, -3, -1, -9, -44, -86, -19, -7, -36, 59, 66], "withholdReward": false, "trial_id": "mdp_trial_32", "block": "test", "trialIndex": 33, "score": 89.2, "costs": -2.8, "simulationMode": [null, null, null, null, null], "rewards": [1, 4, 3, 16, 68], "path": ["0", "0", "12", "13", "14", "19", "21"], "rt": [4993, 25, 138, 70, 69], "actions": ["right", "right", "right", "down", "down"], "actionTimes": [5928, 6443, 7091, 7656, 8222], "queries": {"click": {"state": {"target": ["20", "21"], "time": [1500, 3322]}, "edge": {"target": [], "time": []}}, "mouseover": {"state": {"target": ["19", "20", "19", "21", "22"], "time": [1212, 1362, 1763, 1846, 3665]}, "edge": {"target": [], "time": []}}, "mouseout": {"state": {"target": ["0", "19", "20", "19", "21", "22"], "time": [1045, 1279, 1713, 1780, 3531, 13673]}, "edge": {"target": [], "time": []}}}, "displayed_time": "14.94", "trialTime": 15273, "trial_type": "mouselab-mdp", "trial_index": 40, "time_elapsed": 905376, "internal_node_id": "0.0-6.0-1.0-31.0"}}, {"uniqueid": "w69034335:a13387308", "current_trial": 41, "dateTime": 1693481934525, "trialdata": {"revealed_states": [], "clicked_states": ["32", "31", "33", "29", "27", "28", "9", "10"], "num_clicks_accrued": [0, 0, 0, 0, 0, 0, 0, 0, 0, 0, 0, 0, 0], "stateRewards": ["", 2, -4, 4, 9, 69, 9, -75, 12, -86, 66, 25, -1, 3, 2, -13, -88, -3, 1, 4, -69, 49, -84, 2, -1, 4, 2, -18, -81, -52, -15, -69, -54, 25], "withholdReward": false, "trial_id": "mdp_trial_33", "block": "test", "trialIndex": 34, "score": 68.8, "costs": -11.200000000000001, "simulationMode": [null, null, null, null, null], "rewards": [2, -4, 4, 12, 66], "path": ["0", "0", "1", "2", "3", "8", "10"], "rt": [18706, 15, 10, 18, 24], "actions": ["up", "up", "up", "left", "down"], "actionTimes": [19465, 19970, 20499, 21024, 21548], "queries": {"click": {"state": {"target": ["32", "31", "33", "29", "27", "28", "9", "10"], "time": [1356, 3353, 5357, 8413, 10342, 12176, 15086, 16944]}, "edge": {"target": [], "time": []}}, "mouseover": {"state": {"target": ["31", "32", "31", "30", "33", "29", "27", "28", "9", "9", "10", "11"], "time": [1089, 1205, 3257, 5142, 5192, 6127, 8913, 10697, 14616, 14933, 15667, 17469]}, "edge": {"target": [], "time": []}}, "mouseout": {"state": {"target": ["0", "31", "32", "32", "32", "31", "30", "33", "29", "27", "27", "28", "9", "9", "10"], "time": [1005, 1105, 1363, 1823, 2690, 5109, 5176, 5860, 8846, 10412, 10647, 14133, 14666, 15434, 17030]}, "edge": {"target": [], "time": []}}}, "displayed_time": "22.04", "trialTime": 22780, "trial_type": "mouselab-mdp", "trial_index": 41, "time_elapsed": 928419, "internal_node_id": "0.0-6.0-1.0-32.0"}}, {"uniqueid": "w69034335:a13387308", "current_trial": 42, "dateTime": 1693481950370, "trialdata": {"revealed_states": [], "clicked_states": ["6", "5", "7"], "num_clicks_accrued": [0, 0, 0, 0, 0, 0, 0, 0, 0, 0, 0, 0, 0], "stateRewards": ["", 2, 4, 4, -8, -36, -33, 38, 16, -51, 57, 57, 1, 3, 4, -6, 45, 68, 87, 1, 63, 24, -55, -2, 2, -6, -13, -63, -50, 8, 2, 80, 6, 60], "withholdReward": false, "trial_id": "mdp_trial_34", "block": "test", "trialIndex": 35, "score": 35.8, "costs": -4.199999999999999, "simulationMode": [null, null, null, null, null], "rewards": [2, 4, 4, -8, 38], "path": ["0", "0", "1", "2", "3", "4", "7"], "rt": [7205, 48, 613, 63, 25], "actions": ["up", "up", "up", "right", "down"], "actionTimes": [8338, 8875, 10006, 10557, 11086], "queries": {"click": {"state": {"target": ["6", "5", "7"], "time": [2194, 4069, 5902]}, "edge": {"target": [], "time": []}}, "mouseover": {"state": {"target": ["1", "4", "6", "5", "7", "2", "8", "9", "3"], "time": [1369, 1435, 2069, 3070, 4472, 6206, 6273, 6674, 7841]}, "edge": {"target": [], "time": []}}, "mouseout": {"state": {"target": ["11", "1", "1", "4", "6", "5", "7", "2", "8", "9", "3", "3"], "time": [401, 835, 1386, 1469, 2854, 4355, 6190, 6240, 6307, 7807, 7891, 12495]}, "edge": {"target": [], "time": []}}}, "displayed_time": "15.13", "trialTime": 15602, "trial_type": "mouselab-mdp", "trial_index": 42, "time_elapsed": 944263, "internal_node_id": "0.0-6.0-1.0-33.0"}}, {"uniqueid": "w69034335:a13387308", "current_trial": 43, "dateTime": 1693481966253, "trialdata": {"revealed_states": [], "clicked_states": ["9", "10"], "num_clicks_accrued": [0, 0, 0, 0, 0, 0, 0, 0, 0, 0, 0, 0, 0], "stateRewards": ["", -1, 1, 8, -3, -24, 11, -65, -6, -77, 48, 44, -2, 1, -2, -7, -55, -35, 33, 8, -28, 19, -53, -1, -1, -5, -5, -70, 10, 44, 8, -58, -70, 51], "withholdReward": false, "trial_id": "mdp_trial_35", "block": "test", "trialIndex": 36, "score": 47.2, "costs": -2.8, "simulationMode": [null, null, null, null, null], "rewards": [-1, 1, 8, -6, 48], "path": ["0", "0", "1", "2", "3", "8", "10"], "rt": [5162, 430, 81, 35, 59], "actions": ["up", "up", "up", "left", "down"], "actionTimes": [6402, 7329, 7913, 8451, 9026], "queries": {"click": {"state": {"target": ["9", "10"], "time": [1562, 3487]}, "edge": {"target": [], "time": []}}, "mouseover": {"state": {"target": ["1", "8", "9", "8", "10", "23", "31", "32", "31"], "time": [1280, 1325, 1392, 1843, 2677, 4128, 4362, 5579, 5729]}, "edge": {"target": [], "time": []}}, "mouseout": {"state": {"target": ["3", "8", "1", "0", "0", "1", "8", "9", "8", "10", "23", "31", "32", "31", "10", "10", "23", "0"], "time": [241, 458, 708, 808, 1025, 1293, 1342, 1826, 1876, 3911, 4328, 4512, 5679, 5746, 10729, 10800, 11167, 11400]}, "edge": {"target": [], "time": []}}}, "displayed_time": "15.24", "trialTime": 15629, "trial_type": "mouselab-mdp", "trial_index": 43, "time_elapsed": 960147, "internal_node_id": "0.0-6.0-1.0-34.0"}}, {"uniqueid": "w69034335:a13387308", "current_trial": 44, "dateTime": 1693481984403, "trialdata": {"revealed_states": [], "clicked_states": ["32", "31", "33", "29", "27", "28", "10"], "num_clicks_accrued": [0, 0, 0, 0, 0, 0, 0, 0, 0, 0, 0, 0, 0], "stateRewards": ["", -2, 1, -7, 9, 8, 25, 61, -7, -17, 69, -81, 1, 4, -4, -11, 16, 67, 44, 3, 6, -45, -54, -2, 3, 6, -11, -15, 32, -47, 3, -39, -6, -88], "withholdReward": false, "trial_id": "mdp_trial_36", "block": "test", "trialIndex": 37, "score": 44.2, "costs": -9.8, "simulationMode": [null, null, null, null, null], "rewards": [-2, 1, -7, -7, 69], "path": ["0", "0", "1", "2", "3", "8", "10"], "rt": [13191, 41, 15, 575, 104], "actions": ["up", "up", "up", "left", "down"], "actionTimes": [14015, 14552, 15076, 16153, 16750], "queries": {"click": {"state": {"target": ["32", "31", "33", "29", "27", "28", "10"], "time": [1204, 3074, 4916, 6746, 8556, 10340, 12102]}, "edge": {"target": [], "time": []}}, "mouseover": {"state": {"target": ["31", "32", "31", "27", "26", "33", "27", "29", "27", "28", "10"], "time": [915, 999, 1783, 3468, 3918, 3985, 5286, 5853, 7021, 8889, 10790]}, "edge": {"target": [], "time": []}}, "mouseout": {"state": {"target": ["0", "31", "32", "31", "27", "26", "33", "27", "29", "27", "27", "28"], "time": [865, 949, 1283, 3401, 3885, 3935, 5169, 5836, 6971, 8589, 8822, 10690]}, "edge": {"target": [], "time": []}}}, "displayed_time": "17.25", "trialTime": 17923, "trial_type": "mouselab-mdp", "trial_index": 44, "time_elapsed": 978297, "internal_node_id": "0.0-6.0-1.0-35.0"}}, {"uniqueid": "w69034335:a13387308", "current_trial": 45, "dateTime": 1693482003110, "trialdata": {"revealed_states": [], "clicked_states": ["6", "5", "7", "16", "17", "18", "20"], "num_clicks_accrued": [0, 0, 0, 0, 0, 0, 0, 0, 0, 0, 0, 0, 0], "stateRewards": ["", -1, -4, -1, -5, -28, -23, -15, -15, -38, 59, -87, 2, 2, -5, 9, -55, -39, -71, -6, 85, -85, -11, -1, -2, 5, -10, 1, 25, 41, -4, 69, -35, 86], "withholdReward": false, "trial_id": "mdp_trial_37", "block": "test", "trialIndex": 38, "score": 68.2, "costs": -9.8, "simulationMode": [null, null, null, null, null], "rewards": [2, 2, -5, -6, 85], "path": ["0", "0", "12", "13", "14", "19", "20"], "rt": [14227, 40, 67, 51, 44], "actions": ["right", "right", "right", "down", "right"], "actionTimes": [15118, 15651, 16212, 16763, 17306], "queries": {"click": {"state": {"target": ["6", "5", "7", "16", "17", "18", "20"], "time": [1385, 3177, 4976, 6873, 8797, 10619, 12379]}, "edge": {"target": [], "time": []}}, "mouseover": {"state": {"target": ["6", "5", "4", "7", "16", "17", "15", "18", "13", "13", "19", "20"], "time": [1281, 2265, 3433, 3550, 5568, 7286, 9088, 9138, 10906, 10973, 11373, 11523]}, "edge": {"target": [], "time": []}}, "mouseout": {"state": {"target": ["10", "6", "5", "4", "7", "16", "17", "15", "18", "13", "13", "19", "20", "20"], "time": [364, 1932, 3400, 3467, 5268, 7203, 9071, 9104, 10873, 10923, 10989, 11406, 13991, 18129]}, "edge": {"target": [], "time": []}}}, "displayed_time": "17.81", "trialTime": 18482, "trial_type": "mouselab-mdp", "trial_index": 45, "time_elapsed": 997004, "internal_node_id": "0.0-6.0-1.0-36.0"}}, {"uniqueid": "w69034335:a13387308", "current_trial": 46, "dateTime": 1693482018677, "trialdata": {"revealed_states": [], "clicked_states": ["32", "33", "27"], "num_clicks_accrued": [0, 0, 0, 0, 0, 0, 0, 0, 0, 0, 0, 0, 0], "stateRewards": ["", 1, -1, 8, -3, 38, 85, -20, -4, 8, 23, 73, 2, -4, 6, -13, 44, 7, -28, -11, -77, 45, -69, 1, -1, -7, -11, 75, -51, -87, 7, 36, -53, -26], "withholdReward": false, "trial_id": "mdp_trial_38", "block": "test", "trialIndex": 39, "score": 52.8, "costs": -4.199999999999999, "simulationMode": [null, null, null, null, null], "rewards": [1, -1, -7, -11, 75], "path": ["0", "0", "23", "24", "25", "26", "27"], "rt": [6793, 11, 662, 81, 4], "actions": ["left", "left", "left", "up", "up"], "actionTimes": [7709, 8215, 9383, 9953, 10459], "queries": {"click": {"state": {"target": ["32", "33", "27"], "time": [1598, 3425, 5248]}, "edge": {"target": [], "time": []}}, "mouseover": {"state": {"target": ["0", "31", "32", "33", "30", "25", "26", "27", "27", "29", "26"], "time": [1097, 1380, 1430, 2431, 3666, 3899, 3932, 4116, 4266, 5650, 7268]}, "edge": {"target": [], "time": []}}, "mouseout": {"state": {"target": ["12", "0", "31", "32", "32", "33", "30", "25", "26", "27", "27", "27", "29"], "time": [412, 1296, 1397, 1964, 2281, 3632, 3716, 3916, 3949, 4149, 5338, 5517, 7235]}, "edge": {"target": [], "time": []}}}, "displayed_time": "14.92", "trialTime": 15315, "trial_type": "mouselab-mdp", "trial_index": 46, "time_elapsed": 1012571, "internal_node_id": "0.0-6.0-1.0-37.0"}}, {"uniqueid": "w69034335:a13387308", "current_trial": 47, "dateTime": 1693482034296, "trialdata": {"revealed_states": [], "clicked_states": ["9", "11"], "num_clicks_accrued": [0, 0, 0, 0, 0, 0, 0, 0, 0, 0, 0, 0, 0], "stateRewards": ["", -1, -3, -6, -2, -7, 80, -45, -3, -38, -72, 76, 2, 1, 7, 4, -62, 14, -74, 14, -87, -21, -88, -2, 1, -7, -10, 66, 56, -76, 10, -29, -72, -70], "withholdReward": false, "trial_id": "mdp_trial_39", "block": "test", "trialIndex": 40, "score": 60.2, "costs": -2.8, "simulationMode": [null, null, null, null, null], "rewards": [-1, -3, -6, -3, 76], "path": ["0", "0", "1", "2", "3", "8", "11"], "rt": [4740, 37, 61, 25, 67], "actions": ["up", "up", "up", "left", "left"], "actionTimes": [5708, 6237, 6794, 7309, 7888], "queries": {"click": {"state": {"target": ["9", "11"], "time": [1386, 3283]}, "edge": {"target": [], "time": []}}, "mouseover": {"state": {"target": ["1", "9", "11", "10", "10"], "time": [1028, 1261, 2329, 3530, 3813]}, "edge": {"target": [], "time": []}}, "mouseout": {"state": {"target": ["26", "28", "1", "9", "11", "11", "10"], "time": [227, 427, 1044, 2045, 3355, 3496, 3580]}, "edge": {"target": [], "time": []}}}, "displayed_time": "14.97", "trialTime": 15386, "trial_type": "mouselab-mdp", "trial_index": 47, "time_elapsed": 1028190, "internal_node_id": "0.0-6.0-1.0-38.0"}}, {"uniqueid": "w69034335:a13387308", "current_trial": 48, "dateTime": 1693482050513, "trialdata": {"revealed_states": [], "clicked_states": ["5", "6"], "num_clicks_accrued": [0, 0, 0, 0, 0, 0, 0, 0, 0, 0, 0, 0, 0], "stateRewards": ["", -1, -3, 4, -10, -5, 79, -87, -2, 53, 29, -20, -2, -1, -5, 10, 27, 86, 46, -16, -29, 40, 3, 2, 4, -1, -6, 37, 79, -29, 7, 86, -62, 29], "withholdReward": false, "trial_id": "mdp_trial_40", "block": "test", "trialIndex": 41, "score": 66.2, "costs": -2.8, "simulationMode": [null, null, null, null, null], "rewards": [-1, -3, 4, -10, 79], "path": ["0", "0", "1", "2", "3", "4", "6"], "rt": [4705, 23, 22, 38, 537], "actions": ["up", "up", "up", "right", "right"], "actionTimes": [5743, 6262, 6779, 7312, 8361], "queries": {"click": {"state": {"target": ["5", "6"], "time": [1586, 3414]}, "edge": {"target": [], "time": []}}, "mouseover": {"state": {"target": ["7", "4", "5", "6", "6", "7"], "time": [1300, 1400, 1516, 2267, 2467, 3802]}, "edge": {"target": [], "time": []}}, "mouseout": {"state": {"target": ["10", "1", "0", "7", "4", "5", "6", "6"], "time": [349, 465, 1200, 1350, 1466, 2184, 2284, 3685]}, "edge": {"target": [], "time": []}}}, "displayed_time": "15.04", "trialTime": 15979, "trial_type": "mouselab-mdp", "trial_index": 48, "time_elapsed": 1044407, "internal_node_id": "0.0-6.0-1.0-39.0"}}, {"uniqueid": "w69034335:a13387308", "current_trial": 49, "dateTime": 1693482105547, "trialdata": {"rt": 55032, "response": {"Q0": "$-2 to $2", "Q1": "$-32 to $32", "Q2": "$-88 to $88", "Q3": "The cost for clicking on nodes varied between nodes.", "Q4": "Very motivated"}, "question_order": [0, 1, 2, 3, 4], "trial_id": "final_quiz_control", "trial_type": "survey-multi-choice", "trial_index": 49, "time_elapsed": 1099441, "internal_node_id": "0.0-6.0-2.0"}}, {"uniqueid": "w69034335:a13387308", "current_trial": 50, "dateTime": 1693482178302, "trialdata": {"rt": 72749, "response": {"Q0": "Only checked the furthest nodes to not waste time", "Q1": "I tried to check out the closer nodes to try out a different strategy but concluded that it was less effective so I went back to only checking the furthest", "Q2": "It was not difficult"}, "trial_id": "self_report_control", "trial_type": "survey-text", "trial_index": 50, "time_elapsed": 1172195, "internal_node_id": "0.0-6.0-3.0"}}, {"uniqueid": "w69034335:a13387308", "current_trial": 51, "dateTime": 1693482209377, "trialdata": {"rt": 31073, "response": {"gender": "female", "age": "25", "colorblind": "0", "effort": "0"}, "trial_type": "survey-html-form", "trial_index": 51, "time_elapsed": 1203271, "internal_node_id": "0.0-6.0-4.0"}}, {"uniqueid": "w69034335:a13387308", "current_trial": 52, "dateTime": 1693482229485, "trialdata": {"rt": 20105, "response": {"Q0": "No", "Q1": "No", "Q2": ""}, "trial_type": "survey-text", "trial_index": 52, "time_elapsed": 1223379, "internal_node_id": "0.0-6.0-5.0"}}, {"uniqueid": "w69034335:a13387308", "current_trial": 53, "dateTime": 1693482251404, "trialdata": {"rt": 21916, "stimulus": "<h1>Completion Code Instructions (1/2)</h1>\n<br><br><br><br>\nYou have reached the end of the experiment! The completion code consists of two parts: (1) a code with 2 characters (2) a code with 6 characters. On this page, you will receive the second part of the code. The first part of the completion code will be on the next page.\n<br><br>\nThe second part of your completion code is: <b>EWEK22</b>\n<br><br>\nPlease note this down. Then, press 'Finish HIT' in order to find the first part of your completion code. Once the data has been saved, you will receive this code either in this window or in the original browser window where you started the experiment.\n", "response": 0, "trial_type": "html-button-response", "trial_index": 53, "time_elapsed": 1245298, "internal_node_id": "0.0-6.0-6.0"}}, {"uniqueid": "w69034335:a13387308", "current_trial": 54, "dateTime": 1693482252406, "trialdata": {"success": true, "trial_type": "fullscreen", "trial_index": 54, "time_elapsed": 1246300, "internal_node_id": "0.0-7.0"}}], "questiondata": {"params": {"CODE": "C6DMOQA6", "MIN_TIME": 14, "inspectCost": 1, "startTime": "Thu Aug 31 2023 12:23:25 GMT+0100 (British Summer Time)", "bonusRate": 0.002, "variance": "1_2_4_8_44", "branching": "31123"}, "final_score": 2233.2}, "eventdata": [{"eventtype": "initialized", "value": null, "timestamp": 1693481005028, "interval": 0}, {"eventtype": "window_resize", "value": [1028, 778], "timestamp": 1693481005028, "interval": 0}, {"eventtype": "window_resize", "value": [1028, 778], "timestamp": 1693481005342, "interval": 314}, {"eventtype": "window_resize", "value": [2048, 1152], "timestamp": 1693481011633, "interval": 6291}, {"eventtype": "window_resize", "value": [1028, 778], "timestamp": 1693482251664, "interval": 1240031}], "useragent": "Mozilla/5.0 (Windows NT 10.0; Win64; x64) AppleWebKit/537.36 (KHTML, like Gecko) Chrome/116.0.0.0 Safari/537.36", "mode": "live", "id": "w69034335:a13387308", "status": "user data saved", "Beginhit": "2023-08-31 11:23:24.519157", "Beginexp": "2023-08-31 11:23:33.031104", "Endhit": "2023-08-31 11:44:13.363786", "psiturkStatus": 3, "browser": "<redacted>", "platform": "windows", "language": "es-ES"}