{"condition": 0, "counterbalance": 0, "assignmentId": "a39188721", "workerId": "w83297128", "hitId": "h42932821", "currenttrial": 55, "bonus": 0, "data": [{"uniqueid": "w83297128:a39188721", "current_trial": 0, "dateTime": 1691162714750, "trialdata": {"success": true, "trial_type": "fullscreen", "trial_index": 0, "time_elapsed": 3237, "internal_node_id": "0.0-0.0"}}, {"uniqueid": "w83297128:a39188721", "current_trial": 1, "dateTime": 1691162723798, "trialdata": {"view_history": [{"page_index": 0, "viewing_time": 9032}], "rt": 9032, "trial_id": "exp_instructions_control", "trial_type": "instructions", "trial_index": 1, "time_elapsed": 12286, "internal_node_id": "0.0-1.0"}}, {"uniqueid": "w83297128:a39188721", "current_trial": 2, "dateTime": 1691162726694, "trialdata": {"success": true, "trial_type": "fullscreen", "trial_index": 2, "time_elapsed": 15181, "internal_node_id": "0.0-2.0-0.0"}}, {"uniqueid": "w83297128:a39188721", "current_trial": 3, "dateTime": 1691162898783, "trialdata": {"view_history": [{"page_index": 0, "viewing_time": 45699}, {"page_index": 1, "viewing_time": 71488}, {"page_index": 2, "viewing_time": 23440}, {"page_index": 3, "viewing_time": 31456}], "rt": 172083, "trial_id": "mouselab_instructions_1_control", "trial_type": "instructions", "trial_index": 3, "time_elapsed": 187271, "internal_node_id": "0.0-2.0-1.0"}}, {"uniqueid": "w83297128:a39188721", "current_trial": 4, "dateTime": 1691162925880, "trialdata": {"revealed_states": [], "clicked_states": ["23", "12", "1"], "num_clicks_accrued": [0, 0, 0, 0, 0, 0, 0, 0, 0, 0, 0, 0, 0], "stateRewards": ["", 10, -10, -10, 10, -10, 10, 10, 10, -10, 10, 10, 10, -10, -10, 10, -10, 10, 10, 10, -10, 10, -10, -10, 10, 10, -10, -10, 10, 10, -10, 10, -10, -10], "withholdReward": false, "trial_id": "practice_1", "block": "test", "trialIndex": 0, "score": -8, "costs": -1.5, "simulationMode": [null, null, null, null, null], "rewards": [10, -10, -10, 10, -10], "path": ["0", "0", "1", "2", "3", "4", "5"], "rt": [10718, 387, 4046, 498, 1056], "actions": ["up", "up", "up", "right", "up"], "actionTimes": [12967, 13879, 18452, 19473, 21064], "queries": {"click": {"state": {"target": ["23", "12", "1"], "time": [4143, 6750, 7840]}, "edge": {"target": [], "time": []}}, "mouseover": {"state": {"target": ["23", "24", "23", "24", "24", "13", "12", "1"], "time": [2742, 3157, 3406, 4573, 5558, 6107, 6325, 7271]}, "edge": {"target": [], "time": []}}, "mouseout": {"state": {"target": ["0", "23", "24", "23", "24", "23", "24", "23", "13", "12", "1", "1", "1", "1", "1", "0"], "time": [1671, 2941, 3357, 4522, 5223, 5541, 6026, 6056, 6222, 7238, 8822, 9573, 10505, 12021, 23946, 24971]}, "edge": {"target": [], "time": []}}}, "displayed_time": "21.56", "trialTime": 26475, "trial_type": "mouselab-mdp", "trial_index": 4, "time_elapsed": 214367, "internal_node_id": "0.0-2.0-2.0-0.0"}}, {"uniqueid": "w83297128:a39188721", "current_trial": 5, "dateTime": 1691162977962, "trialdata": {"revealed_states": [], "clicked_states": ["23", "24", "1", "12", "2", "7", "3", "13", "14", "15", "17"], "num_clicks_accrued": [0, 0, 0, 0, 0, 0, 0, 0, 0, 0, 0, 0, 0], "stateRewards": ["", 10, -10, -10, 10, 10, -10, -10, 10, -10, 10, 10, -10, 10, -10, -10, 10, -10, -10, 10, 10, 10, -10, -10, -10, 10, -10, 10, 10, -10, -10, 10, 10, 10], "withholdReward": false, "trial_id": "practice_2", "block": "test", "trialIndex": 1, "score": -12, "costs": -5.5, "simulationMode": [null, null, null, null, null], "rewards": [-10, -10, 10, -10, 10], "path": ["0", "0", "23", "24", "25", "26", "27"], "rt": [34445, 878, 2880, 1033, 677], "actions": ["left", "left", "left", "up", "up"], "actionTimes": [38483, 39892, 43292, 44830, 46004], "queries": {"click": {"state": {"target": ["23", "24", "1", "12", "2", "7", "3", "13", "14", "15", "17"], "time": [5865, 7604, 9120, 11311, 13912, 16304, 18050, 28806, 30687, 32656, 34410]}, "edge": {"target": [], "time": []}}, "mouseover": {"state": {"target": ["2", "1", "23", "24", "24", "1", "12", "1", "2", "7", "3", "10", "8", "10", "1", "12", "12", "0", "23", "24", "23", "0", "12", "13", "14", "15", "17", "23", "23", "0"], "time": [4682, 4865, 5383, 6565, 6684, 8830, 10135, 13365, 13597, 15581, 17614, 19730, 19863, 20316, 20379, 21129, 21397, 27129, 27213, 27646, 27920, 27946, 27995, 28482, 29695, 32211, 33945, 35445, 37927, 38183]}, "edge": {"target": [], "time": []}}, "mouseout": {"state": {"target": ["0", "2", "1", "23", "24", "24", "23", "1", "12", "12", "1", "1", "2", "7", "2", "3", "10", "8", "10", "1", "12", "12", "0", "23", "24", "23", "0", "12", "13", "14", "15", "17", "23", "23", "0", "23"], "time": [4566, 4832, 5116, 6548, 6599, 8619, 8663, 9783, 12577, 12849, 12931, 13497, 15481, 17363, 17513, 18912, 19797, 20296, 20335, 20397, 21230, 26879, 27146, 27546, 27902, 27933, 27961, 28127, 29647, 32080, 33895, 35327, 37761, 38144, 38511, 38895]}, "edge": {"target": [], "time": []}}}, "displayed_time": "46.54", "trialTime": 51671, "trial_type": "mouselab-mdp", "trial_index": 5, "time_elapsed": 266449, "internal_node_id": "0.0-2.0-2.0-1.0"}}, {"uniqueid": "w83297128:a39188721", "current_trial": 6, "dateTime": 1691163011758, "trialdata": {"view_history": [{"page_index": 0, "viewing_time": 27967}, {"page_index": 1, "viewing_time": 5824}], "rt": 33791, "trial_id": "mouselab_instructions_2_control", "trial_type": "instructions", "trial_index": 6, "time_elapsed": 300246, "internal_node_id": "0.0-2.0-3.0"}}, {"uniqueid": "w83297128:a39188721", "current_trial": 7, "dateTime": 1691163039612, "trialdata": {"rt": 27851, "response": {"Q0": "The cost for clicking on nodes may vary between nodes.", "Q1": "The better I perform the higher my bonus will be.", "Q2": "No, the amount of cash at each node of the web may be different each time.", "Q3": "To get the highest total score.", "Q4": "Only before moving the spider.", "Q5": "3 seconds"}, "question_order": [0, 1, 2, 3, 4, 5], "correct": {"Q0": "The cost for clicking on nodes may vary between nodes.", "Q1": "The better I perform the higher my bonus will be.", "Q2": "No, the amount of cash at each node of the web may be different each time.", "Q3": "To get the highest total score.", "Q4": "Only before moving the spider.", "Q5": "3 seconds"}, "trial_id": "mouselab_quiz_control", "trial_type": "survey-multi-choice", "trial_index": 7, "time_elapsed": 328100, "internal_node_id": "0.0-2.0-4.0"}}, {"uniqueid": "w83297128:a39188721", "current_trial": 8, "dateTime": 1691163049358, "trialdata": {"rt": 9736, "stimulus": "\n<h1> Get ready to start the game! </h1>\n\nThank you for reading the instructions. Get ready start with the 40 rounds of this game.\n<br><br>\nIf you need to take a break, feel free to take one after the end of a round, before continuing to the next one.\n<br><br>\nRemember, the more money the spider gets, the bigger your bonus will be!\n<br><br>\n<div style='text-align: center;'>Press <code>space</code> to begin.</div>\n\n<br><br>\n(If, at any point, the <code>space</code> key does not take you to the next page, click once on the text and try again.)", "response": " ", "trial_id": "mdp_ready", "trial_type": "html-keyboard-response", "trial_index": 8, "time_elapsed": 337846, "internal_node_id": "0.0-4.0-0.0"}}, {"uniqueid": "w83297128:a39188721", "current_trial": 9, "dateTime": 1691163092349, "trialdata": {"revealed_states": [], "clicked_states": ["1", "2", "12", "13", "14", "15", "16", "17", "18"], "num_clicks_accrued": [0, 0, 0, 0, 0, 0, 0, 0, 0, 0, 0, 0, 0], "stateRewards": ["", -2, 3, 3, -14, 62, 36, 49, 16, 11, 17, -84, 2, -1, 6, 2, -82, -73, 49, -6, -87, 48, 50, -1, -2, -1, -16, -11, 37, -44, 4, 55, 73, -10], "withholdReward": false, "trial_id": "mdp_trial_1", "block": "test", "trialIndex": 2, "score": 45.4, "costs": -12.600000000000001, "simulationMode": [null, null, null, null, null], "rewards": [2, -1, 6, 2, 49], "path": ["0", "0", "12", "13", "14", "15", "18"], "rt": [29371, 1268, 374, 1020, 1016], "actions": ["right", "right", "right", "up", "left"], "actionTimes": [31894, 33695, 34585, 36131, 37657], "queries": {"click": {"state": {"target": ["1", "2", "12", "13", "14", "15", "16", "17", "18"], "time": [3249, 5824, 9223, 11728, 15316, 17684, 22156, 25507, 27989]}, "edge": {"target": [], "time": []}}, "mouseover": {"state": {"target": ["1", "2", "7", "1", "12", "12", "13", "12", "14", "15", "17", "16", "17", "15", "18", "13", "13"], "time": [2927, 4093, 6125, 8410, 8676, 8965, 11438, 14593, 15011, 16958, 19491, 22006, 25123, 27642, 27676, 30981, 31824]}, "edge": {"target": [], "time": []}}, "mouseout": {"state": {"target": ["10", "8", "11", "19", "19", "22", "23", "0", "1", "2", "7", "1", "12", "12", "13", "13", "12", "13", "14", "15", "17", "15", "16", "17", "17", "15", "18", "13", "13", "14", "13", "0", "23", "24", "30", "31", "32", "26", "3"], "time": [76, 386, 410, 709, 1027, 1060, 1744, 2828, 3878, 5950, 7877, 8543, 8859, 11193, 13525, 14558, 14646, 14725, 16008, 17778, 20609, 21858, 23156, 26306, 27626, 27661, 30656, 31044, 31956, 39556, 39605, 39722, 39788, 39871, 40205, 40306, 41939, 42204, 42507]}, "edge": {"target": [], "time": []}}}, "displayed_time": "38.18", "trialTime": 42540, "trial_type": "mouselab-mdp", "trial_index": 9, "time_elapsed": 380836, "internal_node_id": "0.0-4.0-1.0-0.0"}}, {"uniqueid": "w83297128:a39188721", "current_trial": 10, "dateTime": 1691163124476, "trialdata": {"revealed_states": [], "clicked_states": ["23", "1", "2", "3", "4", "6", "5"], "num_clicks_accrued": [0, 0, 0, 0, 0, 0, 0, 0, 0, 0, 0, 0, 0], "stateRewards": ["", 1, 2, -3, -5, 66, -50, -47, -5, 1, 28, -27, 1, 1, -1, -6, 37, -25, 56, 1, -82, -66, -40, -1, -4, -7, 15, -61, -23, 26, 10, 14, -56, 29], "withholdReward": false, "trial_id": "mdp_trial_2", "block": "test", "trialIndex": 3, "score": 51.2, "costs": -9.8, "simulationMode": [null, null, null, null, null], "rewards": [1, 2, -3, -5, 66], "path": ["0", "0", "1", "2", "3", "4", "5"], "rt": [20508, 130, 174, 688, 1341], "actions": ["up", "up", "up", "right", "up"], "actionTimes": [21964, 22622, 23307, 24507, 26375], "queries": {"click": {"state": {"target": ["23", "1", "2", "3", "4", "6", "5"], "time": [2355, 4532, 7419, 9842, 13619, 15699, 17938]}, "edge": {"target": [], "time": []}}, "mouseover": {"state": {"target": ["23", "23", "1", "12", "2", "3", "3", "10", "10", "4", "6", "5", "2", "1"], "time": [1852, 2117, 3282, 5300, 7099, 9181, 9615, 12367, 12499, 12998, 14347, 17616, 20648, 21696]}, "edge": {"target": [], "time": []}}, "mouseout": {"state": {"target": ["23", "0", "23", "23", "1", "12", "2", "3", "3", "3", "3", "10", "10", "3", "4", "6", "4", "5", "5", "2", "1", "0", "23"], "time": [499, 1818, 2001, 3049, 5249, 6750, 9130, 9216, 11599, 12149, 12315, 12416, 12615, 12952, 14330, 16397, 17514, 18074, 19529, 20714, 22015, 27681, 27797]}, "edge": {"target": [], "time": []}}}, "displayed_time": "26.89", "trialTime": 31706, "trial_type": "mouselab-mdp", "trial_index": 10, "time_elapsed": 412963, "internal_node_id": "0.0-4.0-1.0-1.0"}}, {"uniqueid": "w83297128:a39188721", "current_trial": 11, "dateTime": 1691163160961, "trialdata": {"revealed_states": [], "clicked_states": ["23", "24", "25", "26", "28", "27", "29", "30", "32", "31"], "num_clicks_accrued": [0, 0, 0, 0, 0, 0, 0, 0, 0, 0, 0, 0, 0], "stateRewards": ["", 2, 4, 4, -8, -36, -33, 38, 16, -51, 57, 57, 1, 3, 4, -6, 45, 68, 87, 1, 63, 24, -55, -2, 2, -6, -13, -63, -50, 8, 2, 80, 6, 60], "withholdReward": false, "trial_id": "mdp_trial_3", "block": "test", "trialIndex": 4, "score": 62, "costs": -14.000000000000002, "simulationMode": [null, null, null, null, null], "rewards": [-2, 2, -6, 2, 80], "path": ["0", "0", "23", "24", "25", "30", "31"], "rt": [27348, 251, 415, 865, 956], "actions": ["left", "left", "left", "down", "right"], "actionTimes": [28832, 29576, 30523, 31906, 33379], "queries": {"click": {"state": {"target": ["23", "24", "25", "26", "28", "27", "29", "30", "32", "31"], "time": [2750, 5024, 7997, 10567, 12782, 14861, 16960, 19933, 22095, 24408]}, "edge": {"target": [], "time": []}}, "mouseover": {"state": {"target": ["1", "3", "2", "1", "0", "23", "24", "28", "25", "26", "28", "27", "29", "25", "30", "32", "31", "30", "33"], "time": [1664, 2082, 2115, 2150, 2351, 2499, 3613, 7197, 7713, 10231, 11781, 14245, 15512, 19279, 19345, 20748, 24076, 25081, 25130]}, "edge": {"target": [], "time": []}}, "mouseout": {"state": {"target": ["0", "1", "3", "2", "1", "0", "23", "23", "24", "24", "28", "25", "26", "26", "28", "27", "29", "25", "30", "32", "31", "30", "33", "24", "24"], "time": [1580, 1748, 2099, 2147, 2180, 2450, 2837, 3348, 5670, 7147, 7597, 10164, 10580, 11748, 14082, 15329, 19196, 19297, 20694, 23843, 25077, 25113, 27407, 29906, 30775]}, "edge": {"target": [], "time": []}}}, "displayed_time": "33.89", "trialTime": 36010, "trial_type": "mouselab-mdp", "trial_index": 11, "time_elapsed": 449447, "internal_node_id": "0.0-4.0-1.0-2.0"}}, {"uniqueid": "w83297128:a39188721", "current_trial": 12, "dateTime": 1691163181651, "trialdata": {"revealed_states": [], "clicked_states": ["12", "13", "14", "19", "21"], "num_clicks_accrued": [0, 0, 0, 0, 0, 0, 0, 0, 0, 0, 0, 0, 0], "stateRewards": ["", 2, -1, 8, -2, -16, 69, -39, -7, -13, -27, -86, 2, -2, 2, 13, -34, -16, -20, -5, 19, 81, 32, -2, -1, 2, -14, 20, 80, 58, 4, 70, 12, 73], "withholdReward": false, "trial_id": "mdp_trial_4", "block": "test", "trialIndex": 5, "score": 71, "costs": -7, "simulationMode": [null, null, null, null, null], "rewards": [2, -2, 2, -5, 81], "path": ["0", "0", "12", "13", "14", "19", "21"], "rt": [12787, 159, 341, 731, 407], "actions": ["right", "right", "right", "down", "down"], "actionTimes": [14203, 14875, 15728, 16967, 17890], "queries": {"click": {"state": {"target": ["12", "13", "14", "19", "21"], "time": [2579, 4580, 6638, 8633, 10811]}, "edge": {"target": [], "time": []}}, "mouseover": {"state": {"target": ["23", "0", "1", "0", "12", "13", "14", "19", "21", "22"], "time": [1439, 1699, 1866, 2167, 2333, 3183, 5598, 7765, 9932, 11518]}, "edge": {"target": [], "time": []}}, "mouseout": {"state": {"target": ["23", "0", "0", "23", "0", "1", "0", "12", "13", "14", "19", "21", "22"], "time": [583, 648, 1436, 1615, 1800, 2116, 2184, 3066, 5565, 7714, 9697, 11281, 19231]}, "edge": {"target": [], "time": []}}}, "displayed_time": "18.40", "trialTime": 20278, "trial_type": "mouselab-mdp", "trial_index": 12, "time_elapsed": 470138, "internal_node_id": "0.0-4.0-1.0-3.0"}}, {"uniqueid": "w83297128:a39188721", "current_trial": 13, "dateTime": 1691163236954, "trialdata": {"revealed_states": [], "clicked_states": ["9", "11", "10", "7", "6", "5", "16", "18", "17", "22", "21", "20", "28", "27", "29", "33", "32", "31"], "num_clicks_accrued": [0, 0, 0, 0, 0, 0, 0, 0, 0, 0, 0, 0, 0], "stateRewards": ["", 1, 1, -5, 8, -6, 45, 16, -6, -7, -22, -38, -1, -4, 8, -11, -16, 21, -45, -15, -59, -32, 42, -1, 3, 6, 11, -7, 34, -27, -8, 85, 43, -9], "withholdReward": false, "trial_id": "mdp_trial_5", "block": "test", "trialIndex": 6, "score": 59.80000000000001, "costs": -25.199999999999992, "simulationMode": [null, null, null, null, null], "rewards": [-1, 3, 6, -8, 85], "path": ["0", "0", "23", "24", "25", "30", "31"], "rt": [46087, 193, 333, 883, 831], "actions": ["left", "left", "left", "down", "right"], "actionTimes": [48451, 49185, 50035, 51419, 52750], "queries": {"click": {"state": {"target": ["9", "11", "10", "7", "6", "5", "16", "18", "17", "22", "21", "20", "28", "27", "29", "33", "32", "31"], "time": [5004, 7734, 9706, 11654, 13760, 15912, 19115, 21101, 23053, 26348, 28412, 30536, 34263, 36320, 38256, 40240, 42163, 44448]}, "edge": {"target": [], "time": []}}, "mouseover": {"state": {"target": ["0", "31", "31", "23", "1", "2", "3", "8", "9", "9", "11", "10", "2", "7", "6", "5", "5", "16", "18", "13", "14", "15", "17", "14", "19", "22", "21", "20", "19", "22", "31", "24", "23", "28", "27", "29", "29", "33", "32", "31", "23", "23"], "time": [2380, 2787, 3019, 3187, 3788, 3853, 4087, 4170, 4221, 4537, 5919, 8385, 10803, 10884, 12321, 14284, 14534, 18786, 19684, 21867, 22350, 22425, 22649, 24433, 25534, 26100, 27000, 28949, 31918, 32319, 32703, 32770, 33103, 33737, 34518, 36718, 37069, 39020, 40702, 42735, 46766, 47166]}, "edge": {"target": [], "time": []}}, "mouseout": {"state": {"target": ["31", "0", "0", "31", "31", "23", "1", "2", "3", "8", "9", "9", "11", "10", "2", "7", "6", "5", "5", "6", "16", "18", "13", "14", "15", "17", "14", "19", "22", "21", "20", "19", "22", "31", "24", "23", "28", "27", "29", "29", "33", "32", "31", "23", "23"], "time": [469, 1120, 2636, 2853, 3053, 3739, 3820, 4036, 4121, 4204, 4253, 5604, 8169, 10770, 10836, 12218, 14234, 14318, 18120, 18169, 19650, 21801, 22316, 22367, 22483, 24066, 25451, 26051, 26950, 28882, 31853, 32151, 32370, 32720, 33015, 33336, 34436, 36669, 36735, 38719, 40618, 42686, 46673, 46783, 48400]}, "edge": {"target": [], "time": []}}}, "displayed_time": "53.27", "trialTime": 54856, "trial_type": "mouselab-mdp", "trial_index": 13, "time_elapsed": 525442, "internal_node_id": "0.0-4.0-1.0-4.0"}}, {"uniqueid": "w83297128:a39188721", "current_trial": 14, "dateTime": 1691163256648, "trialdata": {"revealed_states": [], "clicked_states": ["9", "11", "10"], "num_clicks_accrued": [0, 0, 0, 0, 0, 0, 0, 0, 0, 0, 0, 0, 0], "stateRewards": ["", -2, 2, -1, -6, 22, 6, 6, -5, 70, -42, 65, 1, 3, 5, -6, -67, -9, 3, 14, 7, -62, -13, -2, 4, 1, 16, 42, -21, -52, -8, 32, 53, 81], "withholdReward": false, "trial_id": "mdp_trial_6", "block": "test", "trialIndex": 7, "score": 59.8, "costs": -4.199999999999999, "simulationMode": [null, null, null, null, null], "rewards": [-2, 2, -1, -5, 70], "path": ["0", "0", "1", "2", "3", "8", "9"], "rt": [10725, 71, 199, 555, 883], "actions": ["up", "up", "up", "left", "up"], "actionTimes": [12276, 12860, 13587, 14678, 16058], "queries": {"click": {"state": {"target": ["9", "11", "10"], "time": [4313, 6231, 8765]}, "edge": {"target": [], "time": []}}, "mouseover": {"state": {"target": ["23", "0", "23", "1", "2", "9", "9", "11", "10", "1"], "time": [2304, 2421, 2554, 3538, 3587, 3637, 3837, 5321, 6838, 10871]}, "edge": {"target": [], "time": []}}, "mouseout": {"state": {"target": ["0", "23", "0", "23", "1", "2", "9", "9", "9", "11", "10", "1", "0"], "time": [1104, 2337, 2487, 3504, 3571, 3604, 3654, 4444, 4838, 6621, 9204, 10937, 17235]}, "edge": {"target": [], "time": []}}}, "displayed_time": "16.55", "trialTime": 19237, "trial_type": "mouselab-mdp", "trial_index": 14, "time_elapsed": 545135, "internal_node_id": "0.0-4.0-1.0-5.0"}}, {"uniqueid": "w83297128:a39188721", "current_trial": 15, "dateTime": 1691163281886, "trialdata": {"revealed_states": [], "clicked_states": ["21", "22", "20", "16", "17", "18"], "num_clicks_accrued": [0, 0, 0, 0, 0, 0, 0, 0, 0, 0, 0, 0, 0], "stateRewards": ["", -1, 1, 6, -6, 70, 66, 67, -16, -75, -35, 37, -1, 4, 4, -6, 47, -9, 63, 15, 21, -63, 13, 1, 3, -6, 10, 79, -29, 18, -15, 9, -67, -19], "withholdReward": false, "trial_id": "mdp_trial_7", "block": "test", "trialIndex": 8, "score": 55.6, "costs": -8.4, "simulationMode": [null, null, null, null, null], "rewards": [-1, 4, 4, -6, 63], "path": ["0", "0", "12", "13", "14", "15", "18"], "rt": [15610, 218, 267, 937, 588], "actions": ["right", "right", "right", "up", "left"], "actionTimes": [17641, 18379, 19158, 20614, 21696], "queries": {"click": {"state": {"target": ["21", "22", "20", "16", "17", "18"], "time": [3972, 6021, 8005, 10068, 12056, 13937]}, "edge": {"target": [], "time": []}}, "mouseover": {"state": {"target": ["12", "13", "14", "21", "21", "22", "19", "20", "17", "16", "17", "15", "18", "6", "16", "17"], "time": [3049, 3198, 3249, 3564, 3721, 4713, 6878, 7151, 8813, 8913, 10479, 12428, 12595, 14846, 17093, 17126]}, "edge": {"target": [], "time": []}}, "mouseout": {"state": {"target": ["23", "0", "0", "12", "13", "14", "21", "21", "22", "19", "20", "17", "16", "17", "15", "18", "6", "16", "17", "19", "32"], "time": [1037, 1395, 2848, 3180, 3230, 3298, 3614, 4396, 6851, 6947, 8628, 8829, 10395, 12411, 12562, 14762, 16708, 17109, 17148, 22872, 24640]}, "edge": {"target": [], "time": []}}}, "displayed_time": "22.21", "trialTime": 24722, "trial_type": "mouselab-mdp", "trial_index": 15, "time_elapsed": 570374, "internal_node_id": "0.0-4.0-1.0-6.0"}}, {"uniqueid": "w83297128:a39188721", "current_trial": 16, "dateTime": 1691163324368, "trialdata": {"revealed_states": [], "clicked_states": ["21", "22", "20", "17", "16", "18", "5", "6", "7", "10", "11", "9"], "num_clicks_accrued": [0, 0, 0, 0, 0, 0, 0, 0, 0, 0, 0, 0, 0], "stateRewards": ["", -1, 4, -5, 9, 29, -75, -42, -16, 24, -28, -41, 2, -3, 1, 10, 60, 47, 55, -1, -53, 22, -40, 2, -3, -6, 4, -26, 44, 54, 15, -76, 42, 14], "withholdReward": false, "trial_id": "mdp_trial_8", "block": "test", "trialIndex": 9, "score": 53.2, "costs": -16.8, "simulationMode": [null, null, null, null, null], "rewards": [2, -3, 1, 10, 60], "path": ["0", "0", "12", "13", "14", "15", "16"], "rt": [29804, 143, 233, 565, 409], "actions": ["right", "right", "right", "up", "up"], "actionTimes": [31105, 31754, 32493, 33579, 34502], "queries": {"click": {"state": {"target": ["21", "22", "20", "17", "16", "18", "5", "6", "7", "10", "11", "9"], "time": [3513, 5586, 7640, 10017, 11910, 14075, 16793, 18807, 20929, 23338, 25595, 27666]}, "edge": {"target": [], "time": []}}, "mouseover": {"state": {"target": ["12", "13", "19", "21", "22", "19", "20", "17", "17", "16", "16", "18", "3", "5", "6", "7", "2", "10", "10", "11", "9", "8", "2"], "time": [2289, 2897, 3064, 3264, 4213, 5978, 6128, 8263, 9811, 10311, 10561, 12645, 16195, 16494, 17294, 19226, 21876, 21943, 22927, 23910, 26292, 29944, 29992]}, "edge": {"target": [], "time": []}}, "mouseout": {"state": {"target": ["9", "11", "28", "24", "23", "0", "12", "13", "19", "21", "22", "19", "20", "17", "17", "16", "16", "18", "3", "5", "6", "7", "2", "10", "10", "11", "9", "8", "2"], "time": [311, 344, 430, 464, 646, 2165, 2880, 2930, 3097, 3961, 5962, 6012, 8079, 8544, 10212, 10344, 12344, 15778, 16378, 17160, 19093, 21826, 21926, 21959, 23743, 26098, 29926, 29960, 30009]}, "edge": {"target": [], "time": []}}}, "displayed_time": "35.01", "trialTime": 42061, "trial_type": "mouselab-mdp", "trial_index": 16, "time_elapsed": 612855, "internal_node_id": "0.0-4.0-1.0-7.0"}}, {"uniqueid": "w83297128:a39188721", "current_trial": 17, "dateTime": 1691163343739, "trialdata": {"revealed_states": [], "clicked_states": ["32", "33", "31"], "num_clicks_accrued": [0, 0, 0, 0, 0, 0, 0, 0, 0, 0, 0, 0, 0], "stateRewards": ["", 1, 1, 6, -14, -40, 37, 16, -13, 33, -68, 49, 2, 4, 3, 6, 55, 27, 32, 10, -65, 20, -87, 2, 1, -6, -5, -42, 12, 29, -8, 16, 76, -33], "withholdReward": false, "trial_id": "mdp_trial_9", "block": "test", "trialIndex": 10, "score": 60.8, "costs": -4.199999999999999, "simulationMode": [null, null, null, null, null], "rewards": [2, 1, -6, -8, 76], "path": ["0", "0", "23", "24", "25", "30", "32"], "rt": [10121, 893, 334, 623, 398], "actions": ["left", "left", "left", "down", "down"], "actionTimes": [12345, 13737, 14573, 15712, 16621], "queries": {"click": {"state": {"target": ["32", "33", "31"], "time": [3654, 5590, 8670]}, "edge": {"target": [], "time": []}}, "mouseover": {"state": {"target": ["23", "24", "30", "32", "32", "33", "30", "31", "31"], "time": [2853, 2921, 3019, 3169, 3469, 3973, 7076, 7186, 8013]}, "edge": {"target": [], "time": []}}, "mouseout": {"state": {"target": ["19", "14", "13", "12", "0", "23", "24", "30", "32", "32", "33", "30", "31", "31"], "time": [1069, 1153, 1219, 1252, 2820, 2904, 2969, 3035, 3253, 3870, 7059, 7135, 7268, 11605]}, "edge": {"target": [], "time": []}}}, "displayed_time": "17.14", "trialTime": 18828, "trial_type": "mouselab-mdp", "trial_index": 17, "time_elapsed": 632227, "internal_node_id": "0.0-4.0-1.0-8.0"}}, {"uniqueid": "w83297128:a39188721", "current_trial": 18, "dateTime": 1691163364877, "trialdata": {"revealed_states": [], "clicked_states": ["5", "6", "7"], "num_clicks_accrued": [0, 0, 0, 0, 0, 0, 0, 0, 0, 0, 0, 0, 0], "stateRewards": ["", -1, 3, -4, -14, 78, 67, 2, 13, -32, 28, 39, -2, 1, -4, -4, -4, -42, -86, 11, 64, -29, -32, -1, -4, 2, -7, 5, 68, -61, 2, -21, 85, 50], "withholdReward": false, "trial_id": "mdp_trial_10", "block": "test", "trialIndex": 11, "score": 57.8, "costs": -4.199999999999999, "simulationMode": [null, null, null, null, null], "rewards": [-1, 3, -4, -14, 78], "path": ["0", "0", "1", "2", "3", "4", "5"], "rt": [11389, 197, 202, 539, 874], "actions": ["up", "up", "up", "right", "up"], "actionTimes": [13507, 14221, 14945, 15980, 17365], "queries": {"click": {"state": {"target": ["5", "6", "7"], "time": [3911, 6757, 9594]}, "edge": {"target": [], "time": []}}, "mouseover": {"state": {"target": ["0", "1", "2", "2", "1", "2", "4", "5", "6", "7", "2", "1", "7", "7", "6"], "time": [2149, 2307, 2341, 2558, 2641, 3224, 3441, 3675, 4624, 7523, 7558, 8006, 9021, 9339, 13454]}, "edge": {"target": [], "time": []}}, "mouseout": {"state": {"target": ["0", "0", "1", "2", "2", "1", "2", "4", "5", "6", "7", "2", "1", "7", "7", "6", "7", "32"], "time": [1372, 2261, 2324, 2390, 2607, 3207, 3258, 3557, 4374, 7456, 7541, 7589, 8989, 9055, 12390, 18227, 18707, 18878]}, "edge": {"target": [], "time": []}}}, "displayed_time": "17.88", "trialTime": 20640, "trial_type": "mouselab-mdp", "trial_index": 18, "time_elapsed": 653364, "internal_node_id": "0.0-4.0-1.0-9.0"}}, {"uniqueid": "w83297128:a39188721", "current_trial": 19, "dateTime": 1691163405347, "trialdata": {"revealed_states": [], "clicked_states": ["9", "11", "10", "7", "6", "5", "16", "17", "18", "20", "21", "22"], "num_clicks_accrued": [0, 0, 0, 0, 0, 0, 0, 0, 0, 0, 0, 0, 0], "stateRewards": ["", 1, -4, -4, 8, 1, -79, 68, -10, -79, 8, -74, -1, -3, -6, 14, 43, 23, 9, 5, -51, 63, 61, -2, 4, 6, -10, 69, -32, 57, 15, -80, -80, -77], "withholdReward": false, "trial_id": "mdp_trial_11", "block": "test", "trialIndex": 12, "score": 41.2, "costs": -16.8, "simulationMode": [null, null, null, null, null], "rewards": [-1, -3, -6, 5, 63], "path": ["0", "0", "12", "13", "14", "19", "21"], "rt": [31504, 54, 332, 757, 355], "actions": ["right", "right", "right", "down", "down"], "actionTimes": [33899, 34463, 35325, 36603, 37481], "queries": {"click": {"state": {"target": ["9", "11", "10", "7", "6", "5", "16", "17", "18", "20", "21", "22"], "time": [4867, 6831, 8818, 10791, 12790, 14884, 17763, 19667, 21704, 23923, 25916, 29591]}, "edge": {"target": [], "time": []}}, "mouseover": {"state": {"target": ["9", "9", "11", "10", "2", "7", "7", "6", "6", "5", "16", "17", "18", "13", "19", "20", "21", "22", "21"], "time": [4246, 4488, 5353, 7220, 9769, 9802, 10104, 11202, 11436, 13237, 17505, 18168, 20735, 22919, 23001, 23225, 24485, 26368, 32490]}, "edge": {"target": [], "time": []}}, "mouseout": {"state": {"target": ["32", "31", "0", "0", "9", "9", "11", "10", "2", "7", "7", "6", "6", "5", "6", "16", "17", "18", "13", "19", "20", "21", "22", "21"], "time": [1020, 1187, 1520, 3055, 4304, 5136, 7169, 9736, 9785, 9819, 11169, 11219, 13169, 16406, 17136, 18118, 20502, 22885, 22935, 23034, 24417, 26303, 31939, 38841]}, "edge": {"target": [], "time": []}}}, "displayed_time": "37.99", "trialTime": 40010, "trial_type": "mouselab-mdp", "trial_index": 19, "time_elapsed": 693834, "internal_node_id": "0.0-4.0-1.0-10.0"}}, {"uniqueid": "w83297128:a39188721", "current_trial": 20, "dateTime": 1691163457443, "trialdata": {"revealed_states": [], "clicked_states": ["32", "31", "33", "29", "27", "28", "9", "11", "10", "7", "6", "5", "18", "16", "17", "22", "21", "20"], "num_clicks_accrued": [0, 0, 0, 0, 0, 0, 0, 0, 0, 0, 0, 0, 0], "stateRewards": ["", 2, 4, -3, 16, -58, 30, -35, 11, -60, 47, 27, -2, -1, -7, -16, 23, -70, 68, -10, -65, -43, -34, -2, 1, 7, 9, -63, 34, -31, -8, -12, -86, 59], "withholdReward": false, "trial_id": "mdp_trial_12", "block": "test", "trialIndex": 13, "score": 16.80000000000001, "costs": -25.199999999999992, "simulationMode": [null, null, null, null, null], "rewards": [-2, -1, -7, -16, 68], "path": ["0", "0", "12", "13", "14", "15", "18"], "rt": [42286, 759, 329, 769, 671], "actions": ["right", "right", "right", "up", "left"], "actionTimes": [44643, 45914, 46771, 48050, 49221], "queries": {"click": {"state": {"target": ["32", "31", "33", "29", "27", "28", "9", "11", "10", "7", "6", "5", "18", "16", "17", "22", "21", "20"], "time": [4389, 6333, 8231, 10167, 12157, 14255, 16886, 18886, 20934, 23404, 25294, 27294, 30404, 32599, 34985, 37694, 39702, 41774]}, "edge": {"target": [], "time": []}}, "mouseover": {"state": {"target": ["31", "31", "32", "31", "30", "33", "29", "29", "27", "28", "10", "8", "9", "11", "10", "2", "7", "6", "6", "5", "4", "15", "13", "18", "18", "16", "17", "17", "14", "22", "21", "20"], "time": [3054, 3671, 3955, 4839, 6689, 6721, 8788, 9121, 10738, 12887, 16188, 16240, 16357, 17436, 19537, 22988, 23070, 23819, 24203, 26070, 29286, 29420, 29717, 29901, 30212, 31353, 33353, 33936, 37202, 37435, 38150, 40201]}, "edge": {"target": [], "time": []}}, "mouseout": {"state": {"target": ["10", "28", "24", "23", "0", "12", "12", "0", "31", "31", "32", "31", "30", "33", "29", "29", "27", "28", "10", "8", "9", "11", "10", "10", "2", "7", "6", "6", "5", "4", "15", "13", "18", "18", "16", "17", "17", "14", "22", "21", "20", "20", "19"], "time": [37, 1121, 1404, 1453, 1505, 1587, 1771, 2372, 3437, 3738, 4639, 6671, 6705, 8705, 8971, 10470, 12588, 16121, 16221, 16306, 17203, 19322, 22703, 22954, 23037, 23752, 23868, 26005, 28552, 29317, 29603, 29885, 29919, 31073, 33268, 33870, 36969, 37334, 38051, 40133, 43385, 50128, 50178]}, "edge": {"target": [], "time": []}}}, "displayed_time": "49.73", "trialTime": 51624, "trial_type": "mouselab-mdp", "trial_index": 20, "time_elapsed": 745930, "internal_node_id": "0.0-4.0-1.0-11.0"}}, {"uniqueid": "w83297128:a39188721", "current_trial": 21, "dateTime": 1691163476262, "trialdata": {"revealed_states": [], "clicked_states": ["33", "32", "31"], "num_clicks_accrued": [0, 0, 0, 0, 0, 0, 0, 0, 0, 0, 0, 0, 0], "stateRewards": ["", -1, 1, 3, -8, -23, -15, -14, -11, -23, 58, 68, 1, 3, 5, 12, -17, -41, -7, -10, -4, 82, 10, 1, 4, -4, 11, 73, 55, -55, -1, -86, -86, 54], "withholdReward": false, "trial_id": "mdp_trial_13", "block": "test", "trialIndex": 14, "score": 49.8, "costs": -4.199999999999999, "simulationMode": [null, null, null, null, null], "rewards": [1, 4, -4, -1, 54], "path": ["0", "0", "23", "24", "25", "30", "33"], "rt": [10279, 492, 305, 520, 595], "actions": ["left", "left", "left", "down", "left"], "actionTimes": [11947, 12969, 13783, 14814, 15927], "queries": {"click": {"state": {"target": ["33", "32", "31"], "time": [3822, 6150, 8718]}, "edge": {"target": [], "time": []}}, "mouseover": {"state": {"target": ["23", "23", "23", "24", "25", "33", "32", "31"], "time": [1726, 2411, 2795, 2996, 3031, 3228, 4125, 7260]}, "edge": {"target": [], "time": []}}, "mouseout": {"state": {"target": ["12", "0", "0", "23", "23", "23", "24", "25", "33", "32", "31"], "time": [792, 892, 1682, 1742, 2445, 2978, 3014, 3044, 4076, 7159, 10708]}, "edge": {"target": [], "time": []}}}, "displayed_time": "16.45", "trialTime": 18375, "trial_type": "mouselab-mdp", "trial_index": 21, "time_elapsed": 764749, "internal_node_id": "0.0-4.0-1.0-12.0"}}, {"uniqueid": "w83297128:a39188721", "current_trial": 22, "dateTime": 1691163495779, "trialdata": {"revealed_states": [], "clicked_states": ["32", "31"], "num_clicks_accrued": [0, 0, 0, 0, 0, 0, 0, 0, 0, 0, 0, 0, 0], "stateRewards": ["", 2, 3, 8, 14, 69, -27, 17, 2, -71, -65, -10, 2, -3, 7, 8, 65, -10, 65, -12, 73, -12, 13, -2, -2, 6, 10, -79, -69, -18, 10, -85, 67, 74], "withholdReward": false, "trial_id": "mdp_trial_14", "block": "test", "trialIndex": 15, "score": 76.2, "costs": -2.8, "simulationMode": [null, null, null, null, null], "rewards": [-2, -2, 6, 10, 67], "path": ["0", "0", "23", "24", "25", "30", "32"], "rt": [7560, 316, 410, 739, 364], "actions": ["left", "left", "left", "down", "down"], "actionTimes": [9162, 9988, 10918, 12179, 13048], "queries": {"click": {"state": {"target": ["32", "31"], "time": [3161, 5542]}, "edge": {"target": [], "time": []}}, "mouseover": {"state": {"target": ["3", "9", "11", "33", "32", "31", "30", "33", "30"], "time": [1631, 1870, 2022, 2588, 2855, 3604, 5887, 6903, 7922]}, "edge": {"target": [], "time": []}}, "mouseout": {"state": {"target": ["12", "1", "24", "31", "0", "3", "9", "11", "33", "32", "31", "30", "33", "30"], "time": [304, 622, 719, 803, 1137, 1742, 1904, 2053, 2623, 3520, 5854, 6137, 7904, 7954]}, "edge": {"target": [], "time": []}}}, "displayed_time": "15.60", "trialTime": 19072, "trial_type": "mouselab-mdp", "trial_index": 22, "time_elapsed": 784266, "internal_node_id": "0.0-4.0-1.0-13.0"}}, {"uniqueid": "w83297128:a39188721", "current_trial": 23, "dateTime": 1691163517001, "trialdata": {"revealed_states": [], "clicked_states": [], "num_clicks_accrued": [0, 0, 0, 0, 0, 0, 0, 0, 0, 0, 0, 0, 0], "stateRewards": ["", 1, 3, 3, -10, 52, 68, 59, 12, 7, 49, 21, -2, -3, -4, -2, -2, 63, 63, -4, 44, 43, -76, -2, -3, -6, 13, 48, 36, 12, -5, -36, -33, -11], "withholdReward": false, "trial_id": "mdp_trial_15", "block": "test", "trialIndex": 16, "score": 50, "costs": 0, "simulationMode": [null, null, null, null, null], "rewards": [-2, -3, -6, 13, 48], "path": ["0", "0", "23", "24", "25", "26", "27"], "rt": [8904, 104, 439, 445, 208], "actions": ["left", "left", "left", "up", "up"], "actionTimes": [11040, 11648, 12584, 13539, 14268], "queries": {"click": {"state": {"target": [], "time": []}, "edge": {"target": [], "time": []}}, "mouseover": {"state": {"target": ["23", "23", "28", "27", "11", "9", "27", "28", "13"], "time": [2864, 3245, 3674, 3993, 4276, 4560, 4910, 5625, 8509]}, "edge": {"target": [], "time": []}}, "mouseout": {"state": {"target": ["0", "23", "23", "28", "27", "11", "9", "27", "28", "13"], "time": [2860, 2893, 3643, 3708, 4209, 4310, 4760, 5541, 8392, 8531]}, "edge": {"target": [], "time": []}}}, "displayed_time": "16.14", "trialTime": 20734, "trial_type": "mouselab-mdp", "trial_index": 23, "time_elapsed": 805487, "internal_node_id": "0.0-4.0-1.0-14.0"}}, {"uniqueid": "w83297128:a39188721", "current_trial": 24, "dateTime": 1691163539675, "trialdata": {"revealed_states": [], "clicked_states": ["27", "28", "29"], "num_clicks_accrued": [0, 0, 0, 0, 0, 0, 0, 0, 0, 0, 0, 0, 0], "stateRewards": ["", 1, 4, -8, -13, -13, -87, -77, -10, -44, 54, 42, 2, -3, -4, 12, -9, -80, 52, 9, 84, -2, -65, 1, -4, -5, -6, 8, 80, 32, 13, -59, -5, -13], "withholdReward": false, "trial_id": "mdp_trial_16", "block": "test", "trialIndex": 17, "score": 61.8, "costs": -4.199999999999999, "simulationMode": [null, null, null, null, null], "rewards": [1, -4, -5, -6, 80], "path": ["0", "0", "23", "24", "25", "26", "28"], "rt": [8935, 223, 296, 470, 384], "actions": ["left", "left", "left", "up", "right"], "actionTimes": [12696, 13440, 14249, 15237, 16134], "queries": {"click": {"state": {"target": ["27", "28", "29"], "time": [5648, 7669, 9739]}, "edge": {"target": [], "time": []}}, "mouseover": {"state": {"target": ["23", "24", "23", "27", "28", "26", "29"], "time": [4433, 4599, 4848, 5414, 6132, 7931, 7964]}, "edge": {"target": [], "time": []}}, "mouseout": {"state": {"target": ["33", "16", "16", "12", "0", "23", "24", "23", "27", "27", "28", "26", "29"], "time": [2131, 2714, 2849, 3098, 4036, 4566, 4699, 5049, 5757, 5899, 7865, 7948, 11748]}, "edge": {"target": [], "time": []}}}, "displayed_time": "17.77", "trialTime": 22051, "trial_type": "mouselab-mdp", "trial_index": 24, "time_elapsed": 828162, "internal_node_id": "0.0-4.0-1.0-15.0"}}, {"uniqueid": "w83297128:a39188721", "current_trial": 25, "dateTime": 1691163566260, "trialdata": {"revealed_states": [], "clicked_states": ["16", "18", "17", "20", "21", "22"], "num_clicks_accrued": [0, 0, 0, 0, 0, 0, 0, 0, 0, 0, 0, 0, 0], "stateRewards": ["", -1, 2, -7, -12, -62, 12, -13, 5, 77, -71, 83, 1, -4, 7, 15, -42, -87, -4, 5, -25, 44, 88, -1, 4, -5, -8, 14, 51, 8, -5, 83, -24, -19], "withholdReward": false, "trial_id": "mdp_trial_17", "block": "test", "trialIndex": 18, "score": 88.6, "costs": -8.4, "simulationMode": [null, null, null, null, null], "rewards": [1, -4, 7, 5, 88], "path": ["0", "0", "12", "13", "14", "19", "22"], "rt": [16110, 201, 357, 635, 613], "actions": ["right", "right", "right", "down", "left"], "actionTimes": [19691, 20405, 21278, 22425, 23550], "queries": {"click": {"state": {"target": ["16", "18", "17", "20", "21", "22"], "time": [5220, 7525, 9817, 11866, 14228, 16375]}, "edge": {"target": [], "time": []}}, "mouseover": {"state": {"target": ["12", "13", "15", "16", "18", "15", "17", "20", "21", "22"], "time": [4608, 4655, 4738, 5004, 5673, 7922, 8036, 10320, 12171, 14776]}, "edge": {"target": [], "time": []}}, "mouseout": {"state": {"target": ["26", "9", "16", "19", "13", "12", "0", "12", "13", "15", "16", "18", "15", "17", "20", "21", "22", "22"], "time": [1904, 2106, 2554, 2754, 2803, 2820, 4588, 4623, 4672, 4821, 5625, 7852, 8003, 10170, 12137, 14571, 16516, 18136]}, "edge": {"target": [], "time": []}}}, "displayed_time": "24.07", "trialTime": 26210, "trial_type": "mouselab-mdp", "trial_index": 25, "time_elapsed": 854747, "internal_node_id": "0.0-4.0-1.0-16.0"}}, {"uniqueid": "w83297128:a39188721", "current_trial": 26, "dateTime": 1691163586947, "trialdata": {"revealed_states": [], "clicked_states": ["21", "22", "20"], "num_clicks_accrued": [0, 0, 0, 0, 0, 0, 0, 0, 0, 0, 0, 0, 0], "stateRewards": ["", 1, -2, -2, 10, -31, -77, 35, 9, -47, 8, 48, -2, 1, -4, -3, -26, -50, 43, -11, 76, -38, 17, 1, -1, 6, 10, 15, -9, 12, -8, 85, 11, -55], "withholdReward": false, "trial_id": "mdp_trial_18", "block": "test", "trialIndex": 19, "score": 55.8, "costs": -4.199999999999999, "simulationMode": [null, null, null, null, null], "rewards": [-2, 1, -4, -11, 76], "path": ["0", "0", "12", "13", "14", "19", "20"], "rt": [9737, 99, 281, 551, 586], "actions": ["right", "right", "right", "down", "right"], "actionTimes": [13097, 13717, 14518, 15583, 16683], "queries": {"click": {"state": {"target": ["21", "22", "20"], "time": [5684, 7677, 9709]}, "edge": {"target": [], "time": []}}, "mouseover": {"state": {"target": ["19", "21", "22", "22", "19", "20", "17"], "time": [4548, 5214, 5980, 6197, 7996, 8079, 10547]}, "edge": {"target": [], "time": []}}, "mouseout": {"state": {"target": ["31", "24", "23", "0", "19", "21", "22", "22", "19", "20", "17"], "time": [2214, 2447, 2480, 4464, 4714, 5913, 6014, 7980, 8047, 9781, 12346]}, "edge": {"target": [], "time": []}}}, "displayed_time": "17.36", "trialTime": 20095, "trial_type": "mouselab-mdp", "trial_index": 26, "time_elapsed": 875435, "internal_node_id": "0.0-4.0-1.0-17.0"}}, {"uniqueid": "w83297128:a39188721", "current_trial": 27, "dateTime": 1691163606541, "trialdata": {"revealed_states": [], "clicked_states": ["5", "6"], "num_clicks_accrued": [0, 0, 0, 0, 0, 0, 0, 0, 0, 0, 0, 0, 0], "stateRewards": ["", -1, -2, -1, -10, -57, 73, -72, -16, 75, -14, -46, -2, -3, -7, -1, -61, -60, 76, -4, 50, 4, 14, 2, 2, -7, 12, -65, -32, 15, -8, -76, -25, -61], "withholdReward": false, "trial_id": "mdp_trial_19", "block": "test", "trialIndex": 20, "score": 56.2, "costs": -2.8, "simulationMode": [null, null, null, null, null], "rewards": [-1, -2, -1, -10, 73], "path": ["0", "0", "1", "2", "3", "4", "6"], "rt": [7930, 250, 1582, 1544, 314], "actions": ["up", "up", "up", "right", "right"], "actionTimes": [11446, 12210, 14307, 16370, 17205], "queries": {"click": {"state": {"target": ["5", "6"], "time": [4711, 6660]}, "edge": {"target": [], "time": []}}, "mouseover": {"state": {"target": ["12", "12", "4", "5", "6", "7", "1"], "time": [3531, 3891, 4290, 4474, 5456, 7024, 10107]}, "edge": {"target": [], "time": []}}, "mouseout": {"state": {"target": ["32", "12", "12", "4", "5", "5", "6", "6", "7"], "time": [2428, 3579, 3973, 4407, 4832, 5024, 6767, 6973, 10043]}, "edge": {"target": [], "time": []}}}, "displayed_time": "17.73", "trialTime": 19067, "trial_type": "mouselab-mdp", "trial_index": 27, "time_elapsed": 895029, "internal_node_id": "0.0-4.0-1.0-18.0"}}, {"uniqueid": "w83297128:a39188721", "current_trial": 28, "dateTime": 1691163629622, "trialdata": {"revealed_states": [], "clicked_states": ["27", "28", "29"], "num_clicks_accrued": [0, 0, 0, 0, 0, 0, 0, 0, 0, 0, 0, 0, 0], "stateRewards": ["", -2, 2, -2, -7, -50, -62, -45, 7, 36, -24, -72, -1, -1, 8, -1, -67, 20, -52, 2, 35, -50, 80, -1, 1, 6, -6, -70, 6, 88, 8, -47, 74, -19], "withholdReward": false, "trial_id": "mdp_trial_20", "block": "test", "trialIndex": 21, "score": 83.8, "costs": -4.199999999999999, "simulationMode": [null, null, null, null, null], "rewards": [-1, 1, 6, -6, 88], "path": ["0", "0", "23", "24", "25", "26", "29"], "rt": [10134, 204, 291, 780, 2534], "actions": ["left", "left", "left", "up", "left"], "actionTimes": [13662, 14405, 15204, 16492, 19559], "queries": {"click": {"state": {"target": ["27", "28", "29"], "time": [6013, 8236, 10228]}, "edge": {"target": [], "time": []}}, "mouseover": {"state": {"target": ["28", "10", "23", "28", "26", "27", "28", "26", "29", "29", "33", "25", "33"], "time": [4314, 4580, 4698, 5678, 5711, 5812, 6531, 8462, 8512, 8861, 11412, 12529, 12865]}, "edge": {"target": [], "time": []}}, "mouseout": {"state": {"target": ["1", "2", "2", "1", "0", "28", "10", "23", "28", "26", "27", "28", "26", "29", "29", "33", "25", "33"], "time": [2502, 2545, 2612, 2645, 3129, 4430, 4630, 5633, 5694, 5728, 6379, 8445, 8479, 8829, 11045, 12396, 12845, 12886]}, "edge": {"target": [], "time": []}}}, "displayed_time": "20.08", "trialTime": 22570, "trial_type": "mouselab-mdp", "trial_index": 28, "time_elapsed": 918109, "internal_node_id": "0.0-4.0-1.0-19.0"}}, {"uniqueid": "w83297128:a39188721", "current_trial": 29, "dateTime": 1691163650017, "trialdata": {"revealed_states": [], "clicked_states": [], "num_clicks_accrued": [0, 0, 0, 0, 0, 0, 0, 0, 0, 0, 0, 0, 0], "stateRewards": ["", -2, -4, -8, 8, 63, -50, -19, -7, -17, -31, 31, 1, 3, -5, 12, -35, -63, -29, -4, -17, -75, -79, -2, -3, -2, 8, -3, -85, 10, -2, -82, -82, 56], "withholdReward": false, "trial_id": "mdp_trial_21", "block": "test", "trialIndex": 22, "score": -56, "costs": 0, "simulationMode": [null, null, null, null, null], "rewards": [-2, -4, -8, 8, -50], "path": ["0", "0", "1", "2", "3", "4", "6"], "rt": [6684, 202, 252, 463, 653], "actions": ["up", "up", "up", "right", "right"], "actionTimes": [10866, 11579, 12354, 13338, 14512], "queries": {"click": {"state": {"target": [], "time": []}, "edge": {"target": [], "time": []}}, "mouseover": {"state": {"target": ["31", "23"], "time": [7941, 9375]}, "edge": {"target": [], "time": []}}, "mouseout": {"state": {"target": ["32", "0", "31", "23"], "time": [3076, 4343, 9325, 9394]}, "edge": {"target": [], "time": []}}}, "displayed_time": "18.18", "trialTime": 19818, "trial_type": "mouselab-mdp", "trial_index": 29, "time_elapsed": 938505, "internal_node_id": "0.0-4.0-1.0-20.0"}}, {"uniqueid": "w83297128:a39188721", "current_trial": 30, "dateTime": 1691163701904, "trialdata": {"revealed_states": [], "clicked_states": ["32", "31", "33", "29", "27", "28", "11", "10", "9", "5", "6", "7", "16", "17", "20", "21", "22"], "num_clicks_accrued": [0, 0, 0, 0, 0, 0, 0, 0, 0, 0, 0, 0, 0], "stateRewards": ["", -1, 4, -3, 3, 57, -61, 5, -11, 23, -1, 34, -2, -4, -1, -13, 27, 38, -36, 4, -45, 21, 88, 1, -2, -1, 1, -69, -5, -78, -12, -9, 38, -54], "withholdReward": false, "trial_id": "mdp_trial_22", "block": "test", "trialIndex": 23, "score": 61.2, "costs": -23.799999999999994, "simulationMode": [null, null, null, null, null], "rewards": [-2, -4, -1, 4, 88], "path": ["0", "0", "12", "13", "14", "19", "22"], "rt": [40577, 264, 272, 719, 1112], "actions": ["right", "right", "right", "down", "left"], "actionTimes": [43347, 44131, 44918, 46149, 47777], "queries": {"click": {"state": {"target": ["32", "31", "33", "29", "27", "28", "11", "10", "9", "5", "6", "7", "16", "17", "20", "21", "22"], "time": [3999, 6412, 8602, 11776, 14213, 16731, 18679, 20874, 22704, 25085, 27619, 29631, 31711, 33702, 35876, 37839, 39838]}, "edge": {"target": [], "time": []}}, "mouseover": {"state": {"target": ["24", "31", "30", "32", "31", "30", "33", "29", "27", "28", "10", "8", "9", "11", "10", "8", "9", "5", "6", "7", "16", "16", "17", "20", "19", "21", "22", "19", "20", "20"], "time": [3082, 3282, 3465, 3549, 5083, 6799, 7054, 9231, 13035, 14881, 17346, 17366, 17664, 17847, 19365, 21164, 21315, 24245, 25496, 28014, 30149, 30582, 32079, 34445, 36263, 36544, 38294, 41787, 41811, 42046]}, "edge": {"target": [], "time": []}}, "mouseout": {"state": {"target": ["0", "24", "31", "30", "32", "31", "30", "33", "29", "27", "28", "10", "8", "9", "11", "10", "8", "9", "9", "5", "6", "7", "16", "16", "17", "20", "19", "21", "22", "19", "20", "20"], "time": [2849, 3148, 3414, 3482, 4716, 6783, 6968, 9047, 12532, 14614, 17313, 17364, 17380, 17682, 19063, 21080, 21253, 22926, 24063, 25463, 27947, 30098, 30165, 31962, 34077, 36234, 36477, 38028, 41764, 41800, 41934, 42078]}, "edge": {"target": [], "time": []}}}, "displayed_time": "48.30", "trialTime": 51281, "trial_type": "mouselab-mdp", "trial_index": 30, "time_elapsed": 990391, "internal_node_id": "0.0-4.0-1.0-21.0"}}, {"uniqueid": "w83297128:a39188721", "current_trial": 31, "dateTime": 1691163737510, "trialdata": {"revealed_states": [], "clicked_states": ["9", "11", "10", "7", "6", "5"], "num_clicks_accrued": [0, 0, 0, 0, 0, 0, 0, 0, 0, 0, 0, 0, 0], "stateRewards": ["", 1, 1, 7, -11, 80, -20, -53, -14, 3, 31, 27, 2, -1, -8, -10, 33, 41, 86, 9, 78, -37, -13, -1, -2, -6, -8, -80, 75, 4, -16, -49, -74, 24], "withholdReward": false, "trial_id": "mdp_trial_23", "block": "test", "trialIndex": 24, "score": 69.6, "costs": -8.4, "simulationMode": [null, null, null, null, null], "rewards": [1, 1, 7, -11, 80], "path": ["0", "0", "1", "2", "3", "4", "5"], "rt": [15331, 124, 214, 450, 469], "actions": ["up", "up", "up", "right", "up"], "actionTimes": [28716, 29367, 30093, 31060, 32047], "queries": {"click": {"state": {"target": ["9", "11", "10", "7", "6", "5"], "time": [15159, 17175, 19174, 21231, 23351, 25307]}, "edge": {"target": [], "time": []}}, "mouseover": {"state": {"target": ["0", "7", "4", "5", "9", "9", "11", "10", "2", "7", "7", "6", "5", "5", "16", "17", "16"], "time": [14180, 14445, 14479, 14514, 14716, 14946, 15811, 17607, 19685, 19713, 19995, 21844, 23659, 23994, 25692, 25826, 26309]}, "edge": {"target": [], "time": []}}, "mouseout": {"state": {"target": ["12", "23", "0", "0", "7", "4", "5", "9", "9", "11", "10", "2", "7", "7", "6", "5", "5", "6", "16", "17", "16"], "time": [12294, 12626, 12843, 14396, 14462, 14496, 14679, 14744, 15611, 17522, 19661, 19696, 19778, 21643, 23593, 23696, 25626, 25676, 25710, 25976, 27928]}, "edge": {"target": [], "time": []}}}, "displayed_time": "32.56", "trialTime": 34989, "trial_type": "mouselab-mdp", "trial_index": 31, "time_elapsed": 1025997, "internal_node_id": "0.0-4.0-1.0-22.0"}}, {"uniqueid": "w83297128:a39188721", "current_trial": 32, "dateTime": 1691163761541, "trialdata": {"revealed_states": [], "clicked_states": ["32", "31", "33"], "num_clicks_accrued": [0, 0, 0, 0, 0, 0, 0, 0, 0, 0, 0, 0, 0], "stateRewards": ["", -2, 4, 3, 5, -61, 4, 30, 1, -47, 83, 10, 1, 4, 7, -14, 19, -74, -83, 6, -2, -2, -65, -1, -2, 4, -11, 12, -1, -68, 11, -38, -28, 66], "withholdReward": false, "trial_id": "mdp_trial_24", "block": "test", "trialIndex": 25, "score": 73.8, "costs": -4.199999999999999, "simulationMode": [null, null, null, null, null], "rewards": [-1, -2, 4, 11, 66], "path": ["0", "0", "23", "24", "25", "30", "33"], "rt": [9089, 243, 340, 555, 796], "actions": ["left", "left", "left", "down", "left"], "actionTimes": [14230, 14996, 15859, 16923, 18231], "queries": {"click": {"state": {"target": ["32", "31", "33"], "time": [6680, 8719, 10741]}, "edge": {"target": [], "time": []}}, "mouseover": {"state": {"target": ["31", "32", "32", "31", "33", "33", "26", "27", "29"], "time": [6103, 6480, 6601, 7566, 8992, 9301, 11252, 11417, 11700]}, "edge": {"target": [], "time": []}}, "mouseout": {"state": {"target": ["3", "4", "7", "1", "23", "0", "31", "32", "32", "31", "33", "33", "26", "27", "29", "33"], "time": [3118, 3150, 3834, 3950, 4552, 6054, 6120, 6535, 7301, 8953, 9012, 11050, 11335, 11436, 13318, 23213]}, "edge": {"target": [], "time": []}}}, "displayed_time": "19.14", "trialTime": 23430, "trial_type": "mouselab-mdp", "trial_index": 32, "time_elapsed": 1050028, "internal_node_id": "0.0-4.0-1.0-23.0"}}, {"uniqueid": "w83297128:a39188721", "current_trial": 33, "dateTime": 1691163780964, "trialdata": {"revealed_states": [], "clicked_states": ["12", "22", "21", "20"], "num_clicks_accrued": [0, 0, 0, 0, 0, 0, 0, 0, 0, 0, 0, 0, 0], "stateRewards": ["", -1, -2, -8, 8, -27, -82, 19, -14, -62, 4, 1, -2, 2, 6, 10, 73, -51, -2, 2, 73, -48, 54, -1, 2, -4, 11, -25, 47, 86, 15, 33, 43, -42], "withholdReward": false, "trial_id": "mdp_trial_25", "block": "test", "trialIndex": 26, "score": 75.4, "costs": -5.6, "simulationMode": [null, null, null, null, null], "rewards": [-2, 2, 6, 2, 73], "path": ["0", "0", "12", "13", "14", "19", "20"], "rt": [11183, 187, 377, 488, 498], "actions": ["right", "right", "right", "down", "right"], "actionTimes": [12928, 13639, 14533, 15546, 16553], "queries": {"click": {"state": {"target": ["12", "22", "21", "20"], "time": [2525, 5240, 7430, 9815]}, "edge": {"target": [], "time": []}}, "mouseover": {"state": {"target": ["12", "13", "13", "12", "13", "14", "13", "22", "22", "21", "20", "17", "16", "13", "22"], "time": [1939, 1988, 2123, 2205, 3005, 3072, 4229, 4804, 5058, 5637, 7755, 10603, 10936, 11988, 12204]}, "edge": {"target": [], "time": []}}, "mouseout": {"state": {"target": ["0", "12", "13", "13", "12", "13", "14", "13", "22", "22", "21", "20", "17", "16", "13", "22"], "time": [1270, 1972, 2021, 2173, 2972, 3038, 4046, 4521, 4907, 5587, 7679, 10320, 10620, 11923, 12005, 12228]}, "edge": {"target": [], "time": []}}}, "displayed_time": "17.08", "trialTime": 18863, "trial_type": "mouselab-mdp", "trial_index": 33, "time_elapsed": 1069452, "internal_node_id": "0.0-4.0-1.0-24.0"}}, {"uniqueid": "w83297128:a39188721", "current_trial": 34, "dateTime": 1691163801085, "trialdata": {"revealed_states": [], "clicked_states": ["5", "6", "7"], "num_clicks_accrued": [0, 0, 0, 0, 0, 0, 0, 0, 0, 0, 0, 0, 0], "stateRewards": ["", -1, 3, 1, -7, 56, 76, 57, 3, 11, -9, 14, 1, -2, 2, 8, -77, -3, 79, -5, 88, 24, -66, -2, -1, 7, -7, -30, 14, -76, 11, -36, 28, -6], "withholdReward": false, "trial_id": "mdp_trial_26", "block": "test", "trialIndex": 27, "score": 67.8, "costs": -4.199999999999999, "simulationMode": [null, null, null, null, null], "rewards": [-1, 3, 1, -7, 76], "path": ["0", "0", "1", "2", "3", "4", "6"], "rt": [8671, 22, 164, 556, 378], "actions": ["up", "up", "up", "right", "right"], "actionTimes": [12009, 12531, 13220, 14294, 15183], "queries": {"click": {"state": {"target": ["5", "6", "7"], "time": [5280, 7397, 9702]}, "edge": {"target": [], "time": []}}, "mouseover": {"state": {"target": ["23", "12", "15", "17", "6", "5", "6", "7", "17", "13"], "time": [4006, 4321, 4356, 4379, 4802, 4868, 5652, 8086, 10187, 10269]}, "edge": {"target": [], "time": []}}, "mouseout": {"state": {"target": ["0", "0", "23", "12", "15", "17", "6", "5", "6", "7", "17"], "time": [2603, 2886, 4277, 4339, 4373, 4397, 4819, 5502, 7886, 10002, 10203]}, "edge": {"target": [], "time": []}}}, "displayed_time": "17.35", "trialTime": 19718, "trial_type": "mouselab-mdp", "trial_index": 34, "time_elapsed": 1089573, "internal_node_id": "0.0-4.0-1.0-25.0"}}, {"uniqueid": "w83297128:a39188721", "current_trial": 35, "dateTime": 1691163821896, "trialdata": {"revealed_states": [], "clicked_states": ["32"], "num_clicks_accrued": [0, 0, 0, 0, 0, 0, 0, 0, 0, 0, 0, 0, 0], "stateRewards": ["", -2, 2, 5, -14, -56, 64, 84, -5, 52, 39, 85, -2, 1, 7, 8, 21, 29, -78, -9, -10, -69, 10, -2, -1, -7, 15, 72, 20, 41, -2, 52, 80, 22], "withholdReward": false, "trial_id": "mdp_trial_27", "block": "test", "trialIndex": 28, "score": 66.6, "costs": -1.4, "simulationMode": [null, null, null, null, null], "rewards": [-2, -1, -7, -2, 80], "path": ["0", "0", "23", "24", "25", "30", "32"], "rt": [4864, 326, 683, 719, 948], "actions": ["left", "left", "left", "down", "down"], "actionTimes": [7148, 7987, 9196, 10433, 11897], "queries": {"click": {"state": {"target": ["32"], "time": [3643]}, "edge": {"target": [], "time": []}}, "mouseover": {"state": {"target": ["0", "31", "32", "32", "31"], "time": [2493, 2827, 2958, 3226, 4144]}, "edge": {"target": [], "time": []}}, "mouseout": {"state": {"target": ["13", "12", "0", "0", "31", "32", "32", "31"], "time": [145, 892, 1842, 2659, 2908, 3042, 3892, 6177]}, "edge": {"target": [], "time": []}}}, "displayed_time": "16.29", "trialTime": 20271, "trial_type": "mouselab-mdp", "trial_index": 35, "time_elapsed": 1110384, "internal_node_id": "0.0-4.0-1.0-26.0"}}, {"uniqueid": "w83297128:a39188721", "current_trial": 36, "dateTime": 1691163855423, "trialdata": {"revealed_states": [], "clicked_states": ["22", "21", "20", "17", "16", "18", "6", "5", "7"], "num_clicks_accrued": [0, 0, 0, 0, 0, 0, 0, 0, 0, 0, 0, 0, 0], "stateRewards": ["", -2, 1, -7, -8, -37, -76, -87, 11, 30, -63, 80, -1, 4, 2, -1, 42, 17, 52, -3, -75, -80, -68, 2, -3, -5, -15, -48, 82, 24, -7, 5, -22, -71], "withholdReward": false, "trial_id": "mdp_trial_28", "block": "test", "trialIndex": 29, "score": 43.4, "costs": -12.600000000000001, "simulationMode": [null, null, null, null, null], "rewards": [-1, 4, 2, -1, 52], "path": ["0", "0", "12", "13", "14", "15", "18"], "rt": [22608, 212, 253, 474, 383], "actions": ["right", "right", "right", "up", "left"], "actionTimes": [26523, 27250, 28024, 29012, 29903], "queries": {"click": {"state": {"target": ["22", "21", "20", "17", "16", "18", "6", "5", "7"], "time": [4943, 6984, 8912, 10857, 13083, 15189, 18040, 20265, 23222]}, "edge": {"target": [], "time": []}}, "mouseover": {"state": {"target": ["22", "21", "20", "17", "16", "18", "6", "5", "5", "4", "7"], "time": [4723, 5405, 7288, 9405, 11388, 13504, 17471, 18572, 18807, 20919, 21153]}, "edge": {"target": [], "time": []}}, "mouseout": {"state": {"target": ["12", "0", "22", "21", "20", "17", "16", "18", "6", "5", "5", "4", "7"], "time": [2655, 4151, 5356, 7239, 9016, 11070, 13454, 17238, 18264, 18657, 20902, 21020, 25118]}, "edge": {"target": [], "time": []}}}, "displayed_time": "30.42", "trialTime": 32928, "trial_type": "mouselab-mdp", "trial_index": 36, "time_elapsed": 1143910, "internal_node_id": "0.0-4.0-1.0-27.0"}}, {"uniqueid": "w83297128:a39188721", "current_trial": 37, "dateTime": 1691163875897, "trialdata": {"revealed_states": [], "clicked_states": ["5", "6"], "num_clicks_accrued": [0, 0, 0, 0, 0, 0, 0, 0, 0, 0, 0, 0, 0], "stateRewards": ["", -1, 4, -8, 12, 14, 69, -8, 5, -72, -14, 56, -1, -1, -1, 9, 67, 19, 11, -9, -88, -58, 3, 2, -4, -8, 4, 62, 77, -74, 5, -31, 65, 88], "withholdReward": false, "trial_id": "mdp_trial_29", "block": "test", "trialIndex": 30, "score": 73.2, "costs": -2.8, "simulationMode": [null, null, null, null, null], "rewards": [-1, 4, -8, 12, 69], "path": ["0", "0", "1", "2", "3", "4", "6"], "rt": [7078, 21, 228, 342, 333], "actions": ["up", "up", "up", "right", "right"], "actionTimes": [10131, 10666, 11406, 12271, 13133], "queries": {"click": {"state": {"target": ["5", "6"], "time": [4601, 6682]}, "edge": {"target": [], "time": []}}, "mouseover": {"state": {"target": ["23", "24", "18", "15", "16", "4", "5", "6", "7", "28"], "time": [3292, 3362, 3711, 3829, 3929, 4010, 4394, 4944, 7009, 9494]}, "edge": {"target": [], "time": []}}, "mouseout": {"state": {"target": ["7", "4", "5", "2", "1", "0", "23", "24", "18", "15", "16", "4", "5", "6", "7"], "time": [1744, 1776, 1795, 2110, 2193, 3070, 3360, 3376, 3810, 3895, 3961, 4027, 4860, 6909, 9443]}, "edge": {"target": [], "time": []}}}, "displayed_time": "17.06", "trialTime": 19862, "trial_type": "mouselab-mdp", "trial_index": 37, "time_elapsed": 1164384, "internal_node_id": "0.0-4.0-1.0-28.0"}}, {"uniqueid": "w83297128:a39188721", "current_trial": 38, "dateTime": 1691163898796, "trialdata": {"revealed_states": [], "clicked_states": ["32", "31", "33", "29", "27"], "num_clicks_accrued": [0, 0, 0, 0, 0, 0, 0, 0, 0, 0, 0, 0, 0], "stateRewards": ["", 1, -1, 8, -3, 38, 85, -20, -4, 8, 23, 73, 2, -4, 6, -13, 44, 7, -28, -11, -77, 45, -69, 1, -1, -7, -11, 75, -51, -87, 7, 36, -53, -26], "withholdReward": false, "trial_id": "mdp_trial_30", "block": "test", "trialIndex": 31, "score": 50, "costs": -7, "simulationMode": [null, null, null, null, null], "rewards": [1, -1, -7, -11, 75], "path": ["0", "0", "23", "24", "25", "26", "27"], "rt": [12880, 67, 195, 445, 623], "actions": ["left", "left", "left", "up", "up"], "actionTimes": [15749, 16329, 17056, 18007, 19189], "queries": {"click": {"state": {"target": ["32", "31", "33", "29", "27"], "time": [4211, 6308, 8388, 10383, 12453]}, "edge": {"target": [], "time": []}}, "mouseover": {"state": {"target": ["0", "31", "32", "31", "30", "33", "29", "27", "28"], "time": [3143, 3710, 4009, 4745, 6602, 6666, 9144, 10780, 12930]}, "edge": {"target": [], "time": []}}, "mouseout": {"state": {"target": ["28", "23", "0", "0", "31", "32", "31", "30", "33", "29", "27", "28"], "time": [2043, 2076, 2426, 3225, 3760, 4661, 6579, 6618, 9011, 10595, 12793, 14893]}, "edge": {"target": [], "time": []}}}, "displayed_time": "19.72", "trialTime": 22330, "trial_type": "mouselab-mdp", "trial_index": 38, "time_elapsed": 1187283, "internal_node_id": "0.0-4.0-1.0-29.0"}}, {"uniqueid": "w83297128:a39188721", "current_trial": 39, "dateTime": 1691163929076, "trialdata": {"revealed_states": [], "clicked_states": [], "num_clicks_accrued": [0, 0, 0, 0, 0, 0, 0, 0, 0, 0, 0, 0, 0], "stateRewards": ["", -1, -4, -1, -11, 43, 69, 39, 4, 17, -20, -82, -2, -1, 4, 8, -79, 24, -79, 11, 36, 64, 41, 2, 4, -1, 11, -79, -47, 75, -3, 63, -36, -19], "withholdReward": false, "trial_id": "mdp_trial_31", "block": "test", "trialIndex": 32, "score": 65, "costs": 0, "simulationMode": [null, null, null, null, null], "rewards": [2, 4, -1, -3, 63], "path": ["0", "0", "23", "24", "25", "30", "31"], "rt": [5052, 822, 243, 726, 363], "actions": ["left", "left", "left", "down", "right"], "actionTimes": [17380, 18716, 19470, 20719, 21603], "queries": {"click": {"state": {"target": [], "time": []}, "edge": {"target": [], "time": []}}, "mouseover": {"state": {"target": ["0", "22", "19", "13", "12", "31", "32"], "time": [13257, 13506, 13544, 14689, 14807, 15022, 15239]}, "edge": {"target": [], "time": []}}, "mouseout": {"state": {"target": ["23", "0", "0", "22", "19", "13", "12", "31", "32", "4", "7", "1", "0"], "time": [11605, 12589, 13280, 13524, 13562, 14789, 14825, 15089, 16240, 26088, 26206, 26371, 28237]}, "edge": {"target": [], "time": []}}}, "displayed_time": "26.34", "trialTime": 29643, "trial_type": "mouselab-mdp", "trial_index": 39, "time_elapsed": 1217564, "internal_node_id": "0.0-4.0-1.0-30.0"}}, {"uniqueid": "w83297128:a39188721", "current_trial": 40, "dateTime": 1691163951709, "trialdata": {"revealed_states": [], "clicked_states": ["9", "11", "10", "5", "6"], "num_clicks_accrued": [0, 0, 0, 0, 0, 0, 0, 0, 0, 0, 0, 0, 0], "stateRewards": ["", -2, -3, 8, 14, -73, 73, 84, -12, -2, -50, -17, 2, 1, -2, -9, -44, -27, -33, 16, -63, -47, -66, -2, 1, 4, -5, -33, -11, 50, 9, 38, -79, 31], "withholdReward": false, "trial_id": "mdp_trial_32", "block": "test", "trialIndex": 33, "score": 83, "costs": -7, "simulationMode": [null, null, null, null, null], "rewards": [-2, -3, 8, 14, 73], "path": ["0", "0", "1", "2", "3", "4", "6"], "rt": [12441, 88, 155, 361, 325], "actions": ["up", "up", "up", "right", "right"], "actionTimes": [16700, 17300, 17966, 18863, 19707], "queries": {"click": {"state": {"target": ["9", "11", "10", "5", "6"], "time": [5514, 7511, 9447, 11508, 13392]}, "edge": {"target": [], "time": []}}, "mouseover": {"state": {"target": ["9", "11", "10", "5", "6", "4", "7"], "time": [5267, 6067, 7882, 10016, 11899, 13663, 13827]}, "edge": {"target": [], "time": []}}, "mouseout": {"state": {"target": ["16", "18", "8", "9", "9", "8", "1", "0", "0", "9", "11", "10", "5", "6", "4", "7", "10"], "time": [null, 646, 1017, 2334, 3316, 3349, 3432, 3482, 3800, 5968, 7833, 9832, 11783, 13644, 13676, 16010, 21509]}, "edge": {"target": [], "time": []}}}, "displayed_time": "20.24", "trialTime": 22090, "trial_type": "mouselab-mdp", "trial_index": 40, "time_elapsed": 1240196, "internal_node_id": "0.0-4.0-1.0-31.0"}}, {"uniqueid": "w83297128:a39188721", "current_trial": 41, "dateTime": 1691163970526, "trialdata": {"revealed_states": [], "clicked_states": ["16", "17"], "num_clicks_accrued": [0, 0, 0, 0, 0, 0, 0, 0, 0, 0, 0, 0, 0], "stateRewards": ["", -2, -4, -6, 12, -58, -70, -80, 2, 16, -88, -62, 1, 2, -5, 11, 77, -35, -44, -5, 18, -83, 87, 1, -3, -5, 13, -44, -21, -86, 10, -52, 8, 29], "withholdReward": false, "trial_id": "mdp_trial_33", "block": "test", "trialIndex": 34, "score": 83.2, "costs": -2.8, "simulationMode": [null, null, null, null, null], "rewards": [1, 2, -5, 11, 77], "path": ["0", "0", "12", "13", "14", "15", "16"], "rt": [6439, 269, 263, 501, 1475], "actions": ["right", "right", "right", "up", "up"], "actionTimes": [8778, 9565, 10343, 11365, 13340], "queries": {"click": {"state": {"target": ["16", "17"], "time": [4422, 6286]}, "edge": {"target": [], "time": []}}, "mouseover": {"state": {"target": ["12", "13", "15", "16", "17"], "time": [3246, 3413, 3463, 4212, 4994]}, "edge": {"target": [], "time": []}}, "mouseout": {"state": {"target": ["2", "1", "0", "12", "13", "15", "16", "17"], "time": [1161, 1245, 2593, 3379, 3431, 3496, 4678, 6879]}, "edge": {"target": [], "time": []}}}, "displayed_time": "16.35", "trialTime": 18144, "trial_type": "mouselab-mdp", "trial_index": 41, "time_elapsed": 1259013, "internal_node_id": "0.0-4.0-1.0-32.0"}}, {"uniqueid": "w83297128:a39188721", "current_trial": 42, "dateTime": 1691163996475, "trialdata": {"revealed_states": [], "clicked_states": ["16", "17", "18", "21", "22", "20"], "num_clicks_accrued": [0, 0, 0, 0, 0, 0, 0, 0, 0, 0, 0, 0, 0], "stateRewards": ["", 2, -1, -1, 7, 11, -40, -22, -2, 69, 37, 8, -2, 4, -8, -12, -2, -72, -3, -12, 17, 63, 12, 1, 3, -7, 6, 25, 61, 61, -9, 28, -17, 27], "withholdReward": false, "trial_id": "mdp_trial_34", "block": "test", "trialIndex": 35, "score": 36.6, "costs": -8.4, "simulationMode": [null, null, null, null, null], "rewards": [-2, 4, -8, -12, 63], "path": ["0", "0", "12", "13", "14", "19", "21"], "rt": [15973, 62, 117, 530, 267], "actions": ["right", "right", "right", "down", "down"], "actionTimes": [19711, 20291, 20947, 21995, 22778], "queries": {"click": {"state": {"target": ["16", "17", "18", "21", "22", "20"], "time": [5357, 7432, 9565, 11686, 14871, 16982]}, "edge": {"target": [], "time": []}}, "mouseover": {"state": {"target": ["0", "0", "12", "13", "14", "15", "16", "17", "15", "18", "14", "19", "21", "22", "19", "20"], "time": [3758, 4328, 4495, 4646, 4878, 4916, 5212, 5879, 7811, 7860, 10094, 10143, 10460, 12511, 15442, 15690]}, "edge": {"target": [], "time": []}}, "mouseout": {"state": {"target": ["15", "13", "12", "0", "0", "0", "0", "12", "13", "14", "15", "16", "17", "15", "18", "14", "19", "21", "22", "19", "20"], "time": [2511, 2744, 2946, 3118, 3277, 3861, 4396, 4612, 4828, 4898, 4978, 5662, 7795, 7828, 10077, 10110, 10394, 11892, 15438, 15615, 18309]}, "edge": {"target": [], "time": []}}}, "displayed_time": "23.30", "trialTime": 25362, "trial_type": "mouselab-mdp", "trial_index": 42, "time_elapsed": 1284962, "internal_node_id": "0.0-4.0-1.0-33.0"}}, {"uniqueid": "w83297128:a39188721", "current_trial": 43, "dateTime": 1691164033952, "trialdata": {"revealed_states": [], "clicked_states": ["21", "22", "20", "17", "16", "18", "6", "5", "7", "9", "11"], "num_clicks_accrued": [0, 0, 0, 0, 0, 0, 0, 0, 0, 0, 0, 0, 0], "stateRewards": ["", 2, -4, 1, -12, -59, -53, -74, 16, -88, -66, 66, 1, -2, 8, -9, -14, 22, 25, -1, -39, 47, -14, -1, -1, -2, 1, -4, 52, -26, 15, -7, 46, 43], "withholdReward": false, "trial_id": "mdp_trial_35", "block": "test", "trialIndex": 36, "score": 65.6, "costs": -15.400000000000002, "simulationMode": [null, null, null, null, null], "rewards": [2, -4, 1, 16, 66], "path": ["0", "0", "1", "2", "3", "8", "11"], "rt": [29063, 74, 109, 526, 267], "actions": ["up", "up", "up", "left", "left"], "actionTimes": [31674, 32263, 32902, 33955, 34743], "queries": {"click": {"state": {"target": ["21", "22", "20", "17", "16", "18", "6", "5", "7", "9", "11"], "time": [4289, 7008, 9063, 11471, 13464, 15793, 18592, 20712, 22868, 25847, 28016]}, "edge": {"target": [], "time": []}}, "mouseover": {"state": {"target": ["12", "19", "21", "22", "19", "20", "17", "16", "16", "18", "6", "5", "4", "7", "2", "9", "8", "11", "10"], "time": [3480, 3777, 3960, 4841, 7707, 7840, 11307, 11856, 12023, 13855, 18190, 18855, 21022, 21105, 25006, 25393, 26323, 26471, 28538]}, "edge": {"target": [], "time": []}}, "mouseout": {"state": {"target": ["30", "31", "0", "12", "19", "21", "22", "19", "20", "17", "16", "16", "16", "18", "6", "5", "4", "7", "2", "9", "8", "11"], "time": [1558, 1608, 3461, 3501, 3825, 4524, 7658, 7773, 9182, 11789, 11872, 13541, 13806, 17323, 18805, 20989, 21055, 24973, 25090, 26174, 26421, 28421]}, "edge": {"target": [], "time": []}}}, "displayed_time": "35.27", "trialTime": 36874, "trial_type": "mouselab-mdp", "trial_index": 43, "time_elapsed": 1322439, "internal_node_id": "0.0-4.0-1.0-34.0"}}, {"uniqueid": "w83297128:a39188721", "current_trial": 44, "dateTime": 1691164054463, "trialdata": {"revealed_states": [], "clicked_states": ["16", "17"], "num_clicks_accrued": [0, 0, 0, 0, 0, 0, 0, 0, 0, 0, 0, 0, 0], "stateRewards": ["", -1, -3, -6, 14, 41, 18, 63, -14, 80, 21, 17, -2, -4, -2, -5, 13, 70, 8, -4, -64, -10, -20, 2, -1, 4, -1, -17, -55, 42, -7, 47, 54, 15], "withholdReward": false, "trial_id": "mdp_trial_36", "block": "test", "trialIndex": 37, "score": 54.2, "costs": -2.8, "simulationMode": [null, null, null, null, null], "rewards": [-2, -4, -2, -5, 70], "path": ["0", "0", "12", "13", "14", "15", "17"], "rt": [7156, 34, 210, 411, 3345], "actions": ["right", "right", "right", "up", "right"], "actionTimes": [10599, 11146, 11855, 12786, 16653], "queries": {"click": {"state": {"target": ["16", "17"], "time": [5415, 7427]}, "edge": {"target": [], "time": []}}, "mouseover": {"state": {"target": ["12", "13", "14", "16", "17", "15", "18"], "time": [4460, 4496, 4529, 5109, 5773, 7691, 7723]}, "edge": {"target": [], "time": []}}, "mouseout": {"state": {"target": ["10", "23", "0", "12", "13", "14", "16", "17", "15", "18"], "time": [2124, 2558, 3691, 4492, 4525, 4558, 5707, 7673, 7706, 9823]}, "edge": {"target": [], "time": []}}}, "displayed_time": "17.45", "trialTime": 19872, "trial_type": "mouselab-mdp", "trial_index": 44, "time_elapsed": 1342950, "internal_node_id": "0.0-4.0-1.0-35.0"}}, {"uniqueid": "w83297128:a39188721", "current_trial": 45, "dateTime": 1691164088629, "trialdata": {"revealed_states": [], "clicked_states": ["32", "33", "31", "29", "27", "28", "11", "9", "10", "7", "5"], "num_clicks_accrued": [0, 0, 0, 0, 0, 0, 0, 0, 0, 0, 0, 0, 0], "stateRewards": ["", 1, -1, 8, 4, 76, -33, -17, -3, -1, -54, -74, -2, 2, -5, 13, -51, 63, 83, 1, 84, 29, -36, 2, -1, 7, -12, -10, -44, -43, -14, 8, -69, 19], "withholdReward": false, "trial_id": "mdp_trial_37", "block": "test", "trialIndex": 38, "score": 72.6, "costs": -15.400000000000002, "simulationMode": [null, null, null, null, null], "rewards": [1, -1, 8, 4, 76], "path": ["0", "0", "1", "2", "3", "4", "5"], "rt": [25433, 44, 146, 437, 393], "actions": ["up", "up", "up", "right", "up"], "actionTimes": [27847, 28400, 29083, 30042, 30951], "queries": {"click": {"state": {"target": ["32", "33", "31", "29", "27", "28", "11", "9", "10", "7", "5"], "time": [3492, 5602, 7638, 9641, 11615, 13695, 15881, 17958, 19960, 22069, 24110]}, "edge": {"target": [], "time": []}}, "mouseover": {"state": {"target": ["32", "33", "30", "31", "29", "27", "28", "1", "12", "0", "23", "8", "11", "9", "8", "10", "2", "7", "5", "5", "6", "7"], "time": [2674, 4286, 6117, 6267, 8738, 10555, 12037, 14231, 14289, 14481, 14514, 14770, 15020, 16353, 18252, 18403, 20709, 20860, 22403, 22702, 24535, 27138]}, "edge": {"target": [], "time": []}}, "mouseout": {"state": {"target": ["18", "6", "12", "12", "1", "0", "32", "33", "30", "31", "29", "27", "27", "28", "1", "12", "0", "23", "28", "8", "11", "9", "8", "10", "2", "7", "5", "5", "6", "7"], "time": [887, 1234, 1351, 1551, 1784, 2486, 3905, 6101, 6167, 7747, 10129, 11714, 11888, 14054, 14251, 14459, 14498, 14555, 14636, 14920, 16086, 18208, 18268, 20636, 20770, 22285, 22435, 24385, 27121, 27157]}, "edge": {"target": [], "time": []}}}, "displayed_time": "31.47", "trialTime": 33568, "trial_type": "mouselab-mdp", "trial_index": 45, "time_elapsed": 1377116, "internal_node_id": "0.0-4.0-1.0-36.0"}}, {"uniqueid": "w83297128:a39188721", "current_trial": 46, "dateTime": 1691164134523, "trialdata": {"revealed_states": [], "clicked_states": ["16", "18", "17", "20", "21", "22", "6", "5", "7", "10", "9", "11", "27", "28", "29"], "num_clicks_accrued": [0, 0, 0, 0, 0, 0, 0, 0, 0, 0, 0, 0, 0], "stateRewards": ["", 2, -1, -2, -5, -47, -57, -33, -11, 31, -18, -72, -2, 1, -4, -8, -46, -53, -50, 15, -85, -9, 39, -2, -2, 1, 14, -1, -8, 53, -12, -41, -74, 62], "withholdReward": false, "trial_id": "mdp_trial_38", "block": "test", "trialIndex": 39, "score": 43, "costs": -20.999999999999996, "simulationMode": [null, null, null, null, null], "rewards": [-2, -2, 1, 14, 53], "path": ["0", "0", "23", "24", "25", "26", "29"], "rt": [35787, 775, 374, 705, 231], "actions": ["left", "left", "left", "up", "left"], "actionTimes": [38308, 39599, 40501, 41726, 42468], "queries": {"click": {"state": {"target": ["16", "18", "17", "20", "21", "22", "6", "5", "7", "10", "9", "11", "27", "28", "29"], "time": [4242, 6295, 8338, 10368, 12315, 14494, 17735, 19743, 21841, 23885, 25970, 28086, 30675, 32674, 34714]}, "edge": {"target": [], "time": []}}, "mouseover": {"state": {"target": ["22", "15", "16", "18", "15", "17", "14", "19", "20", "21", "22", "12", "7", "6", "6", "5", "4", "7", "7", "2", "10", "10", "9", "11", "27", "28", "25", "29", "33", "33", "30", "31"], "time": [3426, 3759, 3909, 4641, 6742, 6841, 8858, 8991, 9140, 10741, 12789, 16725, 16808, 17009, 17525, 18875, 20007, 20047, 20357, 22139, 22236, 22956, 24406, 26660, 30439, 31121, 33304, 33604, 35086, 35285, 37176, 37240]}, "edge": {"target": [], "time": []}}, "mouseout": {"state": {"target": ["26", "26", "28", "0", "22", "15", "16", "16", "18", "15", "17", "14", "19", "20", "21", "22", "12", "7", "6", "6", "5", "4", "7", "7", "2", "10", "10", "9", "11", "27", "27", "28", "25", "29", "33", "33", "30", "31"], "time": [1490, 1607, 1640, 3125, 3447, 3827, 4268, 4541, 6713, 6773, 8802, 8891, 9074, 10657, 12587, 14956, 16757, 16892, 17091, 18474, 19973, 20030, 20075, 22106, 22173, 22273, 24089, 26422, 29611, 30797, 31054, 32953, 33387, 34971, 35102, 37156, 37216, 37355]}, "edge": {"target": [], "time": []}}}, "displayed_time": "42.99", "trialTime": 45271, "trial_type": "mouselab-mdp", "trial_index": 46, "time_elapsed": 1423010, "internal_node_id": "0.0-4.0-1.0-37.0"}}, {"uniqueid": "w83297128:a39188721", "current_trial": 47, "dateTime": 1691164153869, "trialdata": {"revealed_states": [], "clicked_states": ["21", "20", "22"], "num_clicks_accrued": [0, 0, 0, 0, 0, 0, 0, 0, 0, 0, 0, 0, 0], "stateRewards": ["", -1, -1, 7, -15, -43, -21, -84, -9, -45, -66, 2, 1, -2, 2, 8, -27, 44, -52, -5, -84, 11, 53, 1, 4, -4, 16, 83, -82, -15, -16, 68, -43, 81], "withholdReward": false, "trial_id": "mdp_trial_39", "block": "test", "trialIndex": 40, "score": 44.8, "costs": -4.199999999999999, "simulationMode": [null, null, null, null, null], "rewards": [1, -2, 2, -5, 53], "path": ["0", "0", "12", "13", "14", "19", "22"], "rt": [9281, 648, 402, 450, 356], "actions": ["right", "right", "right", "down", "left"], "actionTimes": [12290, 13467, 14390, 15352, 16226], "queries": {"click": {"state": {"target": ["21", "20", "22"], "time": [4643, 6782, 8752]}, "edge": {"target": [], "time": []}}, "mouseover": {"state": {"target": ["24", "23", "0", "12", "13", "22", "21", "20", "19", "22", "19", "17"], "time": [3201, 3501, 3684, 3753, 3822, 4051, 4101, 5367, 6984, 7033, 10282, 11101]}, "edge": {"target": [], "time": []}}, "mouseout": {"state": {"target": ["24", "23", "0", "12", "13", "22", "21", "20", "19", "22", "22", "19", "20", "17"], "time": [3467, 3534, 3719, 3802, 3841, 4069, 5183, 6973, 7016, 8861, 10267, 10315, 10500, 11185]}, "edge": {"target": [], "time": []}}}, "displayed_time": "17.01", "trialTime": 18817, "trial_type": "mouselab-mdp", "trial_index": 47, "time_elapsed": 1442356, "internal_node_id": "0.0-4.0-1.0-38.0"}}, {"uniqueid": "w83297128:a39188721", "current_trial": 48, "dateTime": 1691164181234, "trialdata": {"revealed_states": [], "clicked_states": ["5", "6", "7", "9", "10", "11", "27"], "num_clicks_accrued": [0, 0, 0, 0, 0, 0, 0, 0, 0, 0, 0, 0, 0], "stateRewards": ["", -2, -2, -3, -6, -15, -11, 41, -12, -63, -76, 2, -2, -3, 8, 9, -36, -2, -18, -16, -32, -85, -17, -2, 1, 5, -16, 82, 35, -88, -1, 80, -82, -20], "withholdReward": false, "trial_id": "mdp_trial_40", "block": "test", "trialIndex": 41, "score": 60.2, "costs": -9.8, "simulationMode": [null, null, null, null, null], "rewards": [-2, 1, 5, -16, 82], "path": ["0", "0", "23", "24", "25", "26", "27"], "rt": [19336, 30, 205, 408, 302], "actions": ["left", "left", "left", "up", "up"], "actionTimes": [21880, 22426, 23152, 24074, 24899], "queries": {"click": {"state": {"target": ["5", "6", "7", "9", "10", "11", "27"], "time": [4855, 6967, 8934, 11853, 13812, 15880, 18552]}, "edge": {"target": [], "time": []}}, "mouseover": {"state": {"target": ["12", "22", "19", "14", "4", "3", "5", "6", "7", "7", "16", "3", "9", "8", "10", "11", "27", "27", "27", "28", "1"], "time": [2897, 2947, 3448, 3715, 4083, 4124, 4680, 5464, 7372, 7619, 9480, 11247, 11698, 12248, 12412, 14114, 17896, 18163, 18314, 18914, 20995]}, "edge": {"target": [], "time": []}}, "mouseout": {"state": {"target": ["31", "12", "22", "19", "14", "4", "3", "5", "6", "7", "7", "16", "3", "9", "8", "10", "11", "27", "27", "27", "28", "1"], "time": [1449, 2914, 2964, 3515, 3765, 4101, 4149, 5114, 7219, 7508, 9196, 11181, 11267, 12224, 12329, 13978, 17813, 17915, 18212, 18879, 20962, 21012]}, "edge": {"target": [], "time": []}}}, "displayed_time": "25.42", "trialTime": 26829, "trial_type": "mouselab-mdp", "trial_index": 48, "time_elapsed": 1469720, "internal_node_id": "0.0-4.0-1.0-39.0"}}, {"uniqueid": "w83297128:a39188721", "current_trial": 49, "dateTime": 1691164220555, "trialdata": {"rt": 39304, "response": {"Q0": "$-2 to $2", "Q1": "$-32 to $32", "Q2": "$-88 to $88", "Q3": "The cost was always $1.4.", "Q4": "Very motivated"}, "question_order": [0, 1, 2, 3, 4], "trial_id": "final_quiz_control", "trial_type": "survey-multi-choice", "trial_index": 49, "time_elapsed": 1509043, "internal_node_id": "0.0-4.0-2.0"}}, {"uniqueid": "w83297128:a39188721", "current_trial": 50, "dateTime": 1691164350534, "trialdata": {"rt": 129931, "response": {"Q0": "I clicked on the end nodes (5th) until I found one that was promising. I ignored the intervening nodes since they would cost money to inspect and any minus numbers would be compensated for by the large final number", "Q1": "Only by deciding on the above strategy", "Q2": "Nothing made it difficult but the wait after using the node inspector was frustrating"}, "trial_id": "self_report_control", "trial_type": "survey-text", "trial_index": 50, "time_elapsed": 1639022, "internal_node_id": "0.0-4.0-3.0"}}, {"uniqueid": "w83297128:a39188721", "current_trial": 51, "dateTime": 1691164370008, "trialdata": {"rt": 19467, "response": {"gender": "female", "age": "67", "colorblind": "0", "effort": "0"}, "trial_type": "survey-html-form", "trial_index": 51, "time_elapsed": 1658496, "internal_node_id": "0.0-4.0-4.0"}}, {"uniqueid": "w83297128:a39188721", "current_trial": 52, "dateTime": 1691164385950, "trialdata": {"rt": 15933, "response": {"Q0": "No", "Q1": "No", "Q2": ""}, "trial_type": "survey-text", "trial_index": 52, "time_elapsed": 1674438, "internal_node_id": "0.0-4.0-5.0"}}, {"uniqueid": "w83297128:a39188721", "current_trial": 53, "dateTime": 1691164391711, "trialdata": {"rt": 5754, "stimulus": "Press 'Finish HIT' in order to reach the completion code. Once the data has been saved, you will receive the code either in this window or in the original browser window where you started the experiment.\n", "response": 0, "trial_type": "html-button-response", "trial_index": 53, "time_elapsed": 1680198, "internal_node_id": "0.0-5.0"}}, {"uniqueid": "w83297128:a39188721", "current_trial": 54, "dateTime": 1691164392717, "trialdata": {"success": true, "trial_type": "fullscreen", "trial_index": 54, "time_elapsed": 1681205, "internal_node_id": "0.0-6.0"}}], "questiondata": {"params": {"CODE": "C6DMOQA6", "MIN_TIME": 14, "inspectCost": 1, "startTime": "Fri Aug 04 2023 16:25:10 GMT+0100 (British Summer Time)", "bonusRate": 0.002, "variance": "1_2_4_8_44", "branching": "31123"}, "final_score": 2290}, "eventdata": [{"eventtype": "initialized", "value": null, "timestamp": 1691162710458, "interval": 0}, {"eventtype": "window_resize", "value": [1028, 744], "timestamp": 1691162710458, "interval": 0}, {"eventtype": "window_resize", "value": [1028, 744], "timestamp": 1691162710777, "interval": 319}, {"eventtype": "window_resize", "value": [1536, 864], "timestamp": 1691162713991, "interval": 3214}, {"eventtype": "focus", "value": "off", "timestamp": 1691163468743, "interval": 754752}, {"eventtype": "focus", "value": "on", "timestamp": 1691163468745, "interval": 2}, {"eventtype": "focus", "value": "off", "timestamp": 1691163469242, "interval": 497}, {"eventtype": "focus", "value": "on", "timestamp": 1691163469243, "interval": 1}, {"eventtype": "focus", "value": "off", "timestamp": 1691163469272, "interval": 29}, {"eventtype": "focus", "value": "on", "timestamp": 1691163469273, "interval": 1}, {"eventtype": "focus", "value": "off", "timestamp": 1691163469302, "interval": 29}, {"eventtype": "focus", "value": "on", "timestamp": 1691163469303, "interval": 1}, {"eventtype": "focus", "value": "off", "timestamp": 1691163469332, "interval": 29}, {"eventtype": "focus", "value": "on", "timestamp": 1691163469333, "interval": 1}, {"eventtype": "focus", "value": "off", "timestamp": 1691163469362, "interval": 29}, {"eventtype": "focus", "value": "on", "timestamp": 1691163469363, "interval": 1}, {"eventtype": "focus", "value": "off", "timestamp": 1691163469391, "interval": 28}, {"eventtype": "focus", "value": "on", "timestamp": 1691163469392, "interval": 1}, {"eventtype": "focus", "value": "off", "timestamp": 1691163469422, "interval": 30}, {"eventtype": "focus", "value": "on", "timestamp": 1691163469423, "interval": 1}, {"eventtype": "focus", "value": "off", "timestamp": 1691163469451, "interval": 28}, {"eventtype": "focus", "value": "on", "timestamp": 1691163469452, "interval": 1}, {"eventtype": "focus", "value": "off", "timestamp": 1691163469482, "interval": 30}, {"eventtype": "focus", "value": "on", "timestamp": 1691163469483, "interval": 1}, {"eventtype": "focus", "value": "off", "timestamp": 1691163469513, "interval": 30}, {"eventtype": "focus", "value": "on", "timestamp": 1691163469514, "interval": 1}, {"eventtype": "focus", "value": "off", "timestamp": 1691163469542, "interval": 28}, {"eventtype": "focus", "value": "on", "timestamp": 1691163469543, "interval": 1}, {"eventtype": "focus", "value": "off", "timestamp": 1691163469572, "interval": 29}, {"eventtype": "focus", "value": "on", "timestamp": 1691163469573, "interval": 1}, {"eventtype": "focus", "value": "off", "timestamp": 1691163469603, "interval": 30}, {"eventtype": "focus", "value": "on", "timestamp": 1691163469604, "interval": 1}, {"eventtype": "focus", "value": "off", "timestamp": 1691163469633, "interval": 29}, {"eventtype": "focus", "value": "on", "timestamp": 1691163469634, "interval": 1}, {"eventtype": "focus", "value": "off", "timestamp": 1691163469663, "interval": 29}, {"eventtype": "focus", "value": "on", "timestamp": 1691163469664, "interval": 1}, {"eventtype": "focus", "value": "off", "timestamp": 1691163469693, "interval": 29}, {"eventtype": "focus", "value": "on", "timestamp": 1691163469694, "interval": 1}, {"eventtype": "focus", "value": "off", "timestamp": 1691163469723, "interval": 29}, {"eventtype": "focus", "value": "on", "timestamp": 1691163469724, "interval": 1}, {"eventtype": "focus", "value": "off", "timestamp": 1691163469754, "interval": 30}, {"eventtype": "focus", "value": "on", "timestamp": 1691163469755, "interval": 1}, {"eventtype": "focus", "value": "off", "timestamp": 1691163469784, "interval": 29}, {"eventtype": "focus", "value": "on", "timestamp": 1691163469785, "interval": 1}, {"eventtype": "focus", "value": "off", "timestamp": 1691163469815, "interval": 30}, {"eventtype": "focus", "value": "on", "timestamp": 1691163469816, "interval": 1}, {"eventtype": "window_resize", "value": [1028, 744], "timestamp": 1691164392062, "interval": 922246}], "useragent": "Mozilla/5.0 (Windows NT 10.0; Win64; x64) AppleWebKit/537.36 (KHTML, like Gecko) Chrome/115.0.0.0 Safari/537.36", "mode": "live", "id": "w83297128:a39188721", "status": "user data saved", "Beginhit": "2023-08-04 15:25:11.735037", "Beginexp": "2023-08-04 15:25:17.187519", "Endhit": "2023-08-04 15:53:15.821971", "psiturkStatus": 3, "browser": "<redacted>", "platform": "windows", "language": "en-GB"}