{"condition": 0, "counterbalance": 0, "assignmentId": "a57827336", "workerId": "w95699543", "hitId": "h36212795", "currenttrial": 61, "bonus": 0, "data": [{"uniqueid": "w95699543:a57827336", "current_trial": 0, "dateTime": 1693564870964, "trialdata": {"success": true, "trial_type": "fullscreen", "trial_index": 0, "time_elapsed": 10743, "internal_node_id": "0.0-0.0"}}, {"uniqueid": "w95699543:a57827336", "current_trial": 1, "dateTime": 1693564967883, "trialdata": {"view_history": [{"page_index": 0, "viewing_time": 96906}], "rt": 96907, "trial_id": "exp_instructions_control", "trial_type": "instructions", "trial_index": 1, "time_elapsed": 107661, "internal_node_id": "0.0-1.0"}}, {"uniqueid": "w95699543:a57827336", "current_trial": 2, "dateTime": 1693565361816, "trialdata": {"view_history": [{"page_index": 0, "viewing_time": 205077}, {"page_index": 1, "viewing_time": 101343}, {"page_index": 2, "viewing_time": 30873}, {"page_index": 3, "viewing_time": 56638}], "rt": 393932, "trial_id": "mouselab_instructions_1_control", "trial_type": "instructions", "trial_index": 2, "time_elapsed": 501595, "internal_node_id": "0.0-2.0-1.0"}}, {"uniqueid": "w95699543:a57827336", "current_trial": 3, "dateTime": 1693565443563, "trialdata": {"revealed_states": [], "clicked_states": ["26", "15", "19", "30", "8", "4", "5", "9", "24", "13", "1", "23", "12", "2", "3"], "num_clicks_accrued": [0, 0, 0, 0, 0, 0, 0, 0, 0, 0, 0, 0, 0], "stateRewards": ["", 10, -10, 10, 10, -10, -10, 10, 10, -10, 10, -10, -10, -10, -10, -10, -10, -10, -10, -10, 10, 10, 10, -10, -10, 10, -10, -10, -10, -10, -10, 10, 10, -10], "withholdReward": false, "trial_id": "practice_1", "block": "test", "trialIndex": 0, "score": 6, "costs": -7.5, "simulationMode": [null, null, null, null, null], "rewards": [10, -10, 10, 10, -10], "path": ["0", "0", "1", "2", "3", "8", "9"], "rt": [55739, 1572, 1044, 615, 860], "actions": ["up", "up", "up", "left", "up"], "actionTimes": [59224, 61309, 62861, 63997, 65376], "queries": {"click": {"state": {"target": ["26", "15", "19", "30", "8", "4", "5", "9", "24", "13", "1", "23", "12", "2", "3"], "time": [7630, 9394, 11121, 14246, 17773, 20589, 22318, 24400, 28233, 32094, 34689, 36491, 38452, 43284, 44899]}, "edge": {"target": [], "time": []}}, "mouseover": {"state": {"target": ["23", "26", "28", "18", "15", "14", "14", "19", "22", "23", "24", "25", "30", "24", "10", "3", "9", "9", "8", "3", "4", "5", "5", "9", "9", "7", "1", "23", "24", "23", "12", "13", "12", "1", "23", "0", "12", "1", "2", "3", "2", "3", "3", "7", "1", "23", "8", "3", "4", "10"], "time": [6614, 6884, 8235, 8549, 8682, 9983, 10366, 10800, 11782, 11815, 11833, 12300, 13633, 14900, 15016, 15331, 16032, 16734, 17550, 18182, 18299, 21282, 21883, 22982, 23899, 25634, 27282, 27665, 27783, 28850, 28966, 29448, 33416, 33700, 35299, 37016, 37486, 41149, 41819, 42334, 42534, 43765, 44167, 46035, 50331, 51315, 51967, 54266, 54318, 56751]}, "edge": {"target": [], "time": []}}, "mouseout": {"state": {"target": ["0", "23", "26", "28", "18", "15", "14", "14", "19", "22", "23", "24", "25", "30", "24", "10", "3", "9", "9", "8", "3", "4", "5", "5", "9", "9", "7", "1", "23", "24", "23", "12", "13", "12", "1", "23", "0", "12", "1", "2", "3", "2", "3", "3", "7", "1", "23", "8", "3", "4", "10"], "time": [6594, 6632, 8233, 8248, 8599, 9950, 10217, 10549, 11218, 11799, 11832, 11849, 12416, 14315, 14917, 15317, 15347, 16382, 17399, 18165, 18216, 21216, 21581, 22949, 23032, 24477, 26749, 27384, 27682, 28294, 28866, 29232, 33400, 33450, 35216, 37001, 37034, 41086, 41165, 42185, 42438, 43375, 43799, 45652, 47335, 50418, 51550, 54246, 54284, 56702, 78948]}, "edge": {"target": [], "time": []}}}, "displayed_time": "65.87", "trialTime": 80782, "trial_type": "mouselab-mdp", "trial_index": 3, "time_elapsed": 583341, "internal_node_id": "0.0-2.0-2.0-0.0"}}, {"uniqueid": "w95699543:a57827336", "current_trial": 4, "dateTime": 1693565492583, "trialdata": {"revealed_states": [], "clicked_states": ["1", "12", "23", "24", "2", "25", "3", "7", "10", "8", "9", "11"], "num_clicks_accrued": [0, 0, 0, 0, 0, 0, 0, 0, 0, 0, 0, 0, 0], "stateRewards": ["", 10, 10, -10, 10, -10, 10, -10, 10, 10, 10, -10, -10, 10, -10, 10, 10, 10, 10, 10, 10, -10, 10, 10, 10, -10, 10, 10, -10, 10, 10, -10, -10, -10], "withholdReward": false, "trial_id": "practice_2", "block": "test", "trialIndex": 1, "score": 27.5, "costs": -6, "simulationMode": [null, null, null, null, null], "rewards": [10, 10, -10, 10, 10], "path": ["0", "0", "1", "2", "3", "8", "9"], "rt": [26534, 254, 10077, 771, 274], "actions": ["up", "up", "up", "left", "up"], "actionTimes": [30223, 30996, 41570, 42867, 43652], "queries": {"click": {"state": {"target": ["1", "12", "23", "24", "2", "25", "3", "7", "10", "8", "9", "11"], "time": [7123, 8299, 9407, 12656, 13787, 15044, 16259, 19615, 21230, 23494, 24648, 25745]}, "edge": {"target": [], "time": []}}, "mouseover": {"state": {"target": ["1", "12", "23", "2", "2", "28", "24", "2", "25", "28", "3", "5", "3", "2", "2", "2", "7", "2", "10", "2", "13", "2", "8", "9", "9", "11"], "time": [5473, 7720, 9138, 10238, 11306, 11456, 12023, 13337, 14505, 15473, 15520, 15670, 15904, 18056, 18307, 19058, 19205, 19942, 20139, 21789, 22138, 22840, 23058, 23987, 24289, 25355]}, "edge": {"target": [], "time": []}}, "mouseout": {"state": {"target": ["0", "1", "12", "23", "2", "2", "28", "24", "2", "25", "28", "3", "5", "3", "2", "2", "2", "7", "2", "10", "2", "13", "2", "8", "9", "9", "11"], "time": [4955, 7571, 8772, 10189, 10272, 11320, 11655, 13037, 14221, 15471, 15488, 15537, 15770, 18023, 18123, 18341, 19070, 19940, 19988, 21772, 21855, 22798, 22854, 23972, 24039, 25139, 26440]}, "edge": {"target": [], "time": []}}}, "displayed_time": "44.16", "trialTime": 48827, "trial_type": "mouselab-mdp", "trial_index": 4, "time_elapsed": 632361, "internal_node_id": "0.0-2.0-2.0-1.0"}}, {"uniqueid": "w95699543:a57827336", "current_trial": 5, "dateTime": 1693565553458, "trialdata": {"view_history": [{"page_index": 0, "viewing_time": 44266}, {"page_index": 1, "viewing_time": 16606}], "rt": 60872, "trial_id": "mouselab_instructions_2_control", "trial_type": "instructions", "trial_index": 5, "time_elapsed": 693237, "internal_node_id": "0.0-2.0-3.0"}}, {"uniqueid": "w95699543:a57827336", "current_trial": 6, "dateTime": 1693565609987, "trialdata": {"rt": 56519, "response": {"Q0": "The cost for clicking on nodes may vary between nodes.", "Q1": "I will receive a $1 bonus if I perform well, otherwise I will receive no bonus.", "Q2": "No, the amount of cash at each node of the web may be different each time.", "Q3": "To get the highest total score.", "Q4": "Only before moving the spider.", "Q5": "3 seconds"}, "question_order": [0, 1, 2, 3, 4, 5], "correct": {"Q0": "The cost for clicking on nodes may vary between nodes.", "Q1": "The better I perform the higher my bonus will be.", "Q2": "No, the amount of cash at each node of the web may be different each time.", "Q3": "To get the highest total score.", "Q4": "Only before moving the spider.", "Q5": "3 seconds"}, "trial_id": "mouselab_quiz_control", "trial_type": "survey-multi-choice", "trial_index": 6, "time_elapsed": 749766, "internal_node_id": "0.0-2.0-4.0"}}, {"uniqueid": "w95699543:a57827336", "current_trial": 7, "dateTime": 1693565617477, "trialdata": {"success": true, "trial_type": "fullscreen", "trial_index": 7, "time_elapsed": 757256, "internal_node_id": "0.0-2.1-0.1-0.1"}}, {"uniqueid": "w95699543:a57827336", "current_trial": 8, "dateTime": 1693565635404, "trialdata": {"view_history": [{"page_index": 0, "viewing_time": 11477}, {"page_index": 1, "viewing_time": 2158}, {"page_index": 2, "viewing_time": 2378}, {"page_index": 3, "viewing_time": 1908}], "rt": 17922, "trial_id": "mouselab_instructions_1_control", "trial_type": "instructions", "trial_index": 8, "time_elapsed": 775183, "internal_node_id": "0.0-2.1-1.1"}}, {"uniqueid": "w95699543:a57827336", "current_trial": 9, "dateTime": 1693565682251, "trialdata": {"revealed_states": [], "clicked_states": ["1", "23", "12", "2", "3", "8", "4", "9", "5", "6", "11", "17", "20", "19", "14", "13"], "num_clicks_accrued": [0, 0, 0, 0, 0, 0, 0, 0, 0, 0, 0, 0, 0], "stateRewards": ["", 10, -10, 10, 10, -10, -10, 10, 10, -10, 10, -10, -10, -10, -10, -10, -10, -10, -10, -10, 10, 10, 10, -10, -10, 10, -10, -10, -10, -10, -10, 10, 10, -10], "withholdReward": false, "trial_id": "practice_1", "block": "test", "trialIndex": 2, "score": 5.5, "costs": -8, "simulationMode": [null, null, null, null, null], "rewards": [10, -10, 10, 10, -10], "path": ["0", "0", "1", "2", "3", "4", "5"], "rt": [35338, 266, 187, 81, 529], "actions": ["up", "up", "up", "right", "up"], "actionTimes": [38511, 39273, 39962, 40536, 41585], "queries": {"click": {"state": {"target": ["1", "23", "12", "2", "3", "8", "4", "9", "5", "6", "11", "17", "20", "19", "14", "13"], "time": [5668, 7263, 8476, 11088, 12536, 15226, 16299, 17949, 19491, 22602, 24442, 28044, 29383, 32850, 33985, 35432]}, "edge": {"target": [], "time": []}}, "mouseover": {"state": {"target": ["1", "23", "12", "13", "2", "2", "3", "7", "7", "8", "4", "5", "9", "5", "5", "6", "4", "3", "8", "11", "18", "14", "14", "17", "20", "21", "14", "19", "14", "13", "12", "2", "2"], "time": [4218, 6333, 7802, 9619, 10517, 10836, 11534, 13352, 14052, 14435, 15918, 16883, 17352, 18352, 18603, 22186, 22958, 22974, 23007, 23237, 26402, 26484, 27217, 27735, 28537, 29918, 32007, 32502, 33384, 34519, 35851, 37255, 37702]}, "edge": {"target": [], "time": []}}, "mouseout": {"state": {"target": ["10", "1", "23", "12", "13", "2", "2", "3", "3", "7", "7", "8", "4", "5", "9", "5", "5", "4", "6", "4", "3", "8", "11", "18", "14", "14", "17", "20", "21", "14", "19", "14", "13", "12", "2"], "time": [2268, 6201, 7734, 9585, 10485, 10784, 11518, 12627, 13351, 13366, 14084, 15786, 16383, 17133, 18039, 18386, 19546, 20018, 22955, 22970, 23002, 23152, 25101, 26450, 26957, 27534, 28434, 29802, 31120, 32419, 33301, 34059, 35835, 37226, 37285]}, "edge": {"target": [], "time": []}}}, "displayed_time": "42.09", "trialTime": 46620, "trial_type": "mouselab-mdp", "trial_index": 9, "time_elapsed": 822029, "internal_node_id": "0.0-2.1-2.1-0.1"}}, {"uniqueid": "w95699543:a57827336", "current_trial": 10, "dateTime": 1693565709090, "trialdata": {"revealed_states": [], "clicked_states": ["1", "23", "24", "2", "25", "3", "8", "9"], "num_clicks_accrued": [0, 0, 0, 0, 0, 0, 0, 0, 0, 0, 0, 0, 0], "stateRewards": ["", 10, 10, -10, 10, -10, 10, -10, 10, 10, 10, -10, -10, 10, -10, 10, 10, 10, 10, 10, 10, -10, 10, 10, 10, -10, 10, 10, -10, 10, 10, -10, -10, -10], "withholdReward": false, "trial_id": "practice_2", "block": "test", "trialIndex": 3, "score": 29.5, "costs": -4, "simulationMode": [null, null, null, null, null], "rewards": [10, 10, -10, 10, 10], "path": ["0", "0", "1", "2", "3", "8", "9"], "rt": [16246, 308, 62, 140, 93], "actions": ["up", "up", "up", "left", "up"], "actionTimes": [17830, 18644, 19197, 19841, 20430], "queries": {"click": {"state": {"target": ["1", "23", "24", "2", "25", "3", "8", "9"], "time": [3166, 4781, 7471, 8939, 10877, 12087, 13855, 15284]}, "edge": {"target": [], "time": []}}, "mouseover": {"state": {"target": ["1", "23", "0", "12", "24", "2", "2", "10", "26", "25", "28", "10", "3", "8", "9"], "time": [2469, 3765, 5232, 5398, 6933, 8131, 8715, 9698, 9781, 10650, 11299, 11318, 11481, 12697, 14431]}, "edge": {"target": [], "time": []}}, "mouseout": {"state": {"target": ["2", "0", "1", "23", "0", "12", "24", "2", "2", "10", "26", "25", "28", "10", "3", "8", "9", "3"], "time": [896, 2395, 3714, 5215, 5265, 6550, 8064, 8382, 9028, 9714, 9897, 11282, 11316, 11331, 12665, 14398, 15948, 16716]}, "edge": {"target": [], "time": []}}}, "displayed_time": "20.95", "trialTime": 26652, "trial_type": "mouselab-mdp", "trial_index": 10, "time_elapsed": 848868, "internal_node_id": "0.0-2.1-2.1-1.1"}}, {"uniqueid": "w95699543:a57827336", "current_trial": 11, "dateTime": 1693565718129, "trialdata": {"view_history": [{"page_index": 0, "viewing_time": 7368}, {"page_index": 1, "viewing_time": 1664}], "rt": 9033, "trial_id": "mouselab_instructions_2_control", "trial_type": "instructions", "trial_index": 11, "time_elapsed": 857908, "internal_node_id": "0.0-2.1-3.1"}}, {"uniqueid": "w95699543:a57827336", "current_trial": 12, "dateTime": 1693565753730, "trialdata": {"rt": 35597, "response": {"Q0": "The cost for clicking on nodes may vary between nodes.", "Q1": "The better I perform the higher my bonus will be.", "Q2": "No, the amount of cash at each node of the web may be different each time.", "Q3": "To get the highest total score.", "Q4": "Only before moving the spider.", "Q5": "3 seconds"}, "question_order": [0, 1, 2, 3, 4, 5], "correct": {"Q0": "The cost for clicking on nodes may vary between nodes.", "Q1": "The better I perform the higher my bonus will be.", "Q2": "No, the amount of cash at each node of the web may be different each time.", "Q3": "To get the highest total score.", "Q4": "Only before moving the spider.", "Q5": "3 seconds"}, "trial_id": "mouselab_quiz_control", "trial_type": "survey-multi-choice", "trial_index": 12, "time_elapsed": 893509, "internal_node_id": "0.0-2.1-4.1"}}, {"uniqueid": "w95699543:a57827336", "current_trial": 13, "dateTime": 1693565761103, "trialdata": {"rt": 7365, "response": {"Q0": "No"}, "question_order": [0], "trial_id": "repeat_check", "trial_type": "survey-multi-choice", "trial_index": 13, "time_elapsed": 900882, "internal_node_id": "0.0-4.0-0.0"}}, {"uniqueid": "w95699543:a57827336", "current_trial": 14, "dateTime": 1693565782455, "trialdata": {"rt": 21341, "stimulus": "\n<h1> Get ready to start the game! </h1>\n\nThank you for reading the instructions. Get ready start with the 40 rounds of this game.\n<br><br>\nIf you need to take a break, feel free to take one after the end of a round, before continuing to the next one.\n<br><br>\nRemember, the more money the spider gets, the bigger your bonus will be!\n<br><br>\n<div style='text-align: center;'>Press <code>space</code> to begin.</div>\n\n<br><br>\n(If, at any point, the <code>space</code> key does not take you to the next page, click once on the text and try again.)", "response": " ", "trial_id": "mdp_ready", "trial_type": "html-keyboard-response", "trial_index": 14, "time_elapsed": 922234, "internal_node_id": "0.0-6.0-0.0"}}, {"uniqueid": "w95699543:a57827336", "current_trial": 15, "dateTime": 1693565824484, "trialdata": {"revealed_states": [], "clicked_states": ["1", "23", "12", "2", "3", "13", "24", "25", "14", "26", "29", "27"], "num_clicks_accrued": [0, 0, 0, 0, 0, 0, 0, 0, 0, 0, 0, 0, 0], "stateRewards": ["", -2, -3, -6, -7, 9, 16, 65, 5, -41, 20, -25, -1, -4, 1, -11, -49, -4, 71, 1, 39, -62, 52, -2, -3, 7, -9, -28, -70, 84, 8, 24, -58, 82], "withholdReward": false, "trial_id": "mdp_trial_1", "block": "test", "trialIndex": 4, "score": 60.2, "costs": -16.8, "simulationMode": [null, null, null, null, null], "rewards": [-2, -3, 7, -9, 84], "path": ["0", "0", "23", "24", "25", "26", "29"], "rt": [32111, 83, 565, 285, 91], "actions": ["left", "left", "left", "up", "left"], "actionTimes": [34254, 34834, 35915, 36701, 37307], "queries": {"click": {"state": {"target": ["1", "23", "12", "2", "3", "13", "24", "25", "14", "26", "29", "27"], "time": [4623, 6859, 8639, 11501, 13210, 16872, 18721, 21920, 24090, 26897, 28510, 30950]}, "edge": {"target": [], "time": []}}, "mouseover": {"state": {"target": ["1", "23", "12", "7", "3", "2", "18", "18", "7", "3", "4", "18", "18", "13", "12", "23", "24", "31", "30", "25", "18", "15", "14", "26", "26", "29", "27", "24"], "time": [3514, 5214, 7330, 9430, 10380, 10681, 12247, 12497, 12514, 12829, 13779, 16230, 16380, 16647, 17514, 17547, 17848, 19363, 19531, 20547, 22580, 22714, 22864, 25528, 26614, 27594, 29228, 31628]}, "edge": {"target": [], "time": []}}, "mouseout": {"state": {"target": ["1", "23", "12", "7", "3", "2", "18", "18", "7", "3", "4", "18", "18", "13", "12", "23", "24", "31", "30", "25", "18", "15", "14", "26", "26", "29", "27", "24"], "time": [5046, 6935, 9314, 10080, 10616, 12197, 12262, 12512, 12529, 13730, 16189, 16246, 16430, 16984, 17531, 17581, 19347, 19429, 20196, 22263, 22613, 22747, 24713, 25646, 27446, 29030, 31563, 33320]}, "edge": {"target": [], "time": []}}}, "displayed_time": "37.80", "trialTime": 41811, "trial_type": "mouselab-mdp", "trial_index": 15, "time_elapsed": 964262, "internal_node_id": "0.0-6.0-1.0-0.0"}}, {"uniqueid": "w95699543:a57827336", "current_trial": 16, "dateTime": 1693565858028, "trialdata": {"revealed_states": [], "clicked_states": ["12", "1", "23", "33", "20", "17", "29", "9", "5"], "num_clicks_accrued": [0, 0, 0, 0, 0, 0, 0, 0, 0, 0, 0, 0, 0], "stateRewards": ["", -1, 2, 7, 8, 75, 67, -11, 6, 52, -17, 38, -1, 4, -8, 14, 74, -37, -17, -12, 52, 55, 71, -2, -1, -5, 2, 21, 6, -88, -14, 64, -61, -47], "withholdReward": false, "trial_id": "mdp_trial_2", "block": "test", "trialIndex": 5, "score": 78.4, "costs": -12.600000000000001, "simulationMode": [null, null, null, null, null], "rewards": [-1, 2, 7, 8, 75], "path": ["0", "0", "1", "2", "3", "4", "5"], "rt": [26822, 461, 157, 85, 79], "actions": ["up", "up", "up", "right", "up"], "actionTimes": [28331, 29300, 29959, 30538, 31115], "queries": {"click": {"state": {"target": ["12", "1", "23", "33", "20", "17", "29", "9", "5"], "time": [3728, 5680, 7261, 8876, 10938, 13060, 15118, 17377, 19529]}, "edge": {"target": [], "time": []}}, "mouseover": {"state": {"target": ["12", "1", "23", "33", "19", "20", "17", "18", "29", "27", "11", "8", "9", "5", "3", "2", "2", "2", "2", "7", "3", "4"], "time": [2697, 4399, 6264, 8098, 9415, 9648, 11514, 13468, 13848, 15599, 15618, 15714, 15930, 18182, 20298, 20699, 21447, 22815, 24114, 24484, 25349, 26216]}, "edge": {"target": [], "time": []}}, "mouseout": {"state": {"target": ["0", "12", "1", "23", "33", "19", "20", "17", "18", "29", "27", "11", "8", "9", "5", "3", "2", "2", "2", "2", "7", "3", "4", "28", "24"], "time": [2382, 4198, 6050, 7332, 9315, 9447, 11398, 13466, 13482, 15190, 15616, 15647, 15747, 17833, 20250, 20399, 20981, 21599, 23100, 24399, 25150, 26133, 27144, 32800, 32815]}, "edge": {"target": [], "time": []}}}, "displayed_time": "31.62", "trialTime": 33325, "trial_type": "mouselab-mdp", "trial_index": 16, "time_elapsed": 997806, "internal_node_id": "0.0-6.0-1.0-1.0"}}, {"uniqueid": "w95699543:a57827336", "current_trial": 17, "dateTime": 1693565884488, "trialdata": {"revealed_states": [], "clicked_states": ["5", "9", "29", "17", "20", "33", "21"], "num_clicks_accrued": [0, 0, 0, 0, 0, 0, 0, 0, 0, 0, 0, 0, 0], "stateRewards": ["", -2, -3, 8, -4, -30, 31, 69, 9, 66, 87, 64, -2, 2, 8, 5, 47, 16, -39, -8, -54, 51, -19, 1, -2, -2, -11, -25, -26, 43, -9, 19, -84, 86], "withholdReward": false, "trial_id": "mdp_trial_3", "block": "test", "trialIndex": 6, "score": 64.2, "costs": -9.8, "simulationMode": [null, null, null, null, null], "rewards": [1, -2, -2, -9, 86], "path": ["0", "0", "23", "24", "25", "30", "33"], "rt": [19266, 21, 3, 46, 66], "actions": ["left", "left", "left", "down", "left"], "actionTimes": [20944, 21460, 21973, 22531, 23103], "queries": {"click": {"state": {"target": ["5", "9", "29", "17", "20", "33", "21"], "time": [4071, 5656, 7272, 9242, 11411, 14405, 16433]}, "edge": {"target": [], "time": []}}, "mouseover": {"state": {"target": ["1", "2", "4", "5", "9", "11", "27", "29", "29", "26", "1", "14", "17", "20", "33", "32", "21", "32", "31", "23"], "time": [3103, 3164, 3431, 3479, 4463, 6063, 6197, 6448, 6713, 7963, 8046, 8246, 8787, 10101, 12200, 14784, 16085, 17418, 18166, 18253]}, "edge": {"target": [], "time": []}}, "mouseout": {"state": {"target": ["31", "0", "1", "2", "4", "5", "9", "11", "27", "29", "29", "26", "1", "14", "17", "20", "33", "32", "21", "32", "31", "23", "7", "18", "13"], "time": [928, 3067, 3129, 3231, 3445, 4396, 6047, 6129, 6279, 6513, 7929, 7982, 8063, 8583, 9751, 11751, 14700, 15701, 16870, 18153, 18184, 24240, 24303, 24785, 24835]}, "edge": {"target": [], "time": []}}}, "displayed_time": "23.62", "trialTime": 26249, "trial_type": "mouselab-mdp", "trial_index": 17, "time_elapsed": 1024267, "internal_node_id": "0.0-6.0-1.0-2.0"}}, {"uniqueid": "w95699543:a57827336", "current_trial": 18, "dateTime": 1693565924444, "trialdata": {"revealed_states": [], "clicked_states": ["9", "17", "21", "33", "27", "31", "6", "11", "29", "20", "22"], "num_clicks_accrued": [0, 0, 0, 0, 0, 0, 0, 0, 0, 0, 0, 0, 0], "stateRewards": ["", 2, 4, -6, -13, -75, -81, 30, 7, 5, 59, -65, -1, -1, 7, 14, -38, 36, -41, 1, -54, -5, 64, 2, -1, 5, 6, -19, 79, 11, 16, -33, -50, 58], "withholdReward": false, "trial_id": "mdp_trial_4", "block": "test", "trialIndex": 7, "score": 54.599999999999994, "costs": -15.400000000000002, "simulationMode": [null, null, null, null, null], "rewards": [-1, -1, 7, 1, 64], "path": ["0", "0", "12", "13", "14", "19", "22"], "rt": [32560, 451, 136, 372, 120], "actions": ["right", "right", "right", "down", "left"], "actionTimes": [33894, 34849, 35483, 36352, 36967], "queries": {"click": {"state": {"target": ["9", "17", "21", "33", "27", "31", "6", "11", "29", "20", "22"], "time": [2551, 4894, 7125, 9466, 11759, 13543, 16188, 20697, 24103, 26649, 29465]}, "edge": {"target": [], "time": []}}, "mouseover": {"state": {"target": ["2", "9", "5", "17", "20", "21", "32", "33", "29", "27", "31", "22", "13", "18", "6", "4", "3", "8", "11", "26", "26", "11", "11", "26", "33", "25", "25", "29", "24", "13", "14", "20", "19", "22", "13", "18"], "time": [1876, 2228, 3310, 4544, 5526, 6677, 7976, 8864, 10026, 11326, 13142, 14477, 15344, 15376, 15745, 16777, 16844, 16927, 17210, 18310, 19221, 19562, 20495, 21142, 21292, 22778, 23512, 23728, 24777, 26030, 26077, 26430, 27343, 27577, 30030, 30360]}, "edge": {"target": [], "time": []}}, "mouseout": {"state": {"target": ["0", "2", "9", "5", "17", "17", "20", "21", "32", "33", "29", "27", "31", "22", "13", "18", "6", "4", "3", "8", "11", "26", "26", "11", "11", "26", "33", "25", "25", "29", "24", "13", "14", "20", "19", "22", "13", "18", "0"], "time": [1855, 1892, 2976, 4110, 4973, 5343, 6512, 7542, 8812, 9844, 11162, 12310, 13961, 15332, 15359, 15392, 16761, 16811, 16893, 17145, 18099, 18360, 19244, 19795, 21129, 21161, 22235, 23162, 23610, 24726, 25912, 26042, 26228, 26703, 27492, 30027, 30044, 38594, 38661]}, "edge": {"target": [], "time": []}}}, "displayed_time": "37.47", "trialTime": 39746, "trial_type": "mouselab-mdp", "trial_index": 18, "time_elapsed": 1064222, "internal_node_id": "0.0-6.0-1.0-3.0"}}, {"uniqueid": "w95699543:a57827336", "current_trial": 19, "dateTime": 1693565943865, "trialdata": {"revealed_states": [], "clicked_states": [], "num_clicks_accrued": [0, 0, 0, 0, 0, 0, 0, 0, 0, 0, 0, 0, 0], "stateRewards": ["", 1, 4, 7, -16, -84, -6, -46, -12, -7, -49, -26, -1, 2, -4, 2, 22, 37, -64, 1, 88, -13, -10, 1, -4, -2, 5, 2, -10, -34, 9, 66, 55, 38], "withholdReward": false, "trial_id": "mdp_trial_5", "block": "test", "trialIndex": 8, "score": 86, "costs": 0, "simulationMode": [null, null, null, null, null], "rewards": [-1, 2, -4, 1, 88], "path": ["0", "0", "12", "13", "14", "19", "20"], "rt": [12398, 55, 90, 429, 101], "actions": ["right", "right", "right", "down", "right"], "actionTimes": [14090, 14648, 15247, 16170, 16776], "queries": {"click": {"state": {"target": [], "time": []}, "edge": {"target": [], "time": []}}, "mouseover": {"state": {"target": ["1", "15", "17", "20", "19", "22"], "time": [4222, 4490, 4554, 5955, 9062, 9074]}, "edge": {"target": [], "time": []}}, "mouseout": {"state": {"target": ["0", "1", "15", "17", "20", "19", "22"], "time": [4193, 4405, 4521, 5706, 9055, 9072, 9089]}, "edge": {"target": [], "time": []}}}, "displayed_time": "17.28", "trialTime": 19193, "trial_type": "mouselab-mdp", "trial_index": 19, "time_elapsed": 1083643, "internal_node_id": "0.0-6.0-1.0-4.0"}}, {"uniqueid": "w95699543:a57827336", "current_trial": 20, "dateTime": 1693565998886, "trialdata": {"revealed_states": [], "clicked_states": ["33", "21", "17", "6", "9", "27"], "num_clicks_accrued": [0, 0, 0, 0, 0, 0, 0, 0, 0, 0, 0, 0, 0], "stateRewards": ["", 1, 2, -8, 9, 18, -83, -11, 6, -64, -48, 17, -2, -2, -5, -3, -24, -3, -86, -2, 48, -41, -22, -2, 4, 7, 8, 81, 13, -48, 10, 61, 19, 57], "withholdReward": false, "trial_id": "mdp_trial_6", "block": "test", "trialIndex": 9, "score": 89.6, "costs": -8.4, "simulationMode": [null, null, null, null, null], "rewards": [-2, 4, 7, 8, 81], "path": ["0", "0", "23", "24", "25", "26", "27"], "rt": [15755, 275, 91, 385, 198], "actions": ["left", "left", "left", "up", "up"], "actionTimes": [17291, 18065, 18648, 19542, 20238], "queries": {"click": {"state": {"target": ["33", "21", "17", "6", "9", "27"], "time": [2862, 5415, 7505, 9564, 11823, 13480]}, "edge": {"target": [], "time": []}}, "mouseover": {"state": {"target": ["31", "30", "33", "32", "21", "20", "17", "16", "4", "6", "5", "5", "9", "11", "27", "29", "25"], "time": [2170, 2319, 2486, 3554, 5087, 5918, 6953, 7904, 8971, 9221, 9987, 10320, 11504, 12469, 13186, 14187, 15403]}, "edge": {"target": [], "time": []}}, "mouseout": {"state": {"target": ["0", "31", "30", "33", "33", "32", "21", "20", "17", "16", "4", "6", "5", "5", "9", "11", "27", "29", "25", "21"], "time": [2066, 2253, 2437, 2941, 3287, 4490, 5802, 6853, 7565, 8819, 9052, 9646, 10137, 11004, 12237, 13070, 13887, 15353, 15488, 53357]}, "edge": {"target": [], "time": []}}}, "displayed_time": "20.74", "trialTime": 54779, "trial_type": "mouselab-mdp", "trial_index": 20, "time_elapsed": 1138664, "internal_node_id": "0.0-6.0-1.0-5.0"}}, {"uniqueid": "w95699543:a57827336", "current_trial": 21, "dateTime": 1693566039969, "trialdata": {"revealed_states": [], "clicked_states": ["20", "32", "29", "11", "5", "17", "18", "31", "33", "27", "10", "9"], "num_clicks_accrued": [0, 0, 0, 0, 0, 0, 0, 0, 0, 0, 0, 0, 0], "stateRewards": ["", -1, -3, 3, 5, 56, 39, 50, -1, -80, 33, -46, 1, -2, -6, -8, 87, 48, 54, -11, -20, -64, -54, -2, 3, -7, -3, 12, 88, 35, -16, -46, -70, -3], "withholdReward": false, "trial_id": "mdp_trial_7", "block": "test", "trialIndex": 10, "score": 22.2, "costs": -16.8, "simulationMode": [null, null, null, null, null], "rewards": [1, -2, -6, -8, 54], "path": ["0", "0", "12", "13", "14", "15", "18"], "rt": [29953, 306, 86, 285, 178], "actions": ["right", "right", "right", "up", "left"], "actionTimes": [31650, 32451, 33032, 33813, 34505], "queries": {"click": {"state": {"target": ["20", "32", "29", "11", "5", "17", "18", "31", "33", "27", "10", "9"], "time": [3021, 5081, 7340, 9465, 11409, 13855, 15458, 18207, 21166, 23702, 25747, 27432]}, "edge": {"target": [], "time": []}}, "mouseover": {"state": {"target": ["12", "19", "20", "21", "32", "33", "29", "27", "11", "9", "5", "6", "16", "17", "15", "18", "13", "22", "31", "30", "33", "25", "28", "27", "10", "8", "9", "9", "4", "15"], "time": [2275, 2441, 2708, 3659, 4608, 5792, 6691, 7959, 8925, 9908, 10992, 11875, 12277, 13426, 14844, 14959, 16126, 16459, 17726, 18742, 19042, 21575, 21742, 23258, 24509, 26895, 26911, 27208, 28492, 29226]}, "edge": {"target": [], "time": []}}, "mouseout": {"state": {"target": ["12", "19", "20", "21", "32", "33", "29", "27", "11", "9", "5", "5", "6", "16", "17", "15", "18", "13", "22", "31", "30", "33", "25", "28", "27", "10", "8", "9", "9", "9", "4", "15"], "time": [2326, 2591, 3509, 4359, 5154, 6643, 7893, 8893, 9808, 10875, 11513, 11842, 12009, 13160, 14842, 14892, 16109, 16193, 17310, 18726, 18859, 21542, 21592, 23142, 24375, 26893, 26909, 26942, 27488, 28460, 28509, 29358]}, "edge": {"target": [], "time": []}}}, "displayed_time": "35.01", "trialTime": 40866, "trial_type": "mouselab-mdp", "trial_index": 21, "time_elapsed": 1179748, "internal_node_id": "0.0-6.0-1.0-6.0"}}, {"uniqueid": "w95699543:a57827336", "current_trial": 22, "dateTime": 1693566059396, "trialdata": {"revealed_states": [], "clicked_states": [], "num_clicks_accrued": [0, 0, 0, 0, 0, 0, 0, 0, 0, 0, 0, 0, 0], "stateRewards": ["", -2, 2, -1, -6, 22, 6, 6, -5, 70, -42, 65, 1, 3, 5, -6, -67, -9, 3, 14, 7, -62, -13, -2, 4, 1, 16, 42, -21, -52, -8, 32, 53, 81], "withholdReward": false, "trial_id": "mdp_trial_8", "block": "test", "trialIndex": 11, "score": 30, "costs": 0, "simulationMode": [null, null, null, null, null], "rewards": [1, 3, 5, 14, 7], "path": ["0", "0", "12", "13", "14", "19", "20"], "rt": [6866, 57, 52, 49, 110], "actions": ["right", "right", "right", "down", "right"], "actionTimes": [9823, 10381, 10927, 11489, 12100], "queries": {"click": {"state": {"target": [], "time": []}, "edge": {"target": [], "time": []}}, "mouseover": {"state": {"target": ["23", "24", "26", "23", "12"], "time": [3772, 3973, 4402, 5539, 6939]}, "edge": {"target": [], "time": []}}, "mouseout": {"state": {"target": ["0", "23", "24", "26", "23", "12"], "time": [3724, 3955, 3988, 4605, 6555, 15408]}, "edge": {"target": [], "time": []}}}, "displayed_time": "16.96", "trialTime": 19204, "trial_type": "mouselab-mdp", "trial_index": 22, "time_elapsed": 1199174, "internal_node_id": "0.0-6.0-1.0-7.0"}}, {"uniqueid": "w95699543:a57827336", "current_trial": 23, "dateTime": 1693566092141, "trialdata": {"revealed_states": [], "clicked_states": ["23", "12", "21", "31", "33", "17", "18", "5", "11"], "num_clicks_accrued": [0, 0, 0, 0, 0, 0, 0, 0, 0, 0, 0, 0, 0], "stateRewards": ["", -1, 2, -2, 5, 80, -61, -27, 12, 44, -26, -75, -2, -4, 1, -16, 42, -49, -50, 4, -44, 2, 80, -2, -2, 5, -2, 59, 10, 24, 7, -48, -86, -44], "withholdReward": false, "trial_id": "mdp_trial_9", "block": "test", "trialIndex": 12, "score": 71.4, "costs": -12.600000000000001, "simulationMode": [null, null, null, null, null, null], "rewards": [-1, 2, -2, 5, 80], "path": ["0", "0", "1", "2", "3", "4", "5"], "rt": [21803, 3886, 160, 386, 333, 328], "actions": ["up", "up", "up", "up", "right", "up"], "actionTimes": [23300, 27189, 27842, 28735, 29564, 30394], "queries": {"click": {"state": {"target": ["23", "12", "21", "31", "33", "17", "18", "5", "11"], "time": [4149, 5901, 7926, 10341, 11931, 14679, 17520, 19989, 22071]}, "edge": {"target": [], "time": []}}, "mouseover": {"state": {"target": ["23", "24", "24", "23", "1", "12", "13", "20", "21", "32", "32", "31", "31", "30", "33", "32", "12", "13", "15", "17", "16", "18", "6", "5", "9", "11"], "time": [2228, 2297, 2812, 3731, 4562, 5562, 6350, 6562, 7580, 8430, 9100, 9762, 10063, 10865, 10913, 12613, 13746, 13779, 13929, 14248, 15597, 17279, 18413, 19480, 20646, 21679]}, "edge": {"target": [], "time": []}}, "mouseout": {"state": {"target": ["12", "0", "23", "24", "24", "23", "1", "12", "13", "20", "21", "32", "32", "31", "31", "30", "33", "32", "12", "13", "15", "17", "16", "18", "6", "5", "9", "11"], "time": [862, 2179, 2262, 2381, 3688, 4496, 5347, 6348, 6362, 7481, 8363, 8447, 9749, 9796, 10863, 10880, 12429, 13637, 13762, 13812, 14045, 14756, 16996, 18014, 19413, 20364, 21433, 22162]}, "edge": {"target": [], "time": []}}}, "displayed_time": "30.90", "trialTime": 32488, "trial_type": "mouselab-mdp", "trial_index": 23, "time_elapsed": 1231919, "internal_node_id": "0.0-6.0-1.0-8.0"}}, {"uniqueid": "w95699543:a57827336", "current_trial": 24, "dateTime": 1693566122019, "trialdata": {"revealed_states": [], "clicked_states": ["17", "21", "31", "33", "27", "11", "5"], "num_clicks_accrued": [0, 0, 0, 0, 0, 0, 0, 0, 0, 0, 0, 0, 0], "stateRewards": ["", 1, -4, -4, 8, 1, -79, 68, -10, -79, 8, -74, -1, -3, -6, 14, 43, 23, 9, 5, -51, 63, 61, -2, 4, 6, -10, 69, -32, 57, 15, -80, -80, -77], "withholdReward": false, "trial_id": "mdp_trial_10", "block": "test", "trialIndex": 13, "score": 57.2, "costs": -9.8, "simulationMode": [null, null, null, null, null], "rewards": [-2, 4, 6, -10, 69], "path": ["0", "0", "23", "24", "25", "26", "27"], "rt": [22227, 3, 661, 126, 303], "actions": ["left", "left", "left", "up", "up"], "actionTimes": [24033, 24536, 25727, 26343, 27153], "queries": {"click": {"state": {"target": ["17", "21", "31", "33", "27", "11", "5"], "time": [3624, 6280, 8608, 10908, 13158, 14768, 16928]}, "edge": {"target": [], "time": []}}, "mouseover": {"state": {"target": ["1", "7", "17", "20", "21", "32", "31", "22", "33", "29", "27", "11", "9", "5", "6", "4", "8", "11", "28", "24", "25", "25", "24", "24", "28"], "time": [2866, 2965, 3216, 4181, 5683, 7098, 8181, 9365, 10498, 11464, 12716, 14298, 15247, 16633, 17431, 20097, 20166, 20232, 20782, 20866, 20915, 21199, 22064, 22415, 23214]}, "edge": {"target": [], "time": []}}, "mouseout": {"state": {"target": ["11", "10", "1", "1", "7", "17", "20", "21", "32", "31", "22", "33", "29", "27", "11", "9", "5", "6", "4", "8", "11", "28", "24", "25", "25", "24", "24", "28"], "time": [950, 998, 1113, 2915, 2981, 4050, 5382, 6665, 7947, 8965, 10048, 11348, 12582, 14235, 15214, 16349, 17316, 20084, 20131, 20199, 20265, 20798, 20883, 20948, 22047, 22166, 23205, 23230]}, "edge": {"target": [], "time": []}}}, "displayed_time": "27.65", "trialTime": 29651, "trial_type": "mouselab-mdp", "trial_index": 24, "time_elapsed": 1261798, "internal_node_id": "0.0-6.0-1.0-9.0"}}, {"uniqueid": "w95699543:a57827336", "current_trial": 25, "dateTime": 1693566149101, "trialdata": {"revealed_states": [], "clicked_states": ["17", "21", "31", "33", "27", "9", "6", "16"], "num_clicks_accrued": [0, 0, 0, 0, 0, 0, 0, 0, 0, 0, 0, 0, 0], "stateRewards": ["", -1, 3, 1, -7, 56, 76, 57, 3, 11, -9, 14, 1, -2, 2, 8, -77, -3, 79, -5, 88, 24, -66, -2, -1, 7, -7, -30, 14, -76, 11, -36, 28, -6], "withholdReward": false, "trial_id": "mdp_trial_11", "block": "test", "trialIndex": 14, "score": 60.8, "costs": -11.200000000000001, "simulationMode": [null, null, null, null, null], "rewards": [-1, 3, 1, -7, 76], "path": ["0", "0", "1", "2", "3", "4", "6"], "rt": [19987, 168, 120, 76, 110], "actions": ["up", "up", "up", "right", "right"], "actionTimes": [22333, 22995, 23613, 24184, 24785], "queries": {"click": {"state": {"target": ["17", "21", "31", "33", "27", "9", "6", "16"], "time": [3893, 5821, 7827, 9976, 12098, 14000, 15929, 19778]}, "edge": {"target": [], "time": []}}, "mouseover": {"state": {"target": ["12", "13", "17", "20", "21", "22", "31", "32", "33", "29", "27", "11", "9", "5", "6", "4", "3", "11", "8", "3", "4", "16", "3"], "time": [3328, 3358, 3539, 4639, 5339, 6257, 7590, 8523, 9508, 10674, 11589, 12623, 13574, 14457, 15640, 16757, 16807, 17056, 17873, 17908, 17958, 19623, 20440]}, "edge": {"target": [], "time": []}}, "mouseout": {"state": {"target": ["0", "12", "13", "17", "20", "21", "22", "31", "32", "33", "29", "27", "11", "9", "5", "6", "4", "3", "11", "8", "3", "4", "6", "16"], "time": [3323, 3356, 3373, 4240, 5273, 5898, 7207, 8407, 9356, 10053, 11523, 12590, 13525, 14390, 15390, 16673, 16790, 16823, 17859, 17906, 17939, 17973, 18341, 19854]}, "edge": {"target": [], "time": []}}}, "displayed_time": "25.28", "trialTime": 26875, "trial_type": "mouselab-mdp", "trial_index": 25, "time_elapsed": 1288879, "internal_node_id": "0.0-6.0-1.0-10.0"}}, {"uniqueid": "w95699543:a57827336", "current_trial": 26, "dateTime": 1693566176601, "trialdata": {"revealed_states": [], "clicked_states": ["17", "21", "31", "32", "33", "27", "11", "6"], "num_clicks_accrued": [0, 0, 0, 0, 0, 0, 0, 0, 0, 0, 0, 0, 0], "stateRewards": ["", -1, -3, -7, -4, -85, -70, 79, 8, 84, -66, 42, 2, -2, -3, -16, -54, -66, 68, -3, 21, -14, 7, -2, -1, -3, -8, 75, 80, 86, -7, -84, 73, -16], "withholdReward": false, "trial_id": "mdp_trial_12", "block": "test", "trialIndex": 15, "score": 48.8, "costs": -11.200000000000001, "simulationMode": [null, null, null, null, null], "rewards": [-2, -1, -3, -7, 73], "path": ["0", "0", "23", "24", "25", "30", "32"], "rt": [20763, 507, 157, 126, 146], "actions": ["left", "left", "left", "down", "down"], "actionTimes": [22442, 23451, 24100, 24721, 25356], "queries": {"click": {"state": {"target": ["17", "21", "31", "32", "33", "27", "11", "6"], "time": [3135, 4862, 7088, 9141, 11355, 13153, 15240, 17156]}, "edge": {"target": [], "time": []}}, "mouseover": {"state": {"target": ["15", "17", "20", "21", "22", "31", "32", "22", "30", "33", "33", "29", "27", "11", "9", "11", "5", "6", "16", "1", "25"], "time": [2542, 2876, 3759, 4458, 5324, 6741, 7608, 9875, 10560, 10577, 10942, 11825, 12791, 13659, 13941, 14958, 15959, 16926, 17826, 18692, 18742]}, "edge": {"target": [], "time": []}}, "mouseout": {"state": {"target": ["3", "2", "1", "0", "15", "17", "20", "21", "22", "31", "32", "22", "31", "30", "33", "33", "29", "27", "11", "9", "11", "5", "6", "16", "1", "25"], "time": [799, 841, 1008, 2485, 2575, 3207, 4425, 5208, 6324, 7508, 9492, 10509, 10559, 10575, 10625, 11435, 12729, 13642, 13708, 14741, 15576, 16592, 17662, 18658, 18709, 18775]}, "edge": {"target": [], "time": []}}}, "displayed_time": "25.86", "trialTime": 27308, "trial_type": "mouselab-mdp", "trial_index": 26, "time_elapsed": 1316379, "internal_node_id": "0.0-6.0-1.0-11.0"}}, {"uniqueid": "w95699543:a57827336", "current_trial": 27, "dateTime": 1693566196279, "trialdata": {"revealed_states": [], "clicked_states": ["20", "31", "33", "27", "9"], "num_clicks_accrued": [0, 0, 0, 0, 0, 0, 0, 0, 0, 0, 0, 0, 0], "stateRewards": ["", -2, -1, -4, -15, -14, -67, 32, -3, -59, 63, 31, 2, -1, -7, -15, 71, -66, -27, -3, -54, -39, 72, 2, 1, 1, -13, 77, -40, 35, -9, 35, 75, 57], "withholdReward": false, "trial_id": "mdp_trial_13", "block": "test", "trialIndex": 16, "score": 61, "costs": -7, "simulationMode": [null, null, null, null, null], "rewards": [2, 1, 1, -13, 77], "path": ["0", "0", "23", "24", "25", "26", "27"], "rt": [13497, 108, 86, 18, 73], "actions": ["left", "left", "left", "up", "up"], "actionTimes": [15348, 15956, 16548, 17063, 17635], "queries": {"click": {"state": {"target": ["20", "31", "33", "27", "9"], "time": [3619, 5983, 8492, 10638, 12981]}, "edge": {"target": [], "time": []}}, "mouseover": {"state": {"target": ["12", "19", "20", "21", "31", "32", "32", "33", "29", "27", "29", "11", "8", "9"], "time": [2809, 2876, 3178, 4027, 5694, 6543, 6793, 7911, 9044, 10164, 11477, 12227, 12277, 12528]}, "edge": {"target": [], "time": []}}, "mouseout": {"state": {"target": ["25", "0", "12", "19", "20", "21", "31", "32", "32", "33", "29", "27", "29", "27", "11", "8", "9"], "time": [743, 2804, 2827, 2944, 3977, 5296, 6411, 6626, 7712, 8585, 10128, 11160, 12161, 12193, 12243, 12293, 13877]}, "edge": {"target": [], "time": []}}}, "displayed_time": "18.15", "trialTime": 19472, "trial_type": "mouselab-mdp", "trial_index": 27, "time_elapsed": 1336058, "internal_node_id": "0.0-6.0-1.0-12.0"}}, {"uniqueid": "w95699543:a57827336", "current_trial": 28, "dateTime": 1693566219435, "trialdata": {"revealed_states": [], "clicked_states": ["20", "32", "29", "27", "5", "16"], "num_clicks_accrued": [0, 0, 0, 0, 0, 0, 0, 0, 0, 0, 0, 0, 0], "stateRewards": ["", -2, 2, 8, -6, -25, 3, 87, 2, -62, -2, 74, -2, -1, 2, -1, 79, 49, -37, -14, 5, 67, -9, -1, 2, -2, 5, 15, 38, 32, -14, -38, -38, 30], "withholdReward": false, "trial_id": "mdp_trial_14", "block": "test", "trialIndex": 17, "score": 68.6, "costs": -8.4, "simulationMode": [null, null, null, null, null], "rewards": [-2, -1, 2, -1, 79], "path": ["0", "0", "12", "13", "14", "15", "16"], "rt": [15941, 45, 1151, 371, 203], "actions": ["right", "right", "right", "up", "up"], "actionTimes": [17511, 18060, 19730, 20602, 21316], "queries": {"click": {"state": {"target": ["20", "32", "29", "27", "5", "16"], "time": [2927, 5459, 7737, 9305, 11477, 13383]}, "edge": {"target": [], "time": []}}, "mouseover": {"state": {"target": ["12", "13", "14", "20", "21", "32", "33", "29", "27", "11", "9", "5", "16", "17", "15", "18"], "time": [2112, 2161, 2210, 2679, 3428, 4945, 6035, 7379, 8161, 9745, 9944, 11196, 11961, 13878, 15828, 15994]}, "edge": {"target": [], "time": []}}, "mouseout": {"state": {"target": ["11", "2", "1", "12", "13", "14", "20", "21", "32", "33", "29", "27", "11", "9", "5", "16", "17", "15", "18"], "time": [593, 694, 744, 2146, 2195, 2227, 3327, 4520, 5895, 6978, 8111, 9728, 9779, 10828, 11895, 13728, 15812, 15844, 16062]}, "edge": {"target": [], "time": []}}}, "displayed_time": "21.81", "trialTime": 22945, "trial_type": "mouselab-mdp", "trial_index": 28, "time_elapsed": 1359213, "internal_node_id": "0.0-6.0-1.0-13.0"}}, {"uniqueid": "w95699543:a57827336", "current_trial": 29, "dateTime": 1693566255060, "trialdata": {"revealed_states": [], "clicked_states": ["17", "21", "33", "32", "27", "29", "9", "5", "16", "6", "11", "22", "31"], "num_clicks_accrued": [0, 0, 0, 0, 0, 0, 0, 0, 0, 0, 0, 0, 0], "stateRewards": ["", -1, 3, -7, 16, -32, -74, -48, 2, 10, 15, -30, 1, 1, -2, 10, 12, -83, 67, 13, -66, 47, 65, -2, 4, 2, -14, -8, -57, 24, 9, 65, 12, 46], "withholdReward": false, "trial_id": "mdp_trial_15", "block": "test", "trialIndex": 18, "score": 59.8, "costs": -18.2, "simulationMode": [null, null, null, null, null], "rewards": [1, 1, -2, 13, 65], "path": ["0", "0", "12", "13", "14", "19", "22"], "rt": [29412, 100, 154, 397, 89], "actions": ["right", "right", "right", "down", "left"], "actionTimes": [31034, 31634, 32288, 33182, 33772], "queries": {"click": {"state": {"target": ["17", "21", "33", "32", "27", "29", "9", "5", "16", "6", "11", "22", "31"], "time": [3159, 5415, 8065, 9594, 11405, 13042, 14665, 16599, 18518, 20127, 21821, 24251, 25921]}, "edge": {"target": [], "time": []}}, "mouseover": {"state": {"target": ["17", "20", "21", "32", "33", "32", "25", "26", "27", "29", "11", "8", "9", "5", "6", "16", "6", "3", "8", "11", "11", "25", "24", "19", "22", "31", "19", "20", "14", "13", "12"], "time": [2832, 3781, 4681, 6314, 7482, 8815, 10099, 10237, 10465, 11964, 13500, 13517, 13799, 15416, 17083, 17417, 19683, 20615, 20650, 20716, 20982, 22700, 23249, 23650, 23899, 25149, 26782, 27433, 29682, 30000, 30282]}, "edge": {"target": [], "time": []}}, "mouseout": {"state": {"target": ["17", "20", "21", "32", "33", "32", "25", "26", "27", "27", "29", "27", "11", "8", "9", "5", "6", "16", "6", "3", "8", "11", "11", "25", "24", "19", "22", "31", "19", "20", "14", "13"], "time": [3582, 4598, 5799, 7397, 8632, 10081, 10115, 10365, 11490, 11814, 13120, 13498, 13516, 13531, 15166, 17066, 17099, 19482, 20599, 20649, 20700, 20849, 22416, 22716, 23266, 23782, 24800, 26716, 26799, 29642, 29733, 30100]}, "edge": {"target": [], "time": []}}}, "displayed_time": "34.27", "trialTime": 35406, "trial_type": "mouselab-mdp", "trial_index": 29, "time_elapsed": 1394838, "internal_node_id": "0.0-6.0-1.0-14.0"}}, {"uniqueid": "w95699543:a57827336", "current_trial": 30, "dateTime": 1693566278903, "trialdata": {"revealed_states": [], "clicked_states": ["20", "21", "22", "31", "32", "33", "29", "27", "28", "10"], "num_clicks_accrued": [0, 0, 0, 0, 0, 0, 0, 0, 0, 0, 0, 0, 0], "stateRewards": ["", -2, 1, -7, -8, -37, -76, -87, 11, 30, -63, 80, -1, 4, 2, -1, 42, 17, 52, -3, -75, -80, -68, 2, -3, -5, -15, -48, 82, 24, -7, 5, -22, -71], "withholdReward": false, "trial_id": "mdp_trial_16", "block": "test", "trialIndex": 19, "score": 47, "costs": -14.000000000000002, "simulationMode": [null, null, null, null, null], "rewards": [2, -3, -5, -15, 82], "path": ["0", "0", "23", "24", "25", "26", "28"], "rt": [18043, 72, 83, 35, 49], "actions": ["left", "left", "left", "up", "right"], "actionTimes": [19706, 20283, 20860, 21396, 21959], "queries": {"click": {"state": {"target": ["20", "21", "22", "31", "32", "33", "29", "27", "28", "10"], "time": [3186, 4788, 6492, 8400, 9996, 11691, 13245, 14882, 16426, 18043]}, "edge": {"target": [], "time": []}}, "mouseover": {"state": {"target": ["13", "20", "21", "22", "31", "30", "31", "32", "33", "33", "29", "27", "28", "10"], "time": [2592, 2909, 3625, 5442, 7008, 7225, 7442, 8925, 10508, 10824, 12175, 13858, 15341, 17509]}, "edge": {"target": [], "time": []}}, "mouseout": {"state": {"target": ["12", "13", "20", "20", "21", "22", "31", "30", "31", "32", "33", "33", "29", "27", "28", "10", "28", "23"], "time": [1024, 2607, 3280, 3575, 5225, 6892, 7097, 7358, 8858, 10065, 10524, 12092, 13741, 15292, 17010, 18659, 23208, 23243]}, "edge": {"target": [], "time": []}}}, "displayed_time": "22.46", "trialTime": 23642, "trial_type": "mouselab-mdp", "trial_index": 30, "time_elapsed": 1418681, "internal_node_id": "0.0-6.0-1.0-15.0"}}, {"uniqueid": "w95699543:a57827336", "current_trial": 31, "dateTime": 1693566300178, "trialdata": {"revealed_states": [], "clicked_states": ["21", "22", "20", "17", "16", "6", "5"], "num_clicks_accrued": [0, 0, 0, 0, 0, 0, 0, 0, 0, 0, 0, 0, 0], "stateRewards": ["", -2, 2, 3, -7, 76, 63, 21, 15, 35, -8, -44, 1, 1, -2, -12, 23, 24, 76, -9, 46, 66, -49, -2, -1, 7, 12, 40, -71, -45, -6, 38, -49, 46], "withholdReward": false, "trial_id": "mdp_trial_17", "block": "test", "trialIndex": 20, "score": 62.2, "costs": -9.8, "simulationMode": [null, null, null, null, null], "rewards": [-2, 2, 3, -7, 76], "path": ["0", "0", "1", "2", "3", "4", "5"], "rt": [15072, 559, 194, 17, 61], "actions": ["up", "up", "up", "right", "up"], "actionTimes": [16373, 17433, 18119, 18625, 19220], "queries": {"click": {"state": {"target": ["21", "22", "20", "17", "16", "6", "5"], "time": [2884, 4395, 6099, 7708, 9444, 11574, 13142]}, "edge": {"target": [], "time": []}}, "mouseover": {"state": {"target": ["12", "13", "14", "19", "21", "22", "19", "20", "17", "16", "4", "6", "5", "9"], "time": [2075, 2188, 2257, 2407, 2606, 3673, 4808, 4857, 6556, 8356, 10222, 10590, 12256, 14056]}, "edge": {"target": [], "time": []}}, "mouseout": {"state": {"target": ["0", "12", "13", "14", "19", "21", "22", "19", "20", "17", "16", "4", "6", "5", "9", "8"], "time": [1924, 2173, 2222, 2323, 2538, 3306, 4807, 4823, 6506, 8090, 9890, 10289, 11646, 13589, 20624, 20656]}, "edge": {"target": [], "time": []}}}, "displayed_time": "19.72", "trialTime": 21062, "trial_type": "mouselab-mdp", "trial_index": 31, "time_elapsed": 1439956, "internal_node_id": "0.0-6.0-1.0-16.0"}}, {"uniqueid": "w95699543:a57827336", "current_trial": 32, "dateTime": 1693566325635, "trialdata": {"revealed_states": [], "clicked_states": ["22", "21", "20", "17", "16", "18", "7", "6", "5", "9"], "num_clicks_accrued": [0, 0, 0, 0, 0, 0, 0, 0, 0, 0, 0, 0, 0], "stateRewards": ["", -1, 1, -6, -1, 80, 23, 2, -11, 73, -81, 59, 1, 3, 5, -1, -26, 28, -3, 16, -59, -13, -50, -2, -2, 2, 15, -50, 86, 17, -4, 37, 35, 44], "withholdReward": false, "trial_id": "mdp_trial_18", "block": "test", "trialIndex": 21, "score": 59, "costs": -14.000000000000002, "simulationMode": [null, null, null, null, null], "rewards": [-1, 1, -6, -1, 80], "path": ["0", "0", "1", "2", "3", "4", "5"], "rt": [19366, 465, 153, 24, 118], "actions": ["up", "up", "up", "right", "up"], "actionTimes": [20908, 21869, 22540, 23077, 23704], "queries": {"click": {"state": {"target": ["22", "21", "20", "17", "16", "18", "7", "6", "5", "9"], "time": [4274, 6019, 7730, 9439, 11014, 12543, 14120, 15664, 17330, 19087]}, "edge": {"target": [], "time": []}}, "mouseover": {"state": {"target": ["1", "12", "13", "14", "20", "21", "22", "21", "20", "17", "16", "18", "7", "6", "5", "9", "3"], "time": [2166, 2550, 2600, 2682, 2784, 3299, 3883, 4850, 6466, 8251, 9950, 11933, 13617, 14883, 16601, 18017, 19584]}, "edge": {"target": [], "time": []}}, "mouseout": {"state": {"target": ["10", "1", "12", "13", "14", "20", "21", "22", "21", "20", "17", "16", "16", "18", "7", "6", "5", "9", "3"], "time": [633, 2516, 2583, 2650, 2733, 2950, 3868, 4373, 6434, 8200, 9505, 11105, 11634, 12644, 14170, 16317, 17768, 19567, 19617]}, "edge": {"target": [], "time": []}}}, "displayed_time": "24.20", "trialTime": 25247, "trial_type": "mouselab-mdp", "trial_index": 32, "time_elapsed": 1465413, "internal_node_id": "0.0-6.0-1.0-17.0"}}, {"uniqueid": "w95699543:a57827336", "current_trial": 33, "dateTime": 1693566344598, "trialdata": {"revealed_states": [], "clicked_states": ["32", "33"], "num_clicks_accrued": [0, 0, 0, 0, 0, 0, 0, 0, 0, 0, 0, 0, 0], "stateRewards": ["", -2, 3, 3, -14, 62, 36, 49, 16, 11, 17, -84, 2, -1, 6, 2, -82, -73, 49, -6, -87, 48, 50, -1, -2, -1, -16, -11, 37, -44, 4, 55, 73, -10], "withholdReward": false, "trial_id": "mdp_trial_19", "block": "test", "trialIndex": 22, "score": 70.2, "costs": -2.8, "simulationMode": [null, null, null, null, null], "rewards": [-1, -2, -1, 4, 73], "path": ["0", "0", "23", "24", "25", "30", "32"], "rt": [6443, 54, 2, 494, 157], "actions": ["left", "left", "left", "down", "down"], "actionTimes": [8524, 9073, 9585, 10595, 11241], "queries": {"click": {"state": {"target": ["32", "33"], "time": [4793, 6331]}, "edge": {"target": [], "time": []}}, "mouseover": {"state": {"target": ["23", "31", "32", "31", "32", "33", "30", "31"], "time": [2548, 2782, 3115, 3915, 4433, 5332, 6715, 6764]}, "edge": {"target": [], "time": []}}, "mouseout": {"state": {"target": ["2", "12", "0", "23", "31", "32", "31", "32", "33", "30", "31"], "time": [965, 1581, 2516, 2598, 2914, 3831, 4266, 5282, 6698, 6731, 17200]}, "edge": {"target": [], "time": []}}}, "displayed_time": "16.08", "trialTime": 18740, "trial_type": "mouselab-mdp", "trial_index": 33, "time_elapsed": 1484376, "internal_node_id": "0.0-6.0-1.0-18.0"}}, {"uniqueid": "w95699543:a57827336", "current_trial": 34, "dateTime": 1693566367951, "trialdata": {"revealed_states": [], "clicked_states": ["21", "20", "22", "17", "16", "18", "6", "5", "9"], "num_clicks_accrued": [0, 0, 0, 0, 0, 0, 0, 0, 0, 0, 0, 0, 0], "stateRewards": ["", -2, 4, -5, -12, 85, -24, -18, -15, -78, -22, 26, -1, -1, 2, 14, -45, 52, -23, 7, -33, 24, -6, -2, -4, 5, -7, -16, 36, -39, 5, 71, -87, -23], "withholdReward": false, "trial_id": "mdp_trial_20", "block": "test", "trialIndex": 23, "score": 57.4, "costs": -12.600000000000001, "simulationMode": [null, null, null, null, null], "rewards": [-2, 4, -5, -12, 85], "path": ["0", "0", "1", "2", "3", "4", "5"], "rt": [17475, 87, 95, 34, 139], "actions": ["up", "up", "up", "right", "up"], "actionTimes": [18818, 19409, 20000, 20540, 21194], "queries": {"click": {"state": {"target": ["21", "20", "22", "17", "16", "18", "6", "5", "9"], "time": [2358, 4379, 5997, 7824, 9425, 11088, 12605, 15136, 16862]}, "edge": {"target": [], "time": []}}, "mouseover": {"state": {"target": ["22", "19", "21", "20", "20", "19", "22", "17", "17", "16", "18", "6", "7", "4", "5", "9"], "time": [1704, 1755, 2088, 2854, 3204, 4754, 4888, 6454, 6821, 8454, 10238, 11804, 13370, 14520, 14588, 16171]}, "edge": {"target": [], "time": []}}, "mouseout": {"state": {"target": ["0", "22", "19", "21", "20", "20", "19", "22", "17", "17", "16", "18", "6", "7", "4", "5", "9", "9", "8", "2"], "time": [1004, 1720, 1820, 2838, 2904, 4737, 4804, 6068, 6471, 8254, 10004, 11152, 13121, 14495, 14553, 15871, 16934, 17638, 22555, 22570]}, "edge": {"target": [], "time": []}}}, "displayed_time": "21.71", "trialTime": 23116, "trial_type": "mouselab-mdp", "trial_index": 34, "time_elapsed": 1507730, "internal_node_id": "0.0-6.0-1.0-19.0"}}, {"uniqueid": "w95699543:a57827336", "current_trial": 35, "dateTime": 1693566387160, "trialdata": {"revealed_states": [], "clicked_states": ["22", "21", "20", "17", "16", "18"], "num_clicks_accrued": [0, 0, 0, 0, 0, 0, 0, 0, 0, 0, 0, 0, 0], "stateRewards": ["", 2, -1, 5, 8, 75, -35, -77, 1, -9, -81, -58, 1, 2, -7, 5, 77, -16, 19, 16, -10, -18, 40, -2, 3, 7, -5, 64, 1, -62, 10, 27, 10, 65], "withholdReward": false, "trial_id": "mdp_trial_21", "block": "test", "trialIndex": 24, "score": 69.6, "costs": -8.4, "simulationMode": [null, null, null, null, null], "rewards": [1, 2, -7, 5, 77], "path": ["0", "0", "12", "13", "14", "15", "16"], "rt": [13219, 71, 37, 314, 44], "actions": ["right", "right", "right", "up", "up"], "actionTimes": [14511, 15084, 15617, 16458, 17022], "queries": {"click": {"state": {"target": ["22", "21", "20", "17", "16", "18"], "time": [3914, 5522, 7247, 8999, 10670, 12331]}, "edge": {"target": [], "time": []}}, "mouseover": {"state": {"target": ["12", "17", "17", "14", "22", "21", "22", "21", "20", "17", "16", "18"], "time": [1795, 1895, 2245, 2744, 3227, 3445, 3543, 4377, 6044, 7743, 9677, 11527]}, "edge": {"target": [], "time": []}}, "mouseout": {"state": {"target": ["12", "17", "17", "14", "22", "21", "22", "21", "20", "17", "16", "18"], "time": [1810, 1944, 2715, 2877, 3295, 3511, 4311, 5995, 7677, 9477, 11311, 12399]}, "edge": {"target": [], "time": []}}}, "displayed_time": "17.55", "trialTime": 18998, "trial_type": "mouselab-mdp", "trial_index": 35, "time_elapsed": 1526938, "internal_node_id": "0.0-6.0-1.0-20.0"}}, {"uniqueid": "w95699543:a57827336", "current_trial": 36, "dateTime": 1693566406387, "trialdata": {"revealed_states": [], "clicked_states": ["22", "21", "20", "17"], "num_clicks_accrued": [0, 0, 0, 0, 0, 0, 0, 0, 0, 0, 0, 0, 0], "stateRewards": ["", 2, -1, 3, -12, -83, 6, -33, 9, 28, 24, -50, -2, -1, -2, -5, -87, 37, 82, 12, 80, -5, 10, -2, -3, -6, 9, 22, -1, 16, 9, 77, -62, 58], "withholdReward": false, "trial_id": "mdp_trial_22", "block": "test", "trialIndex": 25, "score": 81.4, "costs": -5.6, "simulationMode": [null, null, null, null, null], "rewards": [-2, -1, -2, 12, 80], "path": ["0", "0", "12", "13", "14", "19", "20"], "rt": [8736, 77, 108, 188, 184], "actions": ["right", "right", "right", "down", "right"], "actionTimes": [9825, 10415, 11027, 11724, 12404], "queries": {"click": {"state": {"target": ["22", "21", "20", "17"], "time": [2617, 4469, 6516, 8042]}, "edge": {"target": [], "time": []}}, "mouseover": {"state": {"target": ["12", "13", "14", "14", "19", "22", "21", "20", "20", "17", "15", "12"], "time": [1798, 1818, 1851, 1984, 2119, 2368, 3104, 4851, 5151, 6918, 8736, 8801]}, "edge": {"target": [], "time": []}}, "mouseout": {"state": {"target": ["0", "12", "13", "14", "14", "19", "22", "21", "20", "20", "17", "15", "12", "1", "23"], "time": [1795, 1817, 1833, 1902, 2001, 2269, 2984, 4834, 4884, 6885, 8735, 8751, 8985, 13552, 13619]}, "edge": {"target": [], "time": []}}}, "displayed_time": "15.09", "trialTime": 19014, "trial_type": "mouselab-mdp", "trial_index": 36, "time_elapsed": 1546165, "internal_node_id": "0.0-6.0-1.0-21.0"}}, {"uniqueid": "w95699543:a57827336", "current_trial": 37, "dateTime": 1693566423632, "trialdata": {"revealed_states": [], "clicked_states": ["22", "21"], "num_clicks_accrued": [0, 0, 0, 0, 0, 0, 0, 0, 0, 0, 0, 0, 0], "stateRewards": ["", -1, 4, -3, 3, 57, -61, 5, -11, 23, -1, 34, -2, -4, -1, -13, 27, 38, -36, 4, -45, 21, 88, 1, -2, -1, 1, -69, -5, -78, -12, -9, 38, -54], "withholdReward": false, "trial_id": "mdp_trial_23", "block": "test", "trialIndex": 26, "score": 82.2, "costs": -2.8, "simulationMode": [null, null, null, null, null], "rewards": [-2, -4, -1, 4, 88], "path": ["0", "0", "12", "13", "14", "19", "22"], "rt": [5233, 106, 59, 308, 111], "actions": ["right", "right", "right", "down", "left"], "actionTimes": [6736, 7331, 7901, 8715, 9318], "queries": {"click": {"state": {"target": ["22", "21"], "time": [3306, 5021]}, "edge": {"target": [], "time": []}}, "mouseover": {"state": {"target": ["22", "22", "22", "21"], "time": [2490, 2757, 3057, 3823]}, "edge": {"target": [], "time": []}}, "mouseout": {"state": {"target": ["23", "0", "22", "22", "22", "21"], "time": [755, 2454, 2522, 2772, 3706, 5673]}, "edge": {"target": [], "time": []}}}, "displayed_time": "15.50", "trialTime": 16998, "trial_type": "mouselab-mdp", "trial_index": 37, "time_elapsed": 1563411, "internal_node_id": "0.0-6.0-1.0-22.0"}}, {"uniqueid": "w95699543:a57827336", "current_trial": 38, "dateTime": 1693566455520, "trialdata": {"revealed_states": [], "clicked_states": ["22", "21", "20", "17", "16", "18", "7", "6", "5", "9", "11", "10"], "num_clicks_accrued": [0, 0, 0, 0, 0, 0, 0, 0, 0, 0, 0, 0, 0], "stateRewards": ["", -1, 4, -6, -5, -22, -38, -38, -2, -56, 88, 14, -1, -1, -7, -6, 61, -60, 21, 11, 57, 31, -30, -2, -2, 6, -9, -44, -70, -44, -15, 34, 16, -78], "withholdReward": false, "trial_id": "mdp_trial_24", "block": "test", "trialIndex": 27, "score": 66.2, "costs": -16.8, "simulationMode": [null, null, null, null, null], "rewards": [-1, 4, -6, -2, 88], "path": ["0", "0", "1", "2", "3", "8", "10"], "rt": [25575, 45, 56, 64, 138], "actions": ["up", "up", "up", "left", "down"], "actionTimes": [27091, 27644, 28204, 28779, 29419], "queries": {"click": {"state": {"target": ["22", "21", "20", "17", "16", "18", "7", "6", "5", "9", "11", "10"], "time": [3178, 5149, 7024, 8816, 11222, 12835, 15048, 17091, 18759, 20359, 21903, 23552]}, "edge": {"target": [], "time": []}}, "mouseover": {"state": {"target": ["22", "21", "20", "17", "16", "18", "7", "6", "5", "9", "11", "10", "28", "27"], "time": [2764, 3779, 5635, 7913, 9546, 12313, 14714, 15746, 17680, 19314, 21196, 22746, 24613, 25414]}, "edge": {"target": [], "time": []}}, "mouseout": {"state": {"target": ["0", "22", "21", "20", "17", "16", "18", "7", "6", "5", "9", "11", "11", "10", "10", "28", "27", "1", "0"], "time": [2414, 3613, 5226, 7546, 9379, 11862, 12877, 15105, 17597, 19264, 20830, 21984, 22413, 23637, 24246, 25146, 26129, 31131, 31163]}, "edge": {"target": [], "time": []}}}, "displayed_time": "29.91", "trialTime": 31625, "trial_type": "mouselab-mdp", "trial_index": 38, "time_elapsed": 1595298, "internal_node_id": "0.0-6.0-1.0-23.0"}}, {"uniqueid": "w95699543:a57827336", "current_trial": 39, "dateTime": 1693566493641, "trialdata": {"revealed_states": [], "clicked_states": ["22", "21", "20", "17", "16", "18", "6", "7", "5", "9", "11", "10", "27", "29", "28", "31", "32", "33"], "num_clicks_accrued": [0, 0, 0, 0, 0, 0, 0, 0, 0, 0, 0, 0, 0], "stateRewards": ["", 1, 1, 6, -14, -40, 37, 16, -13, 33, -68, 49, 2, 4, 3, 6, 55, 27, 32, 10, -65, 20, -87, 2, 1, -6, -5, -42, 12, 29, -8, 16, 76, -33], "withholdReward": false, "trial_id": "mdp_trial_25", "block": "test", "trialIndex": 28, "score": 39.80000000000001, "costs": -25.199999999999992, "simulationMode": [null, null, null, null, null], "rewards": [2, 1, -6, -8, 76], "path": ["0", "0", "23", "24", "25", "30", "32"], "rt": [31915, 78, 120, 73, 117], "actions": ["left", "left", "left", "down", "down"], "actionTimes": [33525, 34102, 34727, 35296, 35907], "queries": {"click": {"state": {"target": ["22", "21", "20", "17", "16", "18", "6", "7", "5", "9", "11", "10", "27", "29", "28", "31", "32", "33"], "time": [2849, 4464, 6441, 8280, 9826, 11495, 13116, 14769, 16590, 18183, 20243, 22070, 23758, 25358, 26909, 28470, 30027, 31680]}, "edge": {"target": [], "time": []}}, "mouseover": {"state": {"target": ["12", "13", "22", "21", "20", "17", "16", "18", "7", "4", "4", "6", "7", "4", "5", "9", "11", "10", "27", "29", "26", "28", "31", "32", "33"], "time": [2120, 2269, 2571, 3437, 5020, 7086, 8904, 10569, 12022, 12137, 12303, 12553, 13953, 15353, 15737, 17303, 18737, 21287, 22672, 24354, 25770, 26137, 27704, 29087, 30837]}, "edge": {"target": [], "time": []}}, "mouseout": {"state": {"target": ["0", "12", "13", "22", "21", "20", "17", "16", "18", "7", "4", "4", "6", "7", "4", "5", "9", "9", "11", "10", "27", "29", "26", "28", "31", "32", "33", "30"], "time": [2021, 2236, 2320, 3273, 4953, 6853, 8653, 10336, 11987, 12039, 12153, 12320, 13671, 14900, 15370, 17003, 18297, 18620, 20970, 22167, 24187, 25754, 25804, 27354, 28955, 30142, 37394, 37421]}, "edge": {"target": [], "time": []}}}, "displayed_time": "36.41", "trialTime": 37869, "trial_type": "mouselab-mdp", "trial_index": 39, "time_elapsed": 1633419, "internal_node_id": "0.0-6.0-1.0-24.0"}}, {"uniqueid": "w95699543:a57827336", "current_trial": 40, "dateTime": 1693566536124, "trialdata": {"revealed_states": [], "clicked_states": ["22", "21", "20", "17", "16", "18", "7", "6", "11", "10", "5", "9", "27", "32", "31", "33", "28", "29"], "num_clicks_accrued": [0, 0, 0, 0, 0, 0, 0, 0, 0, 0, 0, 0, 0], "stateRewards": ["", 2, 3, -1, 6, 44, -4, -59, -14, -3, 64, 16, 1, -3, 3, 6, 3, 49, 19, 3, -49, -14, -86, 1, 2, -3, -8, -33, 14, 32, -13, -77, -47, -67], "withholdReward": false, "trial_id": "mdp_trial_26", "block": "test", "trialIndex": 29, "score": 28.80000000000001, "costs": -25.199999999999992, "simulationMode": [null, null, null, null, null], "rewards": [2, 3, -1, -14, 64], "path": ["0", "0", "1", "2", "3", "8", "10"], "rt": [34117, 217, 1931, 340, 57], "actions": ["up", "up", "up", "left", "down"], "actionTimes": [35461, 36185, 38614, 39457, 40008], "queries": {"click": {"state": {"target": ["22", "21", "20", "17", "16", "18", "7", "6", "11", "10", "5", "9", "27", "32", "31", "33", "28", "29"], "time": [2654, 4311, 5826, 7416, 9530, 11293, 13033, 14791, 16358, 18443, 19974, 21633, 23336, 26018, 27548, 29098, 31150, 32866]}, "edge": {"target": [], "time": []}}, "mouseover": {"state": {"target": ["12", "22", "21", "20", "17", "16", "18", "7", "6", "6", "3", "8", "11", "10", "3", "5", "9", "11", "27", "27", "26", "25", "30", "32", "31", "30", "33", "25", "24", "28", "26", "29", "10"], "time": [2003, 2132, 3381, 4765, 6432, 7998, 10198, 11932, 13481, 13781, 15265, 15314, 15381, 16948, 18815, 18949, 20867, 22515, 22598, 22899, 23832, 23865, 24031, 25783, 26398, 28364, 28764, 29782, 29816, 30215, 31848, 32198, 33932]}, "edge": {"target": [], "time": []}}, "mouseout": {"state": {"target": ["0", "12", "22", "21", "20", "17", "16", "18", "7", "6", "6", "3", "8", "11", "10", "3", "5", "9", "9", "11", "27", "27", "27", "26", "25", "30", "32", "31", "30", "33", "25", "24", "28", "26", "29", "10"], "time": [1996, 2031, 3197, 4731, 6382, 7491, 9964, 11817, 13448, 13517, 15231, 15299, 15365, 16847, 18520, 18848, 20781, 21676, 22498, 22531, 22648, 23427, 23831, 23848, 23932, 24365, 26365, 28348, 28381, 29749, 29799, 29965, 31732, 32098, 33849, 34349]}, "edge": {"target": [], "time": []}}}, "displayed_time": "40.52", "trialTime": 42245, "trial_type": "mouselab-mdp", "trial_index": 40, "time_elapsed": 1675902, "internal_node_id": "0.0-6.0-1.0-25.0"}}, {"uniqueid": "w95699543:a57827336", "current_trial": 41, "dateTime": 1693566570377, "trialdata": {"revealed_states": [], "clicked_states": ["22", "31", "32", "21", "17", "20", "16", "18", "6", "7", "5", "9", "11", "10", "27"], "num_clicks_accrued": [0, 0, 0, 0, 0, 0, 0, 0, 0, 0, 0, 0, 0], "stateRewards": ["", -2, -4, 4, -11, -63, -60, -7, 2, -14, 81, -43, -1, -1, -5, 7, 10, 69, 40, 8, -83, 52, 60, 1, 2, 5, -5, 16, 64, 14, -3, 29, 7, -51], "withholdReward": false, "trial_id": "mdp_trial_27", "block": "test", "trialIndex": 30, "score": 60, "costs": -20.999999999999996, "simulationMode": [null, null, null, null, null], "rewards": [-2, -4, 4, 2, 81], "path": ["0", "0", "1", "2", "3", "8", "10"], "rt": [28704, 92, 104, 80, 151], "actions": ["up", "up", "up", "left", "down"], "actionTimes": [30304, 30917, 31512, 32088, 32741], "queries": {"click": {"state": {"target": ["22", "31", "32", "21", "17", "20", "16", "18", "6", "7", "5", "9", "11", "10", "27"], "time": [2948, 4516, 6712, 8572, 10442, 12624, 14293, 16102, 17716, 19247, 21015, 22962, 24541, 26053, 27705]}, "edge": {"target": [], "time": []}}, "mouseover": {"state": {"target": ["12", "22", "31", "32", "32", "21", "19", "17", "14", "22", "19", "20", "15", "16", "18", "6", "7", "4", "5", "9", "9", "11", "10", "27", "28"], "time": [2388, 2456, 4172, 5089, 5621, 7605, 9055, 9522, 11038, 11355, 11924, 12048, 13072, 13122, 15321, 16839, 18373, 19772, 19855, 21489, 22006, 23322, 25272, 26872, 28423]}, "edge": {"target": [], "time": []}}, "mouseout": {"state": {"target": ["1", "12", "0", "12", "22", "31", "32", "32", "21", "19", "17", "14", "22", "19", "20", "15", "16", "18", "6", "7", "4", "5", "9", "9", "11", "10", "27", "27", "28"], "time": [754, 889, 2379, 2405, 3621, 5005, 5138, 7089, 9048, 9071, 10971, 11210, 11922, 11957, 12688, 13088, 14412, 16706, 18206, 19757, 19789, 21439, 21556, 23305, 25105, 26655, 27954, 28256, 29256]}, "edge": {"target": [], "time": []}}}, "displayed_time": "33.24", "trialTime": 34005, "trial_type": "mouselab-mdp", "trial_index": 41, "time_elapsed": 1710155, "internal_node_id": "0.0-6.0-1.0-26.0"}}, {"uniqueid": "w95699543:a57827336", "current_trial": 42, "dateTime": 1693566587884, "trialdata": {"revealed_states": [], "clicked_states": ["22", "21", "20", "17"], "num_clicks_accrued": [0, 0, 0, 0, 0, 0, 0, 0, 0, 0, 0, 0, 0], "stateRewards": ["", 1, 4, -8, -13, -13, -87, -77, -10, -44, 54, 42, 2, -3, -4, 12, -9, -80, 52, 9, 84, -2, -65, 1, -4, -5, -6, 8, 80, 32, 13, -59, -5, -13], "withholdReward": false, "trial_id": "mdp_trial_28", "block": "test", "trialIndex": 31, "score": 82.4, "costs": -5.6, "simulationMode": [null, null, null, null, null], "rewards": [2, -3, -4, 9, 84], "path": ["0", "0", "12", "13", "14", "19", "20"], "rt": [8417, 37, 21, 247, 76], "actions": ["right", "right", "right", "down", "right"], "actionTimes": [9895, 10438, 10971, 11714, 12310], "queries": {"click": {"state": {"target": ["22", "21", "20", "17"], "time": [3265, 5016, 6714, 8323]}, "edge": {"target": [], "time": []}}, "mouseover": {"state": {"target": ["0", "31", "31", "22", "21", "20", "20", "17", "17"], "time": [2177, 2249, 2632, 2833, 3800, 5366, 5684, 7149, 7399]}, "edge": {"target": [], "time": []}}, "mouseout": {"state": {"target": ["10", "1", "0", "31", "31", "22", "21", "20", "20", "17", "17", "17", "14"], "time": [761, 849, 2199, 2298, 2649, 3666, 5349, 5416, 6832, 7182, 8883, 9016, 13901]}, "edge": {"target": [], "time": []}}}, "displayed_time": "15.48", "trialTime": 17255, "trial_type": "mouselab-mdp", "trial_index": 42, "time_elapsed": 1727663, "internal_node_id": "0.0-6.0-1.0-27.0"}}, {"uniqueid": "w95699543:a57827336", "current_trial": 43, "dateTime": 1693566605394, "trialdata": {"revealed_states": [], "clicked_states": ["22", "21", "20", "17"], "num_clicks_accrued": [0, 0, 0, 0, 0, 0, 0, 0, 0, 0, 0, 0, 0], "stateRewards": ["", 1, 2, -5, 14, 54, -14, -25, 16, -5, -87, 78, -1, 1, 3, -3, 52, 53, 53, -10, 73, -69, -48, 2, 3, 1, 8, -62, -7, 85, 7, 82, 52, -28], "withholdReward": false, "trial_id": "mdp_trial_29", "block": "test", "trialIndex": 32, "score": 60.4, "costs": -5.6, "simulationMode": [null, null, null, null, null], "rewards": [-1, 1, 3, -10, 73], "path": ["0", "0", "12", "13", "14", "19", "20"], "rt": [8591, 550, 111, 81, 57], "actions": ["right", "right", "right", "down", "right"], "actionTimes": [10255, 11298, 11923, 12494, 13052], "queries": {"click": {"state": {"target": ["22", "21", "20", "17"], "time": [2946, 4988, 6719, 8395]}, "edge": {"target": [], "time": []}}, "mouseover": {"state": {"target": ["13", "14", "19", "22", "21", "20", "17"], "time": [2178, 2210, 2445, 2693, 3478, 5428, 7511]}, "edge": {"target": [], "time": []}}, "mouseout": {"state": {"target": ["0", "13", "14", "19", "22", "21", "20", "17", "14", "13"], "time": [2145, 2193, 2260, 2511, 3329, 5394, 7178, 9061, 14496, 14563]}, "edge": {"target": [], "time": []}}}, "displayed_time": "15.66", "trialTime": 17242, "trial_type": "mouselab-mdp", "trial_index": 43, "time_elapsed": 1745172, "internal_node_id": "0.0-6.0-1.0-28.0"}}, {"uniqueid": "w95699543:a57827336", "current_trial": 44, "dateTime": 1693566629410, "trialdata": {"revealed_states": [], "clicked_states": ["22", "21", "20", "17", "16", "18", "7", "6", "5"], "num_clicks_accrued": [0, 0, 0, 0, 0, 0, 0, 0, 0, 0, 0, 0, 0], "stateRewards": ["", 1, 1, -5, 10, -31, 73, 14, -8, -23, 63, -70, -1, 2, 8, 7, 25, -59, 27, -10, -40, -71, -15, -2, 3, -8, -5, -19, 77, -34, 7, 67, 63, 19], "withholdReward": false, "trial_id": "mdp_trial_30", "block": "test", "trialIndex": 33, "score": 67.4, "costs": -12.600000000000001, "simulationMode": [null, null, null, null, null], "rewards": [1, 1, -5, 10, 73], "path": ["0", "0", "1", "2", "3", "4", "6"], "rt": [16798, 12, 118, 369, 127], "actions": ["up", "up", "up", "right", "right"], "actionTimes": [18213, 18729, 19351, 20220, 20844], "queries": {"click": {"state": {"target": ["22", "21", "20", "17", "16", "18", "7", "6", "5"], "time": [2705, 4470, 6195, 7824, 9642, 11221, 12930, 14497, 16137]}, "edge": {"target": [], "time": []}}, "mouseover": {"state": {"target": ["22", "21", "20", "17", "16", "18", "7", "6", "5", "4"], "time": [2466, 3198, 5064, 6848, 8548, 10366, 12648, 13449, 15232, 16981]}, "edge": {"target": [], "time": []}}, "mouseout": {"state": {"target": ["0", "22", "21", "20", "17", "16", "16", "18", "7", "6", "5", "4"], "time": [1849, 3082, 5032, 6682, 8265, 9771, 10066, 12264, 13416, 15016, 16831, 17065]}, "edge": {"target": [], "time": []}}}, "displayed_time": "21.33", "trialTime": 23779, "trial_type": "mouselab-mdp", "trial_index": 44, "time_elapsed": 1769189, "internal_node_id": "0.0-6.0-1.0-29.0"}}, {"uniqueid": "w95699543:a57827336", "current_trial": 45, "dateTime": 1693566653849, "trialdata": {"revealed_states": [], "clicked_states": ["22", "21", "20", "17", "16", "18", "7", "6", "5"], "num_clicks_accrued": [0, 0, 0, 0, 0, 0, 0, 0, 0, 0, 0, 0, 0], "stateRewards": ["", 2, -1, -4, -13, 74, 77, 3, 2, -43, -2, -11, 2, 3, 7, 11, -26, -29, -33, -3, -3, -13, -3, 1, 3, -7, 14, -59, 33, 9, -5, 34, 79, 68], "withholdReward": false, "trial_id": "mdp_trial_31", "block": "test", "trialIndex": 34, "score": 48.4, "costs": -12.600000000000001, "simulationMode": [null, null, null, null, null], "rewards": [2, -1, -4, -13, 77], "path": ["0", "0", "1", "2", "3", "4", "6"], "rt": [17279, 312, 216, 90, 116], "actions": ["up", "up", "up", "right", "right"], "actionTimes": [18749, 19578, 20297, 20891, 21498], "queries": {"click": {"state": {"target": ["22", "21", "20", "17", "16", "18", "7", "6", "5"], "time": [2636, 4604, 6340, 7930, 9623, 12004, 13796, 15334, 17191]}, "edge": {"target": [], "time": []}}, "mouseover": {"state": {"target": ["22", "21", "20", "17", "16", "18", "7", "6", "5"], "time": [2081, 3063, 5097, 7030, 8796, 10447, 12780, 14331, 15935]}, "edge": {"target": [], "time": []}}, "mouseout": {"state": {"target": ["0", "22", "21", "20", "17", "16", "18", "7", "6", "5", "4"], "time": [1981, 3014, 4947, 6830, 8513, 10213, 12463, 14181, 15897, 22863, 22914]}, "edge": {"target": [], "time": []}}}, "displayed_time": "22.00", "trialTime": 24199, "trial_type": "mouselab-mdp", "trial_index": 45, "time_elapsed": 1793627, "internal_node_id": "0.0-6.0-1.0-30.0"}}, {"uniqueid": "w95699543:a57827336", "current_trial": 46, "dateTime": 1693566685330, "trialdata": {"revealed_states": [], "clicked_states": ["21", "17", "16", "5", "9", "11", "27", "29", "10", "33", "31", "32"], "num_clicks_accrued": [0, 0, 0, 0, 0, 0, 0, 0, 0, 0, 0, 0, 0], "stateRewards": ["", 1, -1, 4, -2, -75, -75, 84, -9, -60, -79, 59, 2, -4, 8, 9, -17, -82, 80, 14, -4, 49, 49, -1, 3, 6, -11, -33, 34, 55, 9, -57, 5, 59], "withholdReward": false, "trial_id": "mdp_trial_32", "block": "test", "trialIndex": 35, "score": 59.2, "costs": -16.8, "simulationMode": [null, null, null, null, null], "rewards": [-1, 3, 6, 9, 59], "path": ["0", "0", "23", "24", "25", "30", "33"], "rt": [25940, 90, 67, 168, 126], "actions": ["left", "left", "left", "down", "left"], "actionTimes": [27152, 27738, 28298, 28965, 29589], "queries": {"click": {"state": {"target": ["21", "17", "16", "5", "9", "11", "27", "29", "10", "33", "31", "32"], "time": [3325, 5315, 6889, 9178, 10828, 12532, 15125, 16696, 18440, 20225, 23295, 25217]}, "edge": {"target": [], "time": []}}, "mouseover": {"state": {"target": ["18", "17", "17", "19", "21", "17", "16", "6", "5", "6", "4", "5", "9", "11", "27", "29", "26", "10", "2", "10", "28", "25", "33", "32", "31", "32"], "time": [2128, 2178, 2461, 2961, 3129, 4094, 5978, 7495, 7795, 8095, 8545, 8762, 10246, 11528, 13028, 15862, 17345, 17395, 17444, 17695, 19086, 19278, 19879, 20879, 21996, 23863]}, "edge": {"target": [], "time": []}}, "mouseout": {"state": {"target": ["0", "18", "17", "17", "19", "21", "17", "16", "6", "5", "6", "4", "5", "9", "11", "27", "29", "26", "10", "2", "10", "28", "25", "33", "32", "31", "32"], "time": [1746, 2144, 2194, 2694, 3012, 3423, 5728, 7462, 7561, 8062, 8112, 8560, 9812, 10925, 12610, 15563, 16788, 17361, 17411, 17612, 19068, 19145, 19329, 20779, 21945, 23696, 30615]}, "edge": {"target": [], "time": []}}}, "displayed_time": "30.10", "trialTime": 31245, "trial_type": "mouselab-mdp", "trial_index": 46, "time_elapsed": 1825108, "internal_node_id": "0.0-6.0-1.0-31.0"}}, {"uniqueid": "w95699543:a57827336", "current_trial": 47, "dateTime": 1693566708655, "trialdata": {"revealed_states": [], "clicked_states": ["21", "22", "16", "5", "9", "10", "17", "18"], "num_clicks_accrued": [0, 0, 0, 0, 0, 0, 0, 0, 0, 0, 0, 0, 0], "stateRewards": ["", -1, 1, -1, 2, 19, 85, -18, 2, -3, -26, 36, 2, 4, 7, -9, -18, 70, 72, -5, 35, -20, -28, 1, -2, -4, -3, -59, -11, -63, -2, -72, 59, -69], "withholdReward": false, "trial_id": "mdp_trial_33", "block": "test", "trialIndex": 36, "score": 64.8, "costs": -11.200000000000001, "simulationMode": [null, null, null, null, null], "rewards": [2, 4, 7, -9, 72], "path": ["0", "0", "12", "13", "14", "15", "18"], "rt": [16794, 113, 58, 308, 193], "actions": ["right", "right", "right", "up", "left"], "actionTimes": [18181, 18786, 19346, 20146, 20832], "queries": {"click": {"state": {"target": ["21", "22", "16", "5", "9", "10", "17", "18"], "time": [3019, 5142, 6880, 8696, 10514, 13079, 14609, 16309]}, "edge": {"target": [], "time": []}}, "mouseover": {"state": {"target": ["12", "22", "21", "22", "19", "17", "16", "6", "5", "9", "9", "11", "8", "10", "2", "17", "15", "18"], "time": [2191, 2304, 2703, 3904, 5491, 5638, 5904, 7487, 7787, 9287, 9594, 11021, 12470, 12720, 13589, 13987, 15221, 15437]}, "edge": {"target": [], "time": []}}, "mouseout": {"state": {"target": ["0", "12", "22", "21", "22", "19", "17", "16", "6", "5", "9", "9", "11", "8", "10", "2", "17", "15", "18"], "time": [1036, 2221, 2455, 3438, 5488, 5505, 5721, 7470, 7504, 9237, 9437, 10922, 12441, 12486, 13587, 13604, 15170, 15254, 17204]}, "edge": {"target": [], "time": []}}}, "displayed_time": "21.34", "trialTime": 23077, "trial_type": "mouselab-mdp", "trial_index": 47, "time_elapsed": 1848434, "internal_node_id": "0.0-6.0-1.0-32.0"}}, {"uniqueid": "w95699543:a57827336", "current_trial": 48, "dateTime": 1693566747792, "trialdata": {"revealed_states": [], "clicked_states": ["22", "21", "20", "17", "16", "18", "6", "7", "5", "9", "10", "11", "33", "28", "29"], "num_clicks_accrued": [0, 0, 0, 0, 0, 0, 0, 0, 0, 0, 0, 0, 0], "stateRewards": ["", 2, -4, -4, 13, -80, 62, 13, -11, 57, -13, -44, 1, 4, 3, -4, -29, -88, 15, 16, -58, 68, -45, -1, -3, -1, -9, -44, -86, -19, -7, -36, 59, 66], "withholdReward": false, "trial_id": "mdp_trial_34", "block": "test", "trialIndex": 37, "score": -1.9999999999999964, "costs": -20.999999999999996, "simulationMode": [null, null, null, null, null], "rewards": [1, 4, 3, -4, 15], "path": ["0", "0", "12", "13", "14", "15", "18"], "rt": [30917, 48, 101, 74, 249], "actions": ["right", "right", "right", "up", "left"], "actionTimes": [32000, 32567, 33167, 33756, 34515], "queries": {"click": {"state": {"target": ["22", "21", "20", "17", "16", "18", "6", "7", "5", "9", "10", "11", "33", "28", "29"], "time": [2709, 4611, 6438, 8006, 9633, 11215, 12738, 15497, 17263, 18884, 20758, 22409, 24591, 28204, 29775]}, "edge": {"target": [], "time": []}}, "mouseover": {"state": {"target": ["12", "13", "22", "21", "20", "20", "17", "16", "18", "6", "4", "3", "8", "11", "8", "7", "4", "5", "9", "8", "10", "11", "26", "25", "33", "29", "28", "28", "26", "29", "26", "1"], "time": [1915, 1947, 2331, 3246, 5052, 5364, 7030, 8530, 10480, 11963, 13148, 13165, 13230, 13463, 14580, 14981, 16166, 16214, 18116, 19730, 19813, 21647, 23148, 23247, 23547, 25397, 27382, 27882, 28681, 28980, 30383, 30480]}, "edge": {"target": [], "time": []}}, "mouseout": {"state": {"target": ["12", "13", "22", "21", "20", "20", "17", "16", "18", "6", "4", "3", "8", "11", "8", "7", "4", "5", "9", "8", "10", "11", "26", "25", "33", "29", "28", "28", "26", "29", "26", "28"], "time": [1931, 1965, 2780, 5030, 5074, 6964, 8514, 10130, 11697, 13147, 13163, 13197, 13430, 14566, 14597, 16164, 16181, 17863, 19613, 19780, 20870, 23114, 23164, 23331, 24656, 27331, 27547, 28664, 28714, 30382, 30397, 30430]}, "edge": {"target": [], "time": []}}}, "displayed_time": "35.02", "trialTime": 38890, "trial_type": "mouselab-mdp", "trial_index": 48, "time_elapsed": 1887571, "internal_node_id": "0.0-6.0-1.0-33.0"}}, {"uniqueid": "w95699543:a57827336", "current_trial": 49, "dateTime": 1693566777733, "trialdata": {"revealed_states": [], "clicked_states": ["22", "21", "20", "17", "16", "18", "6", "7", "5", "9", "11", "10", "27"], "num_clicks_accrued": [0, 0, 0, 0, 0, 0, 0, 0, 0, 0, 0, 0, 0], "stateRewards": ["", -2, -3, 4, 1, 33, -53, 15, 9, -12, 61, -6, -2, 4, 6, -11, 47, -43, -7, -11, 46, 23, -28, -1, -1, 3, -10, 11, 76, -76, 10, 18, -38, 87], "withholdReward": false, "trial_id": "mdp_trial_35", "block": "test", "trialIndex": 38, "score": 50.8, "costs": -18.2, "simulationMode": [null, null, null, null, null], "rewards": [-2, -3, 4, 9, 61], "path": ["0", "0", "1", "2", "3", "8", "10"], "rt": [23925, 35, 40, 41, 69], "actions": ["up", "up", "up", "left", "down"], "actionTimes": [25591, 26119, 26655, 27223, 27800], "queries": {"click": {"state": {"target": ["22", "21", "20", "17", "16", "18", "6", "7", "5", "9", "11", "10", "27"], "time": [2993, 4504, 6623, 8176, 9921, 11508, 13131, 14691, 16346, 17975, 19505, 21540, 23217]}, "edge": {"target": [], "time": []}}, "mouseover": {"state": {"target": ["0", "22", "21", "20", "17", "16", "18", "6", "7", "4", "5", "9", "11", "10", "27"], "time": [2047, 2647, 3414, 5114, 7314, 8714, 10614, 12614, 14234, 15182, 15464, 17164, 18731, 20347, 22182]}, "edge": {"target": [], "time": []}}, "mouseout": {"state": {"target": ["1", "0", "0", "22", "21", "20", "17", "16", "18", "6", "7", "4", "5", "9", "11", "10", "27"], "time": [948, 1379, 2180, 3076, 5047, 6703, 8685, 10448, 12398, 14015, 15180, 15214, 16848, 18598, 19997, 21611, 23987]}, "edge": {"target": [], "time": []}}}, "displayed_time": "28.32", "trialTime": 29698, "trial_type": "mouselab-mdp", "trial_index": 49, "time_elapsed": 1917511, "internal_node_id": "0.0-6.0-1.0-34.0"}}, {"uniqueid": "w95699543:a57827336", "current_trial": 50, "dateTime": 1693566794239, "trialdata": {"revealed_states": [], "clicked_states": ["22", "21", "20"], "num_clicks_accrued": [0, 0, 0, 0, 0, 0, 0, 0, 0, 0, 0, 0, 0], "stateRewards": ["", -1, -3, 1, -4, -48, -63, -49, -2, -84, -19, 65, 2, -2, -2, -12, -4, 59, 9, 6, 75, 69, -13, -1, -3, -3, -2, -37, -68, -36, 13, 32, 18, -14], "withholdReward": false, "trial_id": "mdp_trial_36", "block": "test", "trialIndex": 39, "score": 68.8, "costs": -4.199999999999999, "simulationMode": [null, null, null, null, null], "rewards": [2, -2, -2, 6, 69], "path": ["0", "0", "12", "13", "14", "19", "21"], "rt": [7197, 517, 126, 128, 70], "actions": ["right", "right", "right", "down", "down"], "actionTimes": [8328, 9336, 9961, 10581, 11154], "queries": {"click": {"state": {"target": ["22", "21", "20"], "time": [3093, 4608, 6248]}, "edge": {"target": [], "time": []}}, "mouseover": {"state": {"target": ["12", "13", "14", "17", "16", "13", "22", "21", "20"], "time": [1700, 1933, 2050, 2150, 2416, 2651, 2718, 3617, 5134]}, "edge": {"target": [], "time": []}}, "mouseout": {"state": {"target": ["1", "12", "13", "14", "17", "16", "13", "22", "21", "20"], "time": [601, 1883, 2002, 2067, 2383, 2584, 2667, 3501, 5101, 6667]}, "edge": {"target": [], "time": []}}}, "displayed_time": "15.13", "trialTime": 16255, "trial_type": "mouselab-mdp", "trial_index": 50, "time_elapsed": 1934018, "internal_node_id": "0.0-6.0-1.0-35.0"}}, {"uniqueid": "w95699543:a57827336", "current_trial": 51, "dateTime": 1693566812875, "trialdata": {"revealed_states": [], "clicked_states": ["22", "21", "31", "32", "20", "17"], "num_clicks_accrued": [0, 0, 0, 0, 0, 0, 0, 0, 0, 0, 0, 0, 0], "stateRewards": ["", -1, -2, -8, 8, -27, -82, 19, -14, -62, 4, 1, -2, 2, 6, 10, 73, -51, -2, 2, 73, -48, 54, -1, 2, -4, 11, -25, 47, 86, 15, 33, 43, -42], "withholdReward": false, "trial_id": "mdp_trial_37", "block": "test", "trialIndex": 40, "score": 72.6, "costs": -8.4, "simulationMode": [null, null, null, null, null], "rewards": [-2, 2, 6, 2, 73], "path": ["0", "0", "12", "13", "14", "19", "20"], "rt": [11580, 54, 90, 196, 249], "actions": ["right", "right", "right", "down", "right"], "actionTimes": [13362, 13915, 14502, 15192, 15944], "queries": {"click": {"state": {"target": ["22", "21", "31", "32", "20", "17"], "time": [3099, 4694, 6213, 7737, 9643, 11320]}, "edge": {"target": [], "time": []}}, "mouseover": {"state": {"target": ["12", "13", "22", "21", "31", "31", "32", "20", "20", "17", "16", "15", "14"], "time": [2280, 2361, 2527, 3726, 5393, 5643, 6881, 8310, 8644, 10477, 11810, 12578, 12627]}, "edge": {"target": [], "time": []}}, "mouseout": {"state": {"target": ["14", "13", "12", "0", "12", "13", "22", "21", "31", "31", "31", "32", "20", "20", "17", "16", "15"], "time": [708, 810, 1160, 2277, 2309, 2393, 3560, 5277, 5426, 6315, 6727, 8227, 8360, 10193, 11693, 12577, 12610]}, "edge": {"target": [], "time": []}}}, "displayed_time": "16.44", "trialTime": 18382, "trial_type": "mouselab-mdp", "trial_index": 51, "time_elapsed": 1952653, "internal_node_id": "0.0-6.0-1.0-36.0"}}, {"uniqueid": "w95699543:a57827336", "current_trial": 52, "dateTime": 1693566850409, "trialdata": {"revealed_states": [], "clicked_states": ["22", "21", "31", "20", "32", "17", "16", "18", "7", "6", "5", "9", "11", "10", "28", "27"], "num_clicks_accrued": [0, 0, 0, 0, 0, 0, 0, 0, 0, 0, 0, 0, 0], "stateRewards": ["", -1, 2, -2, 13, -56, -28, 10, 14, 53, -80, -29, 1, -3, -3, -14, 14, 9, -40, -9, 18, 18, 48, 1, 1, 1, -9, 64, -39, -9, 7, -52, -78, 7], "withholdReward": false, "trial_id": "mdp_trial_38", "block": "test", "trialIndex": 41, "score": 35.60000000000001, "costs": -22.399999999999995, "simulationMode": [null, null, null, null, null], "rewards": [1, 1, 1, -9, 64], "path": ["0", "0", "23", "24", "25", "26", "27"], "rt": [30259, 69, 25, 38, 83], "actions": ["left", "left", "left", "up", "up"], "actionTimes": [31870, 32438, 32976, 33523, 34102], "queries": {"click": {"state": {"target": ["22", "21", "31", "20", "32", "17", "16", "18", "7", "6", "5", "9", "11", "10", "28", "27"], "time": [2879, 5011, 6590, 8316, 10313, 11843, 13364, 14889, 16422, 18028, 19700, 21347, 22871, 24402, 27217, 28798]}, "edge": {"target": [], "time": []}}, "mouseover": {"state": {"target": ["22", "21", "31", "20", "19", "22", "32", "12", "15", "17", "16", "18", "7", "4", "7", "6", "5", "9", "11", "10", "28", "27", "28", "27", "29"], "time": [2535, 3468, 5784, 7501, 9469, 9486, 9817, 11103, 11151, 11336, 12600, 14101, 15634, 15667, 16017, 17118, 18635, 20401, 22051, 23317, 25083, 26601, 26900, 27851, 29417]}, "edge": {"target": [], "time": []}}, "mouseout": {"state": {"target": ["14", "13", "12", "22", "21", "31", "20", "19", "22", "32", "12", "15", "17", "16", "18", "7", "4", "7", "6", "5", "9", "11", "10", "28", "27", "28", "27", "29"], "time": [859, 883, 1067, 3367, 5401, 7067, 9468, 9484, 9523, 11068, 11118, 11185, 12484, 13884, 15567, 15650, 15917, 17051, 18535, 20235, 21768, 23300, 25017, 26318, 26783, 27273, 29318, 31119]}, "edge": {"target": [], "time": []}}}, "displayed_time": "34.60", "trialTime": 37275, "trial_type": "mouselab-mdp", "trial_index": 52, "time_elapsed": 1990187, "internal_node_id": "0.0-6.0-1.0-37.0"}}, {"uniqueid": "w95699543:a57827336", "current_trial": 53, "dateTime": 1693566885608, "trialdata": {"revealed_states": [], "clicked_states": ["22", "21", "20", "17", "16", "18", "31", "32", "33", "29", "27", "11", "5", "7", "9"], "num_clicks_accrued": [0, 0, 0, 0, 0, 0, 0, 0, 0, 0, 0, 0, 0], "stateRewards": ["", 2, -3, 5, 11, -79, 54, 11, -9, -78, 33, 22, -2, -1, 2, 14, 43, 34, 1, 10, 49, -65, 39, -1, 1, -1, 3, -16, -2, 11, 2, 12, 48, -65], "withholdReward": false, "trial_id": "mdp_trial_39", "block": "test", "trialIndex": 42, "score": 37, "costs": -20.999999999999996, "simulationMode": [null, null, null, null, null], "rewards": [-2, -1, 2, 10, 49], "path": ["0", "0", "12", "13", "14", "19", "20"], "rt": [29074, 4, 33, 77, 109], "actions": ["right", "right", "right", "down", "right"], "actionTimes": [30669, 31185, 31725, 32318, 32918], "queries": {"click": {"state": {"target": ["22", "21", "20", "17", "16", "18", "31", "32", "33", "29", "27", "11", "5", "7", "9"], "time": [2390, 3929, 5460, 7146, 8789, 10418, 12803, 14315, 16150, 18464, 20494, 22031, 23634, 25282, 28731]}, "edge": {"target": [], "time": []}}, "mouseover": {"state": {"target": ["22", "21", "20", "17", "16", "18", "1", "23", "31", "31", "32", "33", "29", "29", "27", "11", "9", "5", "4", "7", "8", "9", "9", "6", "16", "17"], "time": [2004, 2922, 4472, 6171, 7789, 10106, 11372, 11589, 11906, 12457, 13256, 15538, 17356, 18055, 19289, 21024, 22556, 22939, 24156, 24474, 27923, 27939, 28340, 29190, 29209, 29273]}, "edge": {"target": [], "time": []}}, "mouseout": {"state": {"target": ["29", "26", "12", "0", "22", "21", "20", "17", "16", "18", "18", "1", "23", "31", "31", "32", "33", "29", "29", "27", "11", "9", "5", "4", "7", "7", "8", "9", "9", "6", "16"], "time": [372, 387, 789, 1870, 2478, 4422, 6021, 7705, 9306, 10446, 11156, 11390, 11639, 11940, 13172, 15322, 17106, 17423, 18577, 20988, 22112, 22572, 24140, 24339, 25336, 25856, 27938, 27955, 29173, 29206, 29223]}, "edge": {"target": [], "time": []}}}, "displayed_time": "33.42", "trialTime": 34943, "trial_type": "mouselab-mdp", "trial_index": 53, "time_elapsed": 2025386, "internal_node_id": "0.0-6.0-1.0-38.0"}}, {"uniqueid": "w95699543:a57827336", "current_trial": 54, "dateTime": 1693566904324, "trialdata": {"revealed_states": [], "clicked_states": ["21", "22", "20", "17", "16", "18"], "num_clicks_accrued": [0, 0, 0, 0, 0, 0, 0, 0, 0, 0, 0, 0, 0], "stateRewards": ["", -2, -4, 2, 10, -17, 18, 73, 11, -32, 23, -13, -2, -4, 7, 12, -25, 66, -23, 15, 40, -76, -9, 1, 2, -7, -5, -20, 24, 3, -5, 16, -73, 70], "withholdReward": false, "trial_id": "mdp_trial_40", "block": "test", "trialIndex": 43, "score": 70.6, "costs": -8.4, "simulationMode": [null, null, null, null, null, null], "rewards": [-2, -4, 7, 12, 66], "path": ["0", "0", "12", "13", "14", "15", "17"], "rt": [10762, 515, 61, 34, 62, 418], "actions": ["right", "right", "right", "right", "up", "right"], "actionTimes": [12359, 12876, 13431, 13970, 14548, 15472], "queries": {"click": {"state": {"target": ["21", "22", "20", "17", "16", "18"], "time": [2627, 4206, 5883, 7627, 9341, 10902]}, "edge": {"target": [], "time": []}}, "mouseover": {"state": {"target": ["22", "21", "19", "22", "19", "20", "17", "16", "18"], "time": [2019, 2335, 3117, 3201, 4651, 4701, 6418, 8151, 10335]}, "edge": {"target": [], "time": []}}, "mouseout": {"state": {"target": ["17", "13", "12", "0", "22", "21", "19", "22", "19", "20", "17", "16", "18", "18"], "time": [834, 967, 1051, 1968, 2052, 2725, 3135, 4634, 4667, 6369, 8101, 10018, 11502, 11684]}, "edge": {"target": [], "time": []}}}, "displayed_time": "15.99", "trialTime": 18456, "trial_type": "mouselab-mdp", "trial_index": 54, "time_elapsed": 2044103, "internal_node_id": "0.0-6.0-1.0-39.0"}}, {"uniqueid": "w95699543:a57827336", "current_trial": 55, "dateTime": 1693566950670, "trialdata": {"rt": 46342, "response": {"Q0": "$-2 to $2", "Q1": "$-16 to $16", "Q2": "$-88 to $88", "Q3": "The cost was always $1.4.", "Q4": "Very motivated"}, "question_order": [0, 1, 2, 3, 4], "trial_id": "final_quiz_control", "trial_type": "survey-multi-choice", "trial_index": 55, "time_elapsed": 2090449, "internal_node_id": "0.0-6.0-2.0"}}, {"uniqueid": "w95699543:a57827336", "current_trial": 56, "dateTime": 1693567106247, "trialdata": {"rt": 155460, "response": {"Q0": "I tried using my indicator on only the 5th nodes as I saw they had the highest values. Then once I found a 5th node with a \"high\" value I stopped using the indicator to not incur additional costs. I then proceeded to move the the high value 5th node.", "Q1": "Yes. Once I realized the higher value nodes were the 5th ones I stopped using the indicator on any other nodes besides the 5th ones.", "Q2": "It was very easy."}, "trial_id": "self_report_control", "trial_type": "survey-text", "trial_index": 56, "time_elapsed": 2246026, "internal_node_id": "0.0-6.0-3.0"}}, {"uniqueid": "w95699543:a57827336", "current_trial": 57, "dateTime": 1693567130627, "trialdata": {"rt": 24368, "response": {"gender": "male", "age": "27", "colorblind": "0", "effort": "0"}, "trial_type": "survey-html-form", "trial_index": 57, "time_elapsed": 2270406, "internal_node_id": "0.0-6.0-4.0"}}, {"uniqueid": "w95699543:a57827336", "current_trial": 58, "dateTime": 1693567189677, "trialdata": {"rt": 59030, "response": {"Q0": "No there was just a lot of points to understand.", "Q1": "I have not competed in this game before.", "Q2": "No comment additional comments."}, "trial_type": "survey-text", "trial_index": 58, "time_elapsed": 2329456, "internal_node_id": "0.0-6.0-5.0"}}, {"uniqueid": "w95699543:a57827336", "current_trial": 59, "dateTime": 1693567233879, "trialdata": {"rt": 44195, "stimulus": "<h1>Completion Code Instructions (1/2)</h1>\n<br><br><br><br>\nYou have reached the end of the experiment! The completion code consists of two parts: (1) a code with 2 characters (2) a code with 6 characters. On this page, you will receive the second part of the code. The first part of the completion code will be on the next page.\n<br><br>\nThe second part of your completion code is: <b>EWEK22</b>\n<br><br>\nPlease note this down. Then, press 'Finish HIT' in order to find the first part of your completion code. Once the data has been saved, you will receive this code either in this window or in the original browser window where you started the experiment.\n", "response": 0, "trial_type": "html-button-response", "trial_index": 59, "time_elapsed": 2373658, "internal_node_id": "0.0-6.0-6.0"}}, {"uniqueid": "w95699543:a57827336", "current_trial": 60, "dateTime": 1693567234925, "trialdata": {"success": true, "trial_type": "fullscreen", "trial_index": 60, "time_elapsed": 2374704, "internal_node_id": "0.0-7.0"}}], "questiondata": {"params": {"CODE": "C6DMOQA6", "MIN_TIME": 14, "inspectCost": 1, "startTime": "Fri Sep 01 2023 12:40:58 GMT+0200 (South Africa Standard Time)", "bonusRate": 0.002, "variance": "1_2_4_8_44", "branching": "31123"}, "final_score": 2352.6}, "eventdata": [{"eventtype": "initialized", "value": null, "timestamp": 1693564858107, "interval": 0}, {"eventtype": "window_resize", "value": [1366, 662], "timestamp": 1693564858107, "interval": 0}, {"eventtype": "window_resize", "value": [1366, 662], "timestamp": 1693564858579, "interval": 472}, {"eventtype": "window_resize", "value": [1366, 768], "timestamp": 1693564870179, "interval": 11600}, {"eventtype": "focus", "value": "off", "timestamp": 1693565614632, "interval": 744453}, {"eventtype": "focus", "value": "on", "timestamp": 1693565614633, "interval": 1}, {"eventtype": "window_resize", "value": [1366, 662], "timestamp": 1693565614845, "interval": 212}, {"eventtype": "window_resize", "value": [1366, 768], "timestamp": 1693565616696, "interval": 1851}, {"eventtype": "window_resize", "value": [1366, 662], "timestamp": 1693567234137, "interval": 1617441}], "useragent": "Mozilla/5.0 (Windows NT 10.0; Win64; x64) AppleWebKit/537.36 (KHTML, like Gecko) Chrome/116.0.0.0 Safari/537.36", "mode": "live", "id": "w95699543:a57827336", "status": "user data saved", "Beginhit": "2023-09-01 10:40:53.856232", "Beginexp": "2023-09-01 10:41:09.694163", "Endhit": "2023-09-01 11:20:35.235572", "psiturkStatus": 3, "browser": "<redacted>", "platform": "windows", "language": "en-US"}