{"condition": 1, "counterbalance": 0, "assignmentId": "a62087430", "workerId": "w94095996", "hitId": "h78497952", "currenttrial": 68, "bonus": 0, "data": [{"uniqueid": "w94095996:a62087430", "current_trial": 0, "dateTime": 1693389122040, "trialdata": {"success": true, "trial_type": "fullscreen", "trial_index": 0, "time_elapsed": 10817, "internal_node_id": "0.0-0.0"}}, {"uniqueid": "w94095996:a62087430", "current_trial": 1, "dateTime": 1693389160101, "trialdata": {"view_history": [{"page_index": 0, "viewing_time": 38047}], "rt": 38048, "trial_id": "exp_instructions_misaligned", "trial_type": "instructions", "trial_index": 1, "time_elapsed": 48878, "internal_node_id": "0.0-1.0"}}, {"uniqueid": "w94095996:a62087430", "current_trial": 2, "dateTime": 1693389484730, "trialdata": {"view_history": [{"page_index": 0, "viewing_time": 141668}, {"page_index": 1, "viewing_time": 114389}, {"page_index": 2, "viewing_time": 26998}, {"page_index": 3, "viewing_time": 41566}], "rt": 324621, "trial_id": "mouselab_instructions_1_misaligned", "trial_type": "instructions", "trial_index": 2, "time_elapsed": 373506, "internal_node_id": "0.0-2.0-1.0"}}, {"uniqueid": "w94095996:a62087430", "current_trial": 3, "dateTime": 1693389619646, "trialdata": {"revealed_states": [], "clicked_states": ["2", "4", "8", "9", "28", "13", "20", "21", "30", "24", "26", "7", "18", "15", "14", "12", "23", "25", "32", "10", "31", "33", "29", "27", "1", "3", "5", "6", "11", "17", "16", "19", "22"], "num_clicks_accrued": [0, 0, 0, 0, 0, 0, 0, 0, 0, 0, 0, 0, 0], "stateRewards": ["", -10, -10, -10, 10, 10, 10, 10, 10, 10, -10, 10, -10, 10, -10, 10, 10, 10, -10, -10, 10, -10, -10, 10, 10, 10, -10, -10, 10, -10, -10, -10, 10, 10], "withholdReward": false, "trial_id": "practice_1", "block": "test", "trialIndex": 0, "score": 17, "costs": -16.5, "simulationMode": [null, null, null, null, null], "rewards": [10, 10, 10, -10, 10], "path": ["0", "0", "23", "24", "25", "30", "32"], "rt": [115876, 744, 807, 921, 202], "actions": ["left", "left", "left", "down", "down"], "actionTimes": [120709, 121996, 123320, 124754, 125470], "queries": {"click": {"state": {"target": ["2", "4", "8", "9", "28", "13", "20", "21", "30", "24", "26", "7", "18", "15", "14", "12", "23", "25", "32", "10", "31", "33", "29", "27", "1", "3", "5", "6", "11", "17", "16", "19", "22"], "time": [9974, 11399, 13443, 14728, 18393, 23858, 25469, 27124, 29469, 30964, 33555, 38845, 41003, 43244, 46196, 48696, 51088, 54417, 58866, 63207, 69366, 73360, 76081, 78775, 82688, 86123, 88007, 90780, 93620, 96403, 98719, 101086, 103262]}, "edge": {"target": [], "time": []}}, "mouseover": {"state": {"target": ["0", "1", "2", "4", "3", "8", "9", "28", "28", "23", "22", "13", "20", "21", "22", "0", "23", "24", "25", "30", "25", "24", "28", "26", "2", "7", "7", "2", "7", "18", "18", "15", "14", "22", "14", "13", "12", "0", "23", "24", "25", "31", "30", "31", "32", "2", "10", "16", "16", "31", "33", "30", "29", "27", "27", "0", "12", "0", "1", "12", "4", "3", "5", "6", "6", "3", "11", "5", "17", "15", "16", "15", "14", "19", "22", "20", "19", "0"], "time": [7715, 8748, 9115, 10547, 12393, 12764, 14292, 15686, 16300, 19914, 22730, 23263, 24710, 26565, 28245, 28296, 28323, 28346, 28712, 29046, 30243, 30552, 32412, 33062, 36494, 36546, 37244, 37746, 38041, 39995, 40394, 42712, 45031, 45129, 45693, 47645, 47812, 50412, 50494, 53150, 53634, 56793, 56844, 57244, 58378, 62361, 62578, 65411, 65961, 68861, 71927, 74151, 75527, 76815, 77544, 80061, 80408, 81713, 82310, 84810, 85360, 85727, 87099, 89478, 90177, 92324, 93158, 94482, 95893, 97893, 97929, 99624, 99757, 100380, 102793, 112644, 112666, 119707]}, "edge": {"target": [], "time": []}}, "mouseout": {"state": {"target": ["1", "0", "1", "2", "4", "3", "8", "9", "28", "28", "23", "22", "13", "20", "21", "22", "0", "23", "24", "25", "30", "25", "24", "28", "26", "2", "7", "7", "2", "7", "18", "18", "15", "14", "22", "14", "13", "12", "0", "23", "24", "25", "31", "30", "31", "32", "2", "10", "16", "16", "31", "31", "33", "30", "29", "27", "27", "0", "12", "0", "1", "12", "4", "3", "5", "6", "6", "3", "11", "5", "17", "15", "16", "15", "14", "19", "22", "20", "19"], "time": [3631, 8651, 9098, 10202, 12369, 12464, 14085, 15497, 15725, 19598, 19932, 23062, 24535, 26262, 28059, 28263, 28315, 28341, 28365, 28847, 30221, 30268, 31873, 33014, 34648, 36513, 36578, 37263, 37862, 39963, 40062, 42379, 43836, 45064, 45395, 47103, 47663, 49730, 50435, 51583, 53610, 55292, 56812, 57228, 57696, 59083, 62526, 63931, 65726, 66061, 69760, 71475, 74116, 74184, 76733, 76965, 79501, 80077, 80459, 81960, 83101, 85093, 85409, 86342, 88564, 89594, 91528, 92344, 94442, 94510, 97220, 97910, 99594, 99652, 99925, 101933, 104626, 112661, 112683]}, "edge": {"target": [], "time": []}}}, "displayed_time": "126.00", "trialTime": 133670, "trial_type": "mouselab-mdp", "trial_index": 3, "time_elapsed": 508423, "internal_node_id": "0.0-2.0-2.0-0.0"}}, {"uniqueid": "w94095996:a62087430", "current_trial": 4, "dateTime": 1693389740339, "trialdata": {"revealed_states": [], "clicked_states": ["23", "24", "25", "30", "32", "31", "33", "26", "28", "27", "29", "12", "13", "14", "19", "21", "20", "22", "15", "17", "18", "16", "1", "2", "3", "4", "6", "7", "5", "8", "10", "11", "9"], "num_clicks_accrued": [0, 0, 0, 0, 0, 0, 0, 0, 0, 0, 0, 0, 0], "stateRewards": ["", 10, -10, 10, 10, -10, 10, 10, 10, 10, 10, 10, -10, -10, 10, -10, -10, -10, -10, -10, -10, 10, -10, 10, 10, 10, -10, -10, -10, -10, -10, 10, -10, -10], "withholdReward": false, "trial_id": "practice_2", "block": "test", "trialIndex": 1, "score": 17, "costs": -16.5, "simulationMode": [null, null, null, null, null], "rewards": [10, -10, 10, 10, 10], "path": ["0", "0", "1", "2", "3", "8", "11"], "rt": [100965, 243, 273, 669, 206], "actions": ["up", "up", "up", "left", "left"], "actionTimes": [113966, 114727, 115518, 116714, 117434], "queries": {"click": {"state": {"target": ["23", "24", "25", "30", "32", "31", "33", "26", "28", "27", "29", "12", "13", "14", "19", "21", "20", "22", "15", "17", "18", "16", "1", "2", "3", "4", "6", "7", "5", "8", "10", "11", "9"], "time": [17712, 19912, 22205, 24516, 26974, 29424, 31909, 35917, 38374, 40679, 43130, 45625, 47974, 50539, 53398, 55474, 57934, 60180, 62943, 65392, 67486, 69700, 72264, 74476, 76573, 79241, 81691, 84522, 87644, 90339, 92579, 94886, 97252]}, "edge": {"target": [], "time": []}}, "mouseover": {"state": {"target": ["23", "24", "25", "30", "32", "31", "30", "33", "26", "28", "27", "29", "26", "1", "13", "12", "13", "14", "19", "21", "20", "19", "22", "22", "14", "17", "15", "17", "18", "16", "1", "2", "3", "4", "6", "7", "4", "5", "8", "10", "11", "9", "8", "10", "23", "0"], "time": [17312, 19311, 21745, 23979, 26280, 28663, 30949, 30998, 35310, 37543, 40228, 42561, 43841, 44762, 44844, 45127, 47189, 49795, 52795, 55010, 57225, 59275, 59345, 59742, 61709, 62208, 62425, 64909, 67108, 69243, 71724, 73826, 75993, 78657, 81190, 83791, 86641, 86741, 89875, 92175, 94424, 96757, 100232, 100272, 101265, 108656]}, "edge": {"target": [], "time": []}}, "mouseout": {"state": {"target": ["18", "14", "13", "12", "0", "0", "23", "24", "25", "30", "32", "31", "31", "30", "33", "26", "28", "27", "29", "26", "1", "13", "12", "13", "14", "19", "21", "20", "19", "22", "22", "14", "17", "15", "15", "17", "15", "18", "16", "1", "2", "3", "4", "6", "7", "4", "5", "8", "10", "11", "9", "8", "10", "23"], "time": [10396, 10611, 10693, 11094, 11778, 16312, 18290, 20512, 22865, 25879, 27813, 30225, 30944, 30976, 33648, 36432, 39842, 42245, 43791, 43885, 44779, 44944, 47060, 48894, 51464, 54808, 56959, 59192, 59326, 59475, 60810, 61728, 62274, 64442, 64708, 66726, 66826, 68909, 71077, 73541, 75542, 78523, 80994, 83492, 86475, 86660, 89342, 91958, 94140, 95094, 100193, 100262, 100298, 101329]}, "edge": {"target": [], "time": []}}}, "displayed_time": "117.96", "trialTime": 120052, "trial_type": "mouselab-mdp", "trial_index": 4, "time_elapsed": 629115, "internal_node_id": "0.0-2.0-2.0-1.0"}}, {"uniqueid": "w94095996:a62087430", "current_trial": 5, "dateTime": 1693389798226, "trialdata": {"view_history": [{"page_index": 0, "viewing_time": 39005}, {"page_index": 1, "viewing_time": 18875}], "rt": 57881, "trial_id": "mouselab_instructions_2_misaligned", "trial_type": "instructions", "trial_index": 5, "time_elapsed": 687003, "internal_node_id": "0.0-2.0-3.0"}}, {"uniqueid": "w94095996:a62087430", "current_trial": 6, "dateTime": 1693389951541, "trialdata": {"rt": 153280, "response": {"Q0": "The cost for clicking on nodes may vary between nodes.", "Q1": "The better I perform the higher my bonus will be.", "Q2": "Yes.", "Q3": "To get the highest total score.", "Q4": "Only before moving the spider.", "Q5": "3 seconds"}, "question_order": [0, 1, 2, 3, 4, 5], "correct": {"Q0": "The cost for clicking on nodes may vary between nodes.", "Q1": "The better I perform the higher my bonus will be.", "Q2": "No, the amount of cash at each node of the web may be different each time.", "Q3": "To get the highest total score.", "Q4": "Only before moving the spider.", "Q5": "3 seconds"}, "trial_id": "mouselab_quiz_misaligned", "trial_type": "survey-multi-choice", "trial_index": 6, "time_elapsed": 840318, "internal_node_id": "0.0-2.0-4.0"}}, {"uniqueid": "w94095996:a62087430", "current_trial": 7, "dateTime": 1693389964247, "trialdata": {"success": true, "trial_type": "fullscreen", "trial_index": 7, "time_elapsed": 853024, "internal_node_id": "0.0-2.1-0.1-0.1"}}, {"uniqueid": "w94095996:a62087430", "current_trial": 8, "dateTime": 1693390199811, "trialdata": {"view_history": [{"page_index": 0, "viewing_time": 45291}, {"page_index": 1, "viewing_time": 66700}, {"page_index": 2, "viewing_time": 23576}, {"page_index": 3, "viewing_time": 99989}], "rt": 235558, "trial_id": "mouselab_instructions_1_misaligned", "trial_type": "instructions", "trial_index": 8, "time_elapsed": 1088588, "internal_node_id": "0.0-2.1-1.1"}}, {"uniqueid": "w94095996:a62087430", "current_trial": 9, "dateTime": 1693390306880, "trialdata": {"revealed_states": [], "clicked_states": ["23", "24", "25", "30", "32", "31", "33", "12", "13", "14", "15", "16", "17", "18", "19", "21", "22", "20", "1", "2", "3", "4", "5", "6", "7", "8", "9", "11", "10", "28", "26", "27", "29"], "num_clicks_accrued": [0, 0, 0, 0, 0, 0, 0, 0, 0, 0, 0, 0, 0], "stateRewards": ["", -10, -10, -10, 10, 10, 10, 10, 10, 10, -10, 10, -10, 10, -10, 10, 10, 10, -10, -10, 10, -10, -10, 10, 10, 10, -10, -10, 10, -10, -10, -10, 10, 10], "withholdReward": false, "trial_id": "practice_1", "block": "test", "trialIndex": 2, "score": 17, "costs": -16.5, "simulationMode": [null, null, null, null, null], "rewards": [10, 10, 10, -10, 10], "path": ["0", "0", "23", "24", "25", "30", "33"], "rt": [91180, 209, 229, 628, 1083], "actions": ["left", "left", "left", "down", "left"], "actionTimes": [99605, 100335, 101088, 102237, 103870], "queries": {"click": {"state": {"target": ["23", "24", "25", "30", "32", "31", "33", "12", "13", "14", "15", "16", "17", "18", "19", "21", "22", "20", "1", "2", "3", "4", "5", "6", "7", "8", "9", "11", "10", "28", "26", "27", "29"], "time": [11145, 13086, 15115, 17382, 19833, 22078, 24364, 29579, 31887, 34293, 37515, 39831, 41725, 43692, 45991, 48184, 50545, 52654, 54734, 57427, 58866, 61358, 63868, 65395, 67337, 69757, 71672, 73373, 75566, 77911, 81843, 84654, 86804]}, "edge": {"target": [], "time": []}}, "mouseover": {"state": {"target": ["23", "24", "25", "30", "32", "31", "30", "33", "12", "12", "13", "14", "14", "15", "16", "17", "15", "18", "15", "14", "19", "21", "19", "21", "22", "20", "20", "19", "12", "1", "1", "2", "2", "3", "4", "4", "5", "6", "7", "3", "8", "9", "11", "10", "28", "26", "27", "27", "29", "24"], "time": [10713, 12108, 14690, 16908, 19375, 21574, 23625, 23841, 28372, 28908, 31225, 33492, 33857, 37024, 39407, 41179, 42826, 43175, 44609, 44923, 45025, 45290, 45505, 47690, 49572, 51774, 52273, 53857, 53908, 53947, 54273, 56555, 56987, 58268, 60458, 60922, 63338, 64802, 66623, 69022, 69373, 71174, 72706, 74903, 77326, 79839, 83855, 84223, 86338, 88570]}, "edge": {"target": [], "time": []}}, "mouseout": {"state": {"target": ["12", "0", "23", "24", "25", "30", "32", "31", "30", "33", "12", "12", "13", "14", "14", "15", "16", "17", "15", "18", "15", "14", "19", "21", "19", "21", "22", "20", "20", "19", "12", "1", "1", "2", "2", "3", "4", "4", "5", "6", "7", "3", "8", "9", "11", "10", "28", "26", "27", "27", "27", "29", "24"], "time": [7205, 10327, 11854, 13796, 15792, 18451, 20705, 22705, 23644, 25218, 28425, 30515, 33008, 33524, 35084, 39073, 40934, 42743, 42991, 44546, 44674, 44993, 45059, 45405, 47523, 49155, 51695, 51923, 53839, 53889, 53927, 54088, 55581, 56592, 58180, 60439, 60773, 61895, 64558, 66344, 68855, 69139, 70838, 72500, 74236, 77288, 79672, 82840, 83922, 84849, 86021, 88437, 88638]}, "edge": {"target": [], "time": []}}}, "displayed_time": "104.38", "trialTime": 106254, "trial_type": "mouselab-mdp", "trial_index": 9, "time_elapsed": 1195656, "internal_node_id": "0.0-2.1-2.1-0.1"}}, {"uniqueid": "w94095996:a62087430", "current_trial": 10, "dateTime": 1693390412172, "trialdata": {"revealed_states": [], "clicked_states": ["23", "24", "25", "30", "32", "31", "33", "26", "28", "27", "29", "12", "13", "14", "19", "21", "22", "20", "15", "17", "16", "18", "1", "2", "3", "4", "6", "7", "5", "8", "9", "11", "10"], "num_clicks_accrued": [0, 0, 0, 0, 0, 0, 0, 0, 0, 0, 0, 0, 0], "stateRewards": ["", 10, -10, 10, 10, -10, 10, 10, 10, 10, 10, 10, -10, -10, 10, -10, -10, -10, -10, -10, -10, 10, -10, 10, 10, 10, -10, -10, -10, -10, -10, 10, -10, -10], "withholdReward": false, "trial_id": "practice_2", "block": "test", "trialIndex": 3, "score": 17, "costs": -16.5, "simulationMode": [null, null, null, null, null], "rewards": [10, 10, 10, -10, 10], "path": ["0", "0", "23", "24", "25", "30", "31"], "rt": [91575, 444, 286, 524, 421], "actions": ["left", "left", "left", "down", "right"], "actionTimes": [99209, 100172, 100980, 102003, 102949], "queries": {"click": {"state": {"target": ["23", "24", "25", "30", "32", "31", "33", "26", "28", "27", "29", "12", "13", "14", "19", "21", "22", "20", "15", "17", "16", "18", "1", "2", "3", "4", "6", "7", "5", "8", "9", "11", "10"], "time": [10045, 12062, 14380, 16734, 18820, 21018, 23465, 27849, 30021, 32330, 34771, 37619, 39655, 41434, 43245, 45341, 46715, 48419, 49930, 51393, 52523, 54293, 57824, 60243, 62761, 65088, 66756, 70678, 73970, 77918, 80792, 83215, 85710]}, "edge": {"target": [], "time": []}}, "mouseover": {"state": {"target": ["23", "24", "30", "25", "30", "32", "31", "30", "33", "30", "31", "24", "26", "28", "27", "29", "12", "13", "14", "19", "21", "22", "19", "20", "15", "17", "16", "18", "1", "2", "7", "3", "3", "4", "6", "5", "4", "7", "4", "5", "3", "8", "8", "9", "11", "10"], "time": [9597, 11615, 13156, 13846, 16310, 18259, 20491, 22594, 22660, 25525, 26893, 26967, 27360, 29558, 31909, 34227, 37057, 39209, 40942, 42741, 44859, 46213, 47446, 47550, 49527, 50796, 52145, 53238, 57378, 59724, 60731, 61858, 62342, 64557, 65877, 68326, 69674, 69924, 71824, 72207, 75356, 76840, 77457, 79491, 82605, 85189]}, "edge": {"target": [], "time": []}}, "mouseout": {"state": {"target": ["0", "23", "24", "30", "25", "30", "32", "31", "30", "33", "30", "31", "24", "26", "28", "27", "29", "12", "13", "14", "19", "21", "22", "19", "20", "15", "17", "16", "18", "1", "2", "7", "3", "3", "4", "6", "5", "4", "7", "4", "5", "3", "8", "8", "9", "11", "10"], "time": [9443, 10857, 12675, 13330, 14948, 17377, 19857, 21812, 22615, 24042, 25561, 26960, 26985, 28454, 31658, 33878, 36230, 38941, 40710, 42407, 44676, 45562, 47316, 47521, 49104, 50572, 51800, 53077, 56906, 59474, 60662, 61214, 61891, 64394, 65669, 67769, 69522, 69790, 71741, 71927, 74941, 76691, 76873, 79096, 82140, 84724, 86558]}, "edge": {"target": [], "time": []}}}, "displayed_time": "103.48", "trialTime": 104687, "trial_type": "mouselab-mdp", "trial_index": 10, "time_elapsed": 1300948, "internal_node_id": "0.0-2.1-2.1-1.1"}}, {"uniqueid": "w94095996:a62087430", "current_trial": 11, "dateTime": 1693390467729, "trialdata": {"view_history": [{"page_index": 0, "viewing_time": 52909}, {"page_index": 1, "viewing_time": 2636}], "rt": 55548, "trial_id": "mouselab_instructions_2_misaligned", "trial_type": "instructions", "trial_index": 11, "time_elapsed": 1356506, "internal_node_id": "0.0-2.1-3.1"}}, {"uniqueid": "w94095996:a62087430", "current_trial": 12, "dateTime": 1693390623824, "trialdata": {"rt": 156084, "response": {"Q0": "The cost for clicking on nodes may vary between nodes.", "Q1": "The better I perform the higher my bonus will be.", "Q2": "No, the amount of cash at each node of the web may be different each time.", "Q3": "To click on the least number of nodes.", "Q4": "Only before moving the spider.", "Q5": "3 seconds"}, "question_order": [0, 1, 2, 3, 4, 5], "correct": {"Q0": "The cost for clicking on nodes may vary between nodes.", "Q1": "The better I perform the higher my bonus will be.", "Q2": "No, the amount of cash at each node of the web may be different each time.", "Q3": "To get the highest total score.", "Q4": "Only before moving the spider.", "Q5": "3 seconds"}, "trial_id": "mouselab_quiz_misaligned", "trial_type": "survey-multi-choice", "trial_index": 12, "time_elapsed": 1512601, "internal_node_id": "0.0-2.1-4.1"}}, {"uniqueid": "w94095996:a62087430", "current_trial": 13, "dateTime": 1693390652338, "trialdata": {"success": true, "trial_type": "fullscreen", "trial_index": 13, "time_elapsed": 1541115, "internal_node_id": "0.0-2.2-0.2-0.2"}}, {"uniqueid": "w94095996:a62087430", "current_trial": 14, "dateTime": 1693390667371, "trialdata": {"view_history": [{"page_index": 0, "viewing_time": 5996}, {"page_index": 1, "viewing_time": 4181}, {"page_index": 2, "viewing_time": 3074}, {"page_index": 3, "viewing_time": 1768}], "rt": 15021, "trial_id": "mouselab_instructions_1_misaligned", "trial_type": "instructions", "trial_index": 14, "time_elapsed": 1556148, "internal_node_id": "0.0-2.2-1.2"}}, {"uniqueid": "w94095996:a62087430", "current_trial": 15, "dateTime": 1693390782250, "trialdata": {"revealed_states": [], "clicked_states": ["23", "24", "25", "30", "31", "32", "33", "26", "27", "28", "29", "12", "1", "7", "6", "5", "4", "9", "8", "3", "2", "10", "11", "16", "17", "15", "18", "13", "14", "19", "20", "21", "22"], "num_clicks_accrued": [0, 0, 0, 0, 0, 0, 0, 0, 0, 0, 0, 0, 0], "stateRewards": ["", -10, -10, -10, 10, 10, 10, 10, 10, 10, -10, 10, -10, 10, -10, 10, 10, 10, -10, -10, 10, -10, -10, 10, 10, 10, -10, -10, 10, -10, -10, -10, 10, 10], "withholdReward": false, "trial_id": "practice_1", "block": "test", "trialIndex": 4, "score": 17, "costs": -16.5, "simulationMode": [null, null, null, null, null], "rewards": [10, 10, 10, -10, 10], "path": ["0", "0", "23", "24", "25", "30", "33"], "rt": [75891, 591, 244, 409, 266], "actions": ["left", "left", "left", "down", "left"], "actionTimes": [108400, 109504, 110288, 111208, 111977], "queries": {"click": {"state": {"target": ["23", "24", "25", "30", "31", "32", "33", "26", "27", "28", "29", "12", "1", "7", "6", "5", "4", "9", "8", "3", "2", "10", "11", "16", "17", "15", "18", "13", "14", "19", "20", "21", "22"], "time": [35255, 37024, 39377, 41357, 43316, 45480, 47384, 49741, 51193, 52286, 53529, 56119, 57592, 59886, 62107, 63203, 64412, 66755, 67854, 69278, 70408, 71556, 72616, 75019, 76504, 81642, 82705, 83858, 85196, 86849, 89213, 90391, 91532]}, "edge": {"target": [], "time": []}}, "mouseover": {"state": {"target": ["23", "23", "24", "25", "30", "31", "32", "33", "26", "27", "28", "29", "1", "12", "12", "1", "2", "7", "7", "4", "6", "5", "4", "3", "9", "9", "8", "3", "3", "2", "10", "11", "6", "16", "17", "15", "18", "13", "14", "19", "20", "21", "22"], "time": [33732, 34394, 36092, 38862, 40842, 42776, 45008, 46875, 48995, 50623, 51714, 53065, 54154, 54265, 55409, 57193, 58309, 59045, 59459, 60453, 61625, 62799, 63679, 64911, 65878, 66240, 67378, 68379, 68722, 69940, 71158, 72077, 73691, 74283, 75872, 81226, 82201, 83528, 84716, 86132, 87328, 89998, 91014]}, "edge": {"target": [], "time": []}}, "mouseout": {"state": {"target": ["0", "0", "0", "23", "23", "24", "24", "25", "30", "31", "32", "33", "33", "26", "27", "28", "29", "1", "12", "12", "1", "2", "7", "7", "4", "6", "5", "4", "3", "9", "9", "8", "3", "3", "2", "10", "11", "6", "16", "17", "15", "18", "13", "14", "19", "20", "21", "22"], "time": [6359, 6759, 33726, 33794, 35866, 38032, 38611, 40461, 42147, 44032, 46332, 48234, 48947, 50300, 51687, 52751, 54048, 54208, 55210, 56893, 58012, 59026, 59191, 60280, 61425, 62439, 63670, 64775, 65859, 65942, 67200, 68370, 68416, 69819, 70960, 71755, 73071, 74258, 75702, 77909, 82175, 83275, 84359, 86007, 87305, 89714, 90857, 92123]}, "edge": {"target": [], "time": []}}}, "displayed_time": "112.48", "trialTime": 114002, "trial_type": "mouselab-mdp", "trial_index": 15, "time_elapsed": 1671026, "internal_node_id": "0.0-2.2-2.2-0.2"}}, {"uniqueid": "w94095996:a62087430", "current_trial": 16, "dateTime": 1693390871494, "trialdata": {"revealed_states": [], "clicked_states": ["23", "24", "25", "30", "31", "32", "33", "26", "28", "27", "29", "1", "2", "3", "4", "7", "6", "5", "8", "9", "11", "10", "16", "15", "17", "18", "14", "19", "21", "22", "13", "12"], "num_clicks_accrued": [0, 0, 0, 0, 0, 0, 0, 0, 0, 0, 0, 0, 0], "stateRewards": ["", 10, -10, 10, 10, -10, 10, 10, 10, 10, 10, 10, -10, -10, 10, -10, -10, -10, -10, -10, -10, 10, -10, 10, 10, 10, -10, -10, -10, -10, -10, 10, -10, -10], "withholdReward": false, "trial_id": "practice_2", "block": "test", "trialIndex": 5, "score": 17.5, "costs": -16, "simulationMode": [null, null, null, null, null], "rewards": [10, -10, 10, 10, 10], "path": ["0", "0", "1", "2", "3", "8", "9"], "rt": [78653, 506, 109, 456, 165], "actions": ["up", "up", "up", "left", "up"], "actionTimes": [82314, 83340, 83977, 84976, 85670], "queries": {"click": {"state": {"target": ["23", "24", "25", "30", "31", "32", "33", "26", "28", "27", "29", "1", "2", "3", "4", "7", "6", "5", "8", "9", "11", "10", "16", "15", "17", "18", "14", "19", "21", "22", "13", "12"], "time": [5713, 7394, 9350, 11425, 13278, 15539, 17399, 19754, 21765, 23704, 25303, 26866, 28599, 30485, 33655, 35661, 40917, 43746, 46535, 47843, 50994, 53321, 55926, 57683, 59968, 61276, 62522, 64636, 66668, 67730, 69665, 70816]}, "edge": {"target": [], "time": []}}, "mouseover": {"state": {"target": ["23", "24", "25", "30", "31", "32", "33", "26", "28", "27", "29", "26", "28", "12", "1", "2", "3", "8", "4", "4", "7", "6", "6", "5", "8", "9", "11", "10", "2", "16", "16", "15", "18", "17", "18", "14", "14", "19", "20", "21", "22", "13", "12", "0"], "time": [5251, 6631, 8898, 10900, 12786, 15167, 16983, 18900, 21269, 23324, 24832, 25824, 25865, 26061, 26347, 27833, 30016, 32050, 32769, 33199, 35116, 39002, 39431, 41429, 46118, 47315, 49963, 52813, 54468, 54518, 55380, 57313, 58297, 59516, 60849, 61778, 62134, 63051, 65020, 66262, 67017, 68117, 70111, 71692]}, "edge": {"target": [], "time": []}}, "mouseout": {"state": {"target": ["0", "23", "24", "25", "30", "31", "32", "33", "26", "28", "27", "29", "26", "28", "12", "1", "2", "3", "8", "3", "4", "4", "7", "7", "6", "6", "5", "8", "9", "11", "10", "2", "16", "16", "15", "18", "15", "17", "15", "18", "14", "14", "19", "20", "21", "22", "13", "12"], "time": [5151, 6402, 8816, 10800, 12552, 14279, 15748, 18140, 21202, 23134, 24615, 25819, 25851, 25894, 26297, 27111, 29352, 31966, 32482, 32749, 32798, 34639, 36539, 38981, 39021, 41318, 45515, 47094, 49932, 52465, 54464, 54498, 54537, 57165, 58138, 58917, 59083, 60449, 60707, 61734, 61862, 63025, 65013, 65931, 67012, 68086, 69877, 71554]}, "edge": {"target": [], "time": []}}}, "displayed_time": "86.17", "trialTime": 88375, "trial_type": "mouselab-mdp", "trial_index": 16, "time_elapsed": 1760271, "internal_node_id": "0.0-2.2-2.2-1.2"}}, {"uniqueid": "w94095996:a62087430", "current_trial": 17, "dateTime": 1693390882041, "trialdata": {"view_history": [{"page_index": 0, "viewing_time": 8060}, {"page_index": 1, "viewing_time": 2477}], "rt": 10539, "trial_id": "mouselab_instructions_2_misaligned", "trial_type": "instructions", "trial_index": 17, "time_elapsed": 1770818, "internal_node_id": "0.0-2.2-3.2"}}, {"uniqueid": "w94095996:a62087430", "current_trial": 18, "dateTime": 1693390953594, "trialdata": {"rt": 71537, "response": {"Q0": "The cost for clicking on nodes may vary between nodes.", "Q1": "The better I perform the higher my bonus will be.", "Q2": "No, the amount of cash at each node of the web may be different each time.", "Q3": "To get the highest total score.", "Q4": "Only before moving the spider.", "Q5": "3 seconds"}, "question_order": [0, 1, 2, 3, 4, 5], "correct": {"Q0": "The cost for clicking on nodes may vary between nodes.", "Q1": "The better I perform the higher my bonus will be.", "Q2": "No, the amount of cash at each node of the web may be different each time.", "Q3": "To get the highest total score.", "Q4": "Only before moving the spider.", "Q5": "3 seconds"}, "trial_id": "mouselab_quiz_misaligned", "trial_type": "survey-multi-choice", "trial_index": 18, "time_elapsed": 1842371, "internal_node_id": "0.0-2.2-4.2"}}, {"uniqueid": "w94095996:a62087430", "current_trial": 19, "dateTime": 1693390972987, "trialdata": {"rt": 19368, "response": {"Q0": "No"}, "question_order": [0], "trial_id": "repeat_check", "trial_type": "survey-multi-choice", "trial_index": 19, "time_elapsed": 1861763, "internal_node_id": "0.0-4.0-0.0"}}, {"uniqueid": "w94095996:a62087430", "current_trial": 20, "dateTime": 1693390976852, "trialdata": {"rt": 3849, "stimulus": "\n<h1> Get ready to start the game! </h1>\n\nThank you for reading the instructions. Get ready start with the 40 rounds of this game.\n<br><br>\nIf you need to take a break, feel free to take one after the end of a round, before continuing to the next one.\n<br><br>\nRemember, the more money the spider gets, the bigger your bonus will be!\n<br><br>\n<div style='text-align: center;'>Press <code>space</code> to begin.</div>\n\n<br><br>\n(If, at any point, the <code>space</code> key does not take you to the next page, click once on the text and try again.)", "response": " ", "trial_id": "mdp_ready", "trial_type": "html-keyboard-response", "trial_index": 20, "time_elapsed": 1865629, "internal_node_id": "0.0-6.0-0.0"}}, {"uniqueid": "w94095996:a62087430", "current_trial": 21, "dateTime": 1693391074235, "trialdata": {"revealed_states": [], "clicked_states": ["23", "24", "25", "30", "32", "31", "33", "26", "28", "27", "29", "12", "13", "14", "19", "21", "20", "22", "15", "17", "16", "18", "1", "2", "3", "4", "7", "6", "5", "8", "10", "11", "9"], "num_clicks_accrued": [0, 0, 0, 0, 0, 0, 0, 0, 0, 0, 0, 0, 0], "stateRewards": ["", 1, -4, -4, 8, 1, -79, 68, -10, -79, 8, -74, -1, -3, -6, 14, 43, 23, 9, 5, -51, 63, 61, -2, 4, 6, -10, 69, -32, 57, 15, -80, -80, -77], "withholdReward": false, "trial_id": "mdp_trial_1", "block": "test", "trialIndex": 6, "score": 17.850000000000016, "costs": -51.149999999999984, "simulationMode": [null, null, null, null, null], "rewards": [1, -4, -4, 8, 68], "path": ["0", "0", "1", "2", "3", "4", "7"], "rt": [85758, 213, 245, 378, 673], "actions": ["up", "up", "up", "right", "down"], "actionTimes": [89884, 90619, 91365, 92250, 93442], "queries": {"click": {"state": {"target": ["23", "24", "25", "30", "32", "31", "33", "26", "28", "27", "29", "12", "13", "14", "19", "21", "20", "22", "15", "17", "16", "18", "1", "2", "3", "4", "7", "6", "5", "8", "10", "11", "9"], "time": [5468, 6697, 8005, 9153, 10329, 13370, 17479, 21402, 23088, 25939, 28967, 32060, 34180, 35709, 37270, 38638, 41665, 44833, 47915, 49418, 52697, 56225, 60784, 62371, 63871, 65428, 66686, 69638, 72521, 75671, 77074, 80214, 83460]}, "edge": {"target": [], "time": []}}, "mouseover": {"state": {"target": ["23", "24", "25", "30", "32", "31", "30", "33", "25", "24", "23", "0", "24", "26", "28", "27", "29", "26", "28", "0", "12", "13", "14", "19", "21", "20", "19", "22", "15", "15", "17", "16", "18", "1", "2", "3", "4", "7", "6", "5", "9", "8", "10", "11", "9", "10"], "time": [5084, 6102, 7550, 8691, 9822, 11056, 14005, 14295, 18216, 18248, 18285, 18324, 20383, 20766, 22452, 24281, 27854, 29852, 29938, 30437, 31220, 33349, 35227, 36691, 38230, 39528, 42702, 43356, 46694, 47365, 48726, 50438, 53712, 57403, 61831, 63235, 64948, 66169, 68400, 71255, 73918, 74400, 76664, 79099, 80948, 84434]}, "edge": {"target": [], "time": []}}, "mouseout": {"state": {"target": ["0", "23", "24", "25", "30", "32", "31", "30", "33", "25", "24", "23", "0", "24", "26", "28", "27", "29", "26", "28", "0", "12", "13", "14", "19", "21", "20", "19", "22", "15", "15", "17", "16", "18", "1", "2", "3", "4", "7", "6", "5", "9", "8", "10", "11", "9", "10", "31"], "time": [4949, 5974, 7341, 8531, 9720, 10890, 13952, 14123, 18188, 18241, 18277, 18316, 18406, 20415, 22085, 23975, 27022, 29751, 29930, 29969, 30496, 33216, 35019, 36507, 37982, 39192, 42527, 43026, 46584, 46751, 48696, 50068, 53370, 56834, 61501, 63004, 64770, 66122, 67443, 70618, 73499, 74202, 76410, 78841, 80902, 84200, 84586, 95331]}, "edge": {"target": [], "time": []}}}, "displayed_time": "93.97", "trialTime": 96410, "trial_type": "mouselab-mdp", "trial_index": 21, "time_elapsed": 1963011, "internal_node_id": "0.0-6.0-1.0-0.0"}}, {"uniqueid": "w94095996:a62087430", "current_trial": 22, "dateTime": 1693391176775, "trialdata": {"revealed_states": [], "clicked_states": ["23", "24", "25", "30", "32", "31", "33", "12", "13", "14", "19", "21", "20", "22", "15", "17", "16", "18", "1", "2", "3", "4", "7", "6", "5", "8", "10", "11", "9", "26", "28", "27", "29"], "num_clicks_accrued": [0, 0, 0, 0, 0, 0, 0, 0, 0, 0, 0, 0, 0], "stateRewards": ["", -2, -4, -6, 12, -58, -70, -80, 2, 16, -88, -62, 1, 2, -5, 11, 77, -35, -44, -5, 18, -83, 87, 1, -3, -5, 13, -44, -21, -86, 10, -52, 8, 29], "withholdReward": false, "trial_id": "mdp_trial_2", "block": "test", "trialIndex": 7, "score": 28.850000000000016, "costs": -51.149999999999984, "simulationMode": [null, null, null, null, null], "rewards": [1, 2, -5, -5, 87], "path": ["0", "0", "12", "13", "14", "19", "22"], "rt": [91709, 313, 297, 500, 824], "actions": ["right", "right", "right", "down", "left"], "actionTimes": [94944, 95786, 96586, 97588, 98932], "queries": {"click": {"state": {"target": ["23", "24", "25", "30", "32", "31", "33", "12", "13", "14", "19", "21", "20", "22", "15", "17", "16", "18", "1", "2", "3", "4", "7", "6", "5", "8", "10", "11", "9", "26", "28", "27", "29"], "time": [4889, 6018, 7138, 8322, 9582, 13533, 18486, 22059, 23444, 24886, 26382, 27987, 31474, 36258, 39534, 40850, 44130, 46977, 50300, 51950, 53269, 54487, 55771, 59251, 62135, 65101, 66685, 70231, 73878, 78177, 79618, 83073, 88548]}, "edge": {"target": [], "time": []}}, "mouseover": {"state": {"target": ["0", "23", "24", "25", "30", "32", "31", "30", "33", "12", "13", "14", "19", "21", "20", "19", "22", "14", "15", "17", "16", "18", "1", "1", "1", "2", "3", "4", "7", "6", "6", "5", "5", "8", "10", "11", "9", "27", "26", "28", "27", "29", "26", "23"], "time": [4238, 4540, 5509, 6622, 7892, 9101, 11541, 14223, 14263, 19745, 22970, 24138, 25902, 27423, 30873, 32207, 32335, 37262, 37778, 40393, 41674, 45019, 47576, 47900, 48273, 51586, 52757, 53928, 55348, 56339, 56787, 59806, 60187, 64678, 66234, 68317, 71449, 74892, 75487, 79182, 80955, 84384, 89645, 89929]}, "edge": {"target": [], "time": []}}, "mouseout": {"state": {"target": ["14", "0", "0", "0", "23", "24", "25", "30", "32", "31", "30", "33", "12", "13", "14", "14", "19", "21", "20", "19", "22", "14", "15", "17", "16", "18", "1", "1", "1", "2", "3", "4", "7", "6", "6", "5", "5", "8", "10", "11", "9", "11", "27", "26", "28", "27", "29", "26", "23"], "time": [607, 1106, 1354, 4322, 5430, 6556, 7718, 8993, 10072, 14189, 14254, 19037, 22840, 24128, 25091, 25712, 27228, 28660, 32199, 32285, 37155, 37493, 40224, 41361, 44760, 47545, 47609, 47983, 51290, 52703, 53898, 55115, 56307, 56368, 59780, 59838, 64135, 66058, 67899, 70984, 74605, 74673, 75023, 78902, 80368, 83985, 89578, 89671, 90079]}, "edge": {"target": [], "time": []}}}, "displayed_time": "99.46", "trialTime": 101328, "trial_type": "mouselab-mdp", "trial_index": 22, "time_elapsed": 2065552, "internal_node_id": "0.0-6.0-1.0-1.0"}}, {"uniqueid": "w94095996:a62087430", "current_trial": 23, "dateTime": 1693391276684, "trialdata": {"revealed_states": [], "clicked_states": ["23", "24", "25", "30", "32", "31", "33", "12", "13", "14", "19", "21", "20", "22", "15", "16", "17", "18", "1", "2", "3", "4", "7", "6", "5", "8", "10", "9", "11", "26", "27", "28", "29"], "num_clicks_accrued": [0, 0, 0, 0, 0, 0, 0, 0, 0, 0, 0, 0, 0], "stateRewards": ["", 1, -1, 8, -3, 38, 85, -20, -4, 8, 23, 73, 2, -4, 6, -13, 44, 7, -28, -11, -77, 45, -69, 1, -1, -7, -11, 75, -51, -87, 7, 36, -53, -26], "withholdReward": false, "trial_id": "mdp_trial_3", "block": "test", "trialIndex": 8, "score": 38.850000000000016, "costs": -51.149999999999984, "simulationMode": [null, null, null, null, null], "rewards": [1, -1, 8, -3, 85], "path": ["0", "0", "1", "2", "3", "4", "6"], "rt": [89355, 300, 325, 425, 549], "actions": ["up", "up", "up", "right", "right"], "actionTimes": [93067, 93868, 94724, 95713, 96782], "queries": {"click": {"state": {"target": ["23", "24", "25", "30", "32", "31", "33", "12", "13", "14", "19", "21", "20", "22", "15", "16", "17", "18", "1", "2", "3", "4", "7", "6", "5", "8", "10", "9", "11", "26", "27", "28", "29"], "time": [5525, 7339, 8795, 10271, 11811, 15199, 18653, 23044, 24387, 25700, 27020, 28797, 32918, 36615, 40159, 41661, 44592, 48008, 51269, 52518, 53932, 55501, 56966, 60493, 63433, 66713, 68411, 71601, 74972, 78450, 79799, 83011, 86406]}, "edge": {"target": [], "time": []}}, "mouseover": {"state": {"target": ["23", "24", "25", "30", "32", "31", "30", "33", "30", "31", "12", "13", "14", "14", "19", "21", "20", "19", "22", "14", "15", "16", "17", "15", "18", "1", "2", "3", "4", "7", "6", "6", "5", "8", "10", "9", "11", "28", "26", "27", "28", "26", "29", "23"], "time": [5130, 6903, 8302, 9830, 11382, 14212, 15906, 16146, 22036, 22063, 22628, 23986, 24882, 25252, 26563, 28380, 29750, 33722, 34078, 37219, 37638, 41297, 42802, 45612, 45954, 49526, 51941, 53495, 54946, 56562, 57937, 58377, 61585, 65564, 67996, 69680, 72490, 75686, 76492, 79359, 80564, 83663, 84098, 87693]}, "edge": {"target": [], "time": []}}, "mouseout": {"state": {"target": ["0", "23", "24", "25", "30", "32", "31", "30", "33", "30", "31", "12", "13", "14", "14", "19", "21", "20", "19", "22", "14", "15", "16", "17", "15", "18", "1", "2", "3", "4", "7", "6", "6", "5", "8", "10", "8", "9", "11", "28", "26", "27", "28", "26", "29", "23"], "time": [4913, 6889, 8145, 9696, 11182, 12628, 15881, 15933, 22030, 22055, 22083, 23833, 24873, 24992, 26498, 28148, 29407, 33696, 33865, 37192, 37254, 40909, 42495, 45444, 45765, 49153, 51883, 53231, 54798, 56330, 57853, 58050, 61126, 65181, 67704, 69212, 69412, 72260, 75607, 76225, 79025, 80320, 83598, 83905, 87135, 87810]}, "edge": {"target": [], "time": []}}}, "displayed_time": "97.30", "trialTime": 99000, "trial_type": "mouselab-mdp", "trial_index": 23, "time_elapsed": 2165459, "internal_node_id": "0.0-6.0-1.0-2.0"}}, {"uniqueid": "w94095996:a62087430", "current_trial": 24, "dateTime": 1693391380384, "trialdata": {"revealed_states": [], "clicked_states": ["23", "24", "25", "30", "32", "31", "33", "26", "28", "27", "29", "12", "13", "14", "19", "21", "20", "22", "15", "17", "16", "18", "1", "2", "3", "4", "7", "6", "5", "8", "10", "9", "11"], "num_clicks_accrued": [0, 0, 0, 0, 0, 0, 0, 0, 0, 0, 0, 0, 0], "stateRewards": ["", 1, 2, -3, -6, 50, -7, 7, -7, -80, 21, -1, 2, 2, 4, -1, 33, 84, 1, 14, -53, 81, 6, -2, -2, -3, -9, -87, -38, -59, -5, -74, -3, -71], "withholdReward": false, "trial_id": "mdp_trial_4", "block": "test", "trialIndex": 9, "score": 51.850000000000016, "costs": -51.149999999999984, "simulationMode": [null, null, null, null, null], "rewards": [2, 2, 4, 14, 81], "path": ["0", "0", "12", "13", "14", "19", "21"], "rt": [89144, 313, 184, 690, 326], "actions": ["right", "right", "right", "down", "down"], "actionTimes": [96895, 97735, 98442, 99643, 100499], "queries": {"click": {"state": {"target": ["23", "24", "25", "30", "32", "31", "33", "26", "28", "27", "29", "12", "13", "14", "19", "21", "20", "22", "15", "17", "16", "18", "1", "2", "3", "4", "7", "6", "5", "8", "10", "9", "11"], "time": [9897, 11227, 12482, 13892, 15366, 18436, 22377, 25427, 26940, 29763, 33601, 36990, 38556, 40029, 41511, 42925, 46234, 49025, 53052, 54615, 58035, 61922, 65854, 67207, 68566, 69966, 71405, 74973, 77921, 81246, 82690, 86233, 89787]}, "edge": {"target": [], "time": []}}, "mouseover": {"state": {"target": ["23", "24", "25", "30", "32", "31", "30", "33", "25", "26", "28", "27", "29", "26", "0", "12", "13", "14", "19", "21", "20", "19", "22", "15", "17", "16", "18", "1", "2", "3", "4", "7", "6", "5", "9", "8", "10", "9", "11", "17", "17", "19", "21", "20"], "time": [9436, 10814, 12167, 13461, 14658, 16483, 19110, 19328, 24296, 24926, 26517, 28015, 30667, 34722, 34995, 35887, 37852, 39628, 41058, 42479, 44339, 47395, 47799, 50437, 54200, 56219, 59584, 65465, 66811, 68141, 69382, 70981, 74482, 75704, 78905, 79260, 82320, 84537, 87195, 91032, 91374, 92051, 92513, 92981]}, "edge": {"target": [], "time": []}}, "mouseout": {"state": {"target": ["0", "23", "24", "25", "30", "30", "32", "31", "30", "33", "25", "26", "28", "27", "29", "26", "0", "12", "13", "14", "19", "21", "20", "19", "22", "15", "17", "16", "18", "1", "2", "3", "4", "7", "6", "5", "9", "8", "10", "8", "9", "11", "17", "17", "19", "21", "20"], "time": [9336, 10671, 11876, 13264, 14105, 14563, 16157, 19076, 19181, 23510, 24523, 26189, 27537, 30629, 34440, 34773, 35456, 37746, 39364, 40820, 42157, 43667, 47280, 47604, 50300, 54008, 55534, 59128, 65034, 66505, 67839, 69270, 70774, 74217, 75411, 78431, 79002, 82184, 83287, 83756, 86798, 90562, 91067, 91512, 92145, 92814, 93120]}, "edge": {"target": [], "time": []}}}, "displayed_time": "101.00", "trialTime": 102711, "trial_type": "mouselab-mdp", "trial_index": 24, "time_elapsed": 2269160, "internal_node_id": "0.0-6.0-1.0-3.0"}}, {"uniqueid": "w94095996:a62087430", "current_trial": 25, "dateTime": 1693391480310, "trialdata": {"revealed_states": [], "clicked_states": ["12", "13", "14", "19", "21", "20", "22", "15", "17", "16", "18", "1", "2", "3", "4", "7", "6", "5", "8", "9", "10", "11", "23", "24", "25", "30", "32", "31", "33", "26", "28", "29", "27"], "num_clicks_accrued": [0, 0, 0, 0, 0, 0, 0, 0, 0, 0, 0, 0, 0], "stateRewards": ["", 2, -3, 5, -14, -63, -9, -24, -11, -54, -43, 68, 2, -2, -4, 7, -64, 30, 47, 12, -74, 11, 86, 1, -3, 3, 10, -71, -42, -52, -1, -29, -16, 69], "withholdReward": false, "trial_id": "mdp_trial_5", "block": "test", "trialIndex": 10, "score": 42.850000000000016, "costs": -51.149999999999984, "simulationMode": [null, null, null, null, null], "rewards": [2, -2, -4, 12, 86], "path": ["0", "0", "12", "13", "14", "19", "22"], "rt": [89383, 286, 360, 763, 450], "actions": ["right", "right", "right", "down", "left"], "actionTimes": [92573, 93372, 94243, 95542, 96520], "queries": {"click": {"state": {"target": ["12", "13", "14", "19", "21", "20", "22", "15", "17", "16", "18", "1", "2", "3", "4", "7", "6", "5", "8", "9", "10", "11", "23", "24", "25", "30", "32", "31", "33", "26", "28", "29", "27"], "time": [4619, 5946, 7247, 8570, 9795, 13208, 16565, 21388, 23676, 27129, 30736, 34786, 36056, 37258, 38555, 39823, 42717, 46272, 50163, 51387, 55511, 58711, 62602, 63761, 65067, 66338, 67616, 70750, 73708, 77895, 79070, 82653, 86097]}, "edge": {"target": [], "time": []}}, "mouseover": {"state": {"target": ["12", "13", "14", "19", "21", "20", "22", "14", "15", "17", "16", "18", "18", "1", "2", "3", "4", "7", "6", "5", "8", "8", "9", "11", "10", "11", "28", "23", "24", "25", "30", "32", "31", "30", "33", "25", "26", "28", "29", "27", "27", "0"], "time": [4164, 5371, 6799, 8131, 9366, 11026, 14193, 20079, 20596, 23029, 26514, 29278, 29926, 34397, 35591, 36749, 38064, 39351, 40947, 43777, 47240, 47695, 51013, 52013, 54775, 56230, 59267, 59591, 63226, 64703, 65947, 67253, 68303, 71646, 72010, 74254, 74627, 78425, 80072, 83429, 83787, 86887]}, "edge": {"target": [], "time": []}}, "mouseout": {"state": {"target": ["14", "13", "12", "13", "14", "19", "21", "20", "22", "14", "15", "17", "16", "18", "18", "1", "2", "3", "3", "4", "7", "6", "5", "8", "8", "9", "11", "10", "11", "28", "23", "24", "25", "30", "32", "31", "30", "33", "25", "26", "28", "26", "29", "27", "27", "0"], "time": [1711, 1760, 5204, 6660, 7902, 9201, 10608, 14007, 19916, 20260, 22730, 26146, 29239, 29458, 33910, 35477, 36710, 37448, 37905, 39264, 40465, 43382, 46996, 47329, 50674, 51908, 54727, 56034, 59239, 59298, 63137, 64526, 65803, 67023, 68229, 71549, 71857, 74226, 74282, 78395, 79723, 79886, 83155, 83465, 86703, 86922]}, "edge": {"target": [], "time": []}}}, "displayed_time": "97.03", "trialTime": 98468, "trial_type": "mouselab-mdp", "trial_index": 25, "time_elapsed": 2369086, "internal_node_id": "0.0-6.0-1.0-4.0"}}, {"uniqueid": "w94095996:a62087430", "current_trial": 26, "dateTime": 1693391504724, "trialdata": {"revealed_states": [], "clicked_states": [], "num_clicks_accrued": [0, 0, 0, 0, 0, 0, 0, 0, 0, 0, 0, 0, 0], "stateRewards": ["", 2, 3, 6, -5, -74, -53, 17, -12, 46, 44, 18, -2, 4, 1, -8, 22, -23, -49, 9, -45, 55, 81, 1, -1, -7, -16, -83, -71, -45, 2, 51, 82, 61], "withholdReward": false, "trial_id": "mdp_trial_6", "block": "test", "trialIndex": 11, "score": -28, "costs": 0, "simulationMode": [null, null, null, null, null], "rewards": [-2, 4, 1, -8, -23], "path": ["0", "0", "12", "13", "14", "15", "17"], "rt": [10605, 634, 166, 4570, 376], "actions": ["right", "right", "right", "up", "right"], "actionTimes": [13353, 14506, 15201, 20295, 21202], "queries": {"click": {"state": {"target": [], "time": []}, "edge": {"target": [], "time": []}}, "mouseover": {"state": {"target": ["12"], "time": [5779]}, "edge": {"target": [], "time": []}}, "mouseout": {"state": {"target": ["0", "12"], "time": [5647, 11896]}, "edge": {"target": [], "time": []}}}, "displayed_time": "21.72", "trialTime": 23238, "trial_type": "mouselab-mdp", "trial_index": 26, "time_elapsed": 2393500, "internal_node_id": "0.0-6.0-1.0-5.0"}}, {"uniqueid": "w94095996:a62087430", "current_trial": 27, "dateTime": 1693391605661, "trialdata": {"revealed_states": [], "clicked_states": ["12", "13", "14", "19", "21", "22", "20", "15", "17", "16", "18", "23", "24", "25", "30", "31", "32", "33", "26", "28", "27", "29", "1", "2", "3", "4", "6", "5", "7", "8", "10", "9", "11"], "num_clicks_accrued": [0, 0, 0, 0, 0, 0, 0, 0, 0, 0, 0, 0, 0], "stateRewards": ["", -1, 4, -6, -5, -22, -38, -38, -2, -56, 88, 14, -1, -1, -7, -6, 61, -60, 21, 11, 57, 31, -30, -2, -2, 6, -9, -44, -70, -44, -15, 34, 16, -78], "withholdReward": false, "trial_id": "mdp_trial_7", "block": "test", "trialIndex": 12, "score": 31.850000000000016, "costs": -51.149999999999984, "simulationMode": [null, null, null, null, null], "rewards": [-1, 4, -6, -2, 88], "path": ["0", "0", "1", "2", "3", "8", "10"], "rt": [89791, 323, 273, 616, 472], "actions": ["up", "up", "up", "left", "down"], "actionTimes": [92507, 93363, 94154, 95302, 96286], "queries": {"click": {"state": {"target": ["12", "13", "14", "19", "21", "22", "20", "15", "17", "16", "18", "23", "24", "25", "30", "31", "32", "33", "26", "28", "27", "29", "1", "2", "3", "4", "6", "5", "7", "8", "10", "9", "11"], "time": [3810, 5177, 6384, 7470, 8896, 13465, 16534, 19354, 21302, 24537, 28193, 31979, 33776, 35464, 36870, 38111, 41562, 44670, 47630, 48975, 52169, 55467, 58798, 60340, 61895, 63486, 65227, 69196, 72151, 76268, 77708, 82334, 85402]}, "edge": {"target": [], "time": []}}, "mouseover": {"state": {"target": ["12", "13", "14", "19", "21", "20", "19", "22", "19", "20", "15", "17", "16", "18", "1", "1", "23", "24", "25", "30", "31", "32", "33", "25", "26", "28", "27", "27", "29", "10", "2", "1", "2", "3", "4", "6", "5", "4", "7", "2", "3", "8", "10", "9", "11", "10"], "time": [3330, 4767, 5758, 7094, 8583, 9695, 12447, 12865, 14042, 14268, 18043, 20734, 22298, 25308, 29466, 29815, 30233, 33228, 34960, 36335, 37637, 39200, 42369, 45840, 46190, 48638, 49675, 50011, 53199, 56325, 56369, 56778, 59558, 61444, 63011, 64761, 66962, 69800, 69882, 75311, 75476, 75625, 77214, 79118, 84927, 87397]}, "edge": {"target": [], "time": []}}, "mouseout": {"state": {"target": ["0", "0", "12", "13", "14", "19", "21", "20", "19", "22", "19", "20", "15", "17", "16", "18", "1", "1", "23", "24", "25", "30", "31", "32", "33", "25", "26", "28", "27", "27", "29", "10", "2", "1", "2", "3", "4", "6", "5", "4", "7", "2", "3", "8", "10", "8", "9", "11", "10", "0"], "time": [1311, 3248, 4679, 5751, 6877, 8368, 9450, 12346, 12664, 14031, 14141, 17719, 20650, 21942, 25091, 28975, 29602, 29913, 33015, 34739, 36194, 37598, 38860, 42133, 45793, 45914, 48497, 49640, 49709, 52853, 56293, 56361, 56712, 59523, 61052, 62684, 63708, 66244, 69792, 69846, 73695, 75331, 75594, 77046, 78807, 79062, 84659, 86312, 88211, 98741]}, "edge": {"target": [], "time": []}}}, "displayed_time": "96.80", "trialTime": 99327, "trial_type": "mouselab-mdp", "trial_index": 27, "time_elapsed": 2494437, "internal_node_id": "0.0-6.0-1.0-6.0"}}, {"uniqueid": "w94095996:a62087430", "current_trial": 28, "dateTime": 1693391678018, "trialdata": {"revealed_states": [], "clicked_states": ["1", "2", "3", "4", "6", "7", "5", "8", "9", "11", "10", "23", "24", "25", "30", "32", "31", "33", "26", "28", "27", "29"], "num_clicks_accrued": [0, 0, 0, 0, 0, 0, 0, 0, 0, 0, 0, 0, 0], "stateRewards": ["", 1, 1, -3, 2, 22, -25, -11, -5, 50, 49, 3, 1, -1, 8, 14, -85, -30, 57, -6, -39, -16, 59, -2, -1, 5, 5, 59, -16, 8, 4, 67, 56, -9], "withholdReward": false, "trial_id": "mdp_trial_8", "block": "test", "trialIndex": 13, "score": 38.900000000000006, "costs": -34.099999999999994, "simulationMode": [null, null, null, null, null], "rewards": [-2, -1, 5, 4, 67], "path": ["0", "0", "23", "24", "25", "30", "31"], "rt": [60924, 198, 185, 378, 359], "actions": ["left", "left", "left", "down", "right"], "actionTimes": [65544, 66265, 66954, 67851, 68719], "queries": {"click": {"state": {"target": ["1", "2", "3", "4", "6", "7", "5", "8", "9", "11", "10", "23", "24", "25", "30", "32", "31", "33", "26", "28", "27", "29"], "time": [5942, 7252, 8508, 9998, 12246, 15534, 18878, 22436, 23801, 27359, 30763, 34472, 37210, 38535, 39852, 41145, 44676, 47897, 51414, 52721, 56330, 59215]}, "edge": {"target": [], "time": []}}, "mouseover": {"state": {"target": ["1", "2", "3", "4", "6", "7", "4", "5", "8", "9", "11", "10", "23", "24", "25", "30", "32", "31", "30", "33", "26", "28", "27", "29", "26", "14", "12"], "time": [5496, 6804, 8034, 9292, 10847, 13926, 16116, 16485, 19660, 23295, 25386, 28684, 31923, 36627, 38182, 39486, 40753, 41949, 45349, 45605, 48998, 52302, 53904, 57296, 60135, 60390, 60822]}, "edge": {"target": [], "time": []}}, "mouseout": {"state": {"target": ["0", "1", "2", "3", "4", "6", "7", "4", "5", "8", "9", "11", "10", "23", "24", "25", "30", "32", "31", "30", "33", "26", "28", "27", "29", "26", "14", "12"], "time": [5250, 6164, 7916, 9254, 10585, 13500, 16108, 16179, 19461, 23287, 25053, 28230, 31667, 36576, 37997, 39264, 40589, 41680, 45316, 45467, 48932, 52089, 53475, 57071, 60126, 60182, 60568, 62217]}, "edge": {"target": [], "time": []}}}, "displayed_time": "69.26", "trialTime": 71005, "trial_type": "mouselab-mdp", "trial_index": 28, "time_elapsed": 2566794, "internal_node_id": "0.0-6.0-1.0-7.0"}}, {"uniqueid": "w94095996:a62087430", "current_trial": 29, "dateTime": 1693391719928, "trialdata": {"revealed_states": [], "clicked_states": ["12", "13", "14", "19", "21", "20", "22", "15", "17", "16", "18"], "num_clicks_accrued": [0, 0, 0, 0, 0, 0, 0, 0, 0, 0, 0, 0, 0], "stateRewards": ["", -2, 3, -1, 2, -72, 63, 20, -1, 62, -66, 39, -2, 3, -6, 14, 22, 47, 1, 8, -49, -1, -41, 2, 2, -6, -16, -64, -60, -34, 16, 54, 22, -7], "withholdReward": false, "trial_id": "mdp_trial_9", "block": "test", "trialIndex": 14, "score": 38.95, "costs": -17.05, "simulationMode": [null, null, null, null, null], "rewards": [-2, 3, -6, 14, 47], "path": ["0", "0", "12", "13", "14", "15", "17"], "rt": [31365, 249, 215, 408, 65], "actions": ["right", "right", "right", "up", "right"], "actionTimes": [35761, 36545, 37271, 38208, 38790], "queries": {"click": {"state": {"target": ["12", "13", "14", "19", "21", "20", "22", "15", "17", "16", "18"], "time": [5849, 7078, 8305, 9608, 10906, 14562, 18130, 21479, 22992, 26377, 29549]}, "edge": {"target": [], "time": []}}, "mouseover": {"state": {"target": ["12", "13", "14", "19", "21", "20", "19", "22", "15", "17", "17", "16", "18", "0"], "time": [5430, 6430, 7911, 9143, 10453, 11929, 15233, 15693, 19358, 22270, 22584, 23989, 27348, 30511]}, "edge": {"target": [], "time": []}}, "mouseout": {"state": {"target": ["0", "12", "13", "14", "19", "21", "20", "19", "22", "15", "17", "17", "16", "18"], "time": [5246, 6367, 7744, 9007, 10381, 11612, 15158, 15478, 18931, 22231, 22342, 23582, 27068, 30398]}, "edge": {"target": [], "time": []}}}, "displayed_time": "39.31", "trialTime": 40519, "trial_type": "mouselab-mdp", "trial_index": 29, "time_elapsed": 2608704, "internal_node_id": "0.0-6.0-1.0-8.0"}}, {"uniqueid": "w94095996:a62087430", "current_trial": 30, "dateTime": 1693391779677, "trialdata": {"revealed_states": [], "clicked_states": ["1", "2", "3", "4", "7", "6", "5", "8", "10", "11", "9", "23", "24", "25", "30", "32", "31", "33"], "num_clicks_accrued": [0, 0, 0, 0, 0, 0, 0, 0, 0, 0, 0, 0, 0], "stateRewards": ["", -1, 3, -7, 16, -32, -74, -48, 2, 10, 15, -30, 1, 1, -2, 10, 12, -83, 67, 13, -66, 47, 65, -2, 4, 2, -14, -8, -57, 24, 9, 65, 12, 46], "withholdReward": false, "trial_id": "mdp_trial_10", "block": "test", "trialIndex": 15, "score": 51.900000000000006, "costs": -26.099999999999998, "simulationMode": [null, null, null, null, null], "rewards": [-2, 4, 2, 9, 65], "path": ["0", "0", "23", "24", "25", "30", "31"], "rt": [49179, 187, 165, 338, 596], "actions": ["left", "left", "left", "down", "right"], "actionTimes": [53089, 53781, 54469, 55320, 56430], "queries": {"click": {"state": {"target": ["1", "2", "3", "4", "7", "6", "5", "8", "10", "11", "9", "23", "24", "25", "30", "32", "31", "33"], "time": [5964, 7052, 8174, 9500, 10717, 14352, 17313, 20643, 23405, 26212, 30183, 33427, 35243, 36519, 38066, 39567, 43118, 46816]}, "edge": {"target": [], "time": []}}, "mouseover": {"state": {"target": ["1", "2", "3", "4", "7", "6", "5", "9", "8", "10", "11", "9", "8", "10", "23", "24", "25", "30", "32", "31", "30", "33"], "time": [5949, 6686, 7692, 8775, 10271, 11726, 15422, 18478, 18927, 21503, 24202, 28012, 31220, 31301, 32309, 34636, 36125, 37631, 39065, 40910, 43817, 44208]}, "edge": {"target": [], "time": []}}, "mouseout": {"state": {"target": ["0", "0", "0", "1", "2", "3", "4", "7", "6", "5", "9", "8", "10", "11", "9", "8", "10", "23", "24", "25", "30", "32", "31", "30", "33"], "time": [1136, 1871, 5944, 6677, 7594, 8730, 10093, 11340, 15241, 18333, 18810, 21290, 24139, 27548, 31213, 31258, 31341, 34386, 35942, 37371, 38898, 40866, 43777, 43984, 47638]}, "edge": {"target": [], "time": []}}}, "displayed_time": "56.96", "trialTime": 58413, "trial_type": "mouselab-mdp", "trial_index": 30, "time_elapsed": 2668453, "internal_node_id": "0.0-6.0-1.0-9.0"}}, {"uniqueid": "w94095996:a62087430", "current_trial": 31, "dateTime": 1693391821278, "trialdata": {"revealed_states": [], "clicked_states": ["12", "13", "14", "19", "20", "21", "22"], "num_clicks_accrued": [0, 0, 0, 0, 0, 0, 0, 0, 0, 0, 0, 0, 0], "stateRewards": ["", 2, -1, -1, 7, 11, -40, -22, -2, 69, 37, 8, -2, 4, -8, -12, -2, -72, -3, -12, 17, 63, 12, 1, 3, -7, 6, 25, 61, 61, -9, 28, -17, 27], "withholdReward": false, "trial_id": "mdp_trial_11", "block": "test", "trialIndex": 16, "score": -10.05, "costs": -9.05, "simulationMode": [null, null, null, null, null], "rewards": [-2, 4, -8, -12, 17], "path": ["0", "0", "12", "13", "14", "19", "20"], "rt": [20373, 479, 3097, 613, 3429], "actions": ["right", "right", "right", "down", "right"], "actionTimes": [23632, 24630, 28245, 29405, 33340], "queries": {"click": {"state": {"target": ["12", "13", "14", "19", "20", "21", "22"], "time": [5647, 6742, 7975, 9129, 10311, 13460, 16260]}, "edge": {"target": [], "time": []}}, "mouseover": {"state": {"target": ["12", "13", "14", "19", "20", "21", "22", "14", "15", "12"], "time": [5338, 6174, 7608, 8699, 9831, 11158, 14627, 17067, 17835, 18519]}, "edge": {"target": [], "time": []}}, "mouseout": {"state": {"target": ["0", "12", "13", "14", "19", "20", "20", "21", "22", "14", "15", "12"], "time": [5137, 6123, 7321, 8509, 9757, 10525, 10883, 14118, 17026, 17229, 18329, 18552]}, "edge": {"target": [], "time": []}}}, "displayed_time": "33.86", "trialTime": 40283, "trial_type": "mouselab-mdp", "trial_index": 31, "time_elapsed": 2710054, "internal_node_id": "0.0-6.0-1.0-10.0"}}, {"uniqueid": "w94095996:a62087430", "current_trial": 32, "dateTime": 1693391863587, "trialdata": {"revealed_states": [], "clicked_states": ["12", "13", "14", "15", "17", "16", "18", "19", "21", "20", "22", "23"], "num_clicks_accrued": [0, 0, 0, 0, 0, 0, 0, 0, 0, 0, 0, 0, 0], "stateRewards": ["", -2, 3, 8, -9, 59, 41, -50, -1, 82, 66, 33, 2, -2, 7, 8, 1, -38, 12, -16, 24, -37, 67, 1, 4, -2, 5, 35, -83, 28, 8, -27, 69, -64], "withholdReward": false, "trial_id": "mdp_trial_12", "block": "test", "trialIndex": 17, "score": 41.2, "costs": -16.8, "simulationMode": [null, null, null, null, null], "rewards": [2, -2, 7, -16, 67], "path": ["0", "0", "12", "13", "14", "19", "22"], "rt": [32457, 300, 284, 433, 522], "actions": ["right", "right", "right", "down", "left"], "actionTimes": [35390, 36223, 37036, 37985, 39011], "queries": {"click": {"state": {"target": ["12", "13", "14", "15", "17", "16", "18", "19", "21", "20", "22", "23"], "time": [5568, 7046, 8285, 9784, 11017, 14601, 18351, 21688, 23167, 26598, 30089, 33452]}, "edge": {"target": [], "time": []}}, "mouseover": {"state": {"target": ["12", "13", "14", "15", "17", "16", "18", "14", "19", "21", "20", "22", "0", "23", "0"], "time": [4998, 6449, 7841, 9152, 10647, 12176, 15211, 19161, 19481, 22734, 24825, 27675, 31529, 31850, 34661]}, "edge": {"target": [], "time": []}}, "mouseout": {"state": {"target": ["1", "0", "12", "13", "14", "15", "17", "16", "18", "14", "19", "21", "20", "22", "0", "23"], "time": [1430, 4963, 6418, 7670, 9009, 10431, 11854, 15167, 19096, 19198, 22567, 24346, 27224, 31402, 31566, 34548]}, "edge": {"target": [], "time": []}}}, "displayed_time": "39.54", "trialTime": 40887, "trial_type": "mouselab-mdp", "trial_index": 32, "time_elapsed": 2752363, "internal_node_id": "0.0-6.0-1.0-11.0"}}, {"uniqueid": "w94095996:a62087430", "current_trial": 33, "dateTime": 1693391897554, "trialdata": {"revealed_states": [], "clicked_states": ["23", "24", "25", "30", "31", "32", "33"], "num_clicks_accrued": [0, 0, 0, 0, 0, 0, 0, 0, 0, 0, 0, 0, 0], "stateRewards": ["", 2, 3, -2, -8, -8, -41, 74, 15, -23, -80, 1, 1, 3, 3, -15, -63, -78, 67, 13, 75, -41, 86, 2, -2, 6, -3, -8, -49, 50, -6, 83, 74, 80], "withholdReward": false, "trial_id": "mdp_trial_13", "block": "test", "trialIndex": 18, "score": 73.95, "costs": -9.05, "simulationMode": [null, null, null, null, null], "rewards": [2, -2, 6, -6, 83], "path": ["0", "0", "23", "24", "25", "30", "31"], "rt": [21934, 239, 331, 305, 315], "actions": ["left", "left", "left", "down", "right"], "actionTimes": [25938, 26705, 27586, 28415, 29246], "queries": {"click": {"state": {"target": ["23", "24", "25", "30", "31", "32", "33"], "time": [5845, 7063, 8336, 9560, 10872, 14134, 19296]}, "edge": {"target": [], "time": []}}, "mouseover": {"state": {"target": ["23", "24", "25", "30", "31", "32", "33"], "time": [5458, 6612, 7989, 9155, 10296, 11971, 15095]}, "edge": {"target": [], "time": []}}, "mouseout": {"state": {"target": ["0", "0", "23", "24", "25", "30", "31", "32", "33", "30"], "time": [2189, 5292, 6355, 7723, 8955, 10291, 11688, 14747, 31274, 31306]}, "edge": {"target": [], "time": []}}}, "displayed_time": "29.75", "trialTime": 32601, "trial_type": "mouselab-mdp", "trial_index": 33, "time_elapsed": 2786330, "internal_node_id": "0.0-6.0-1.0-12.0"}}, {"uniqueid": "w94095996:a62087430", "current_trial": 34, "dateTime": 1693391922640, "trialdata": {"revealed_states": [], "clicked_states": ["23", "24", "25", "26", "28", "27", "29"], "num_clicks_accrued": [0, 0, 0, 0, 0, 0, 0, 0, 0, 0, 0, 0, 0], "stateRewards": ["", 1, -2, 4, 7, -43, -83, -60, -5, -86, -80, 83, -1, -2, 6, 11, -15, 21, 13, 9, 29, -49, 11, -1, 4, -6, -11, 87, 40, 63, -8, -39, -11, 62], "withholdReward": false, "trial_id": "mdp_trial_14", "block": "test", "trialIndex": 19, "score": 63.95, "costs": -9.05, "simulationMode": [null, null, null, null, null], "rewards": [-1, 4, -6, -11, 87], "path": ["0", "0", "23", "24", "25", "26", "27"], "rt": [16313, 108, 230, 284, 19], "actions": ["left", "left", "left", "up", "up"], "actionTimes": [19374, 20005, 20735, 21546, 22093], "queries": {"click": {"state": {"target": ["23", "24", "25", "26", "28", "27", "29"], "time": [4511, 5666, 6976, 8185, 9237, 12901, 16103]}, "edge": {"target": [], "time": []}}, "mouseover": {"state": {"target": ["23", "24", "25", "26", "28", "27", "29"], "time": [4151, 5366, 6551, 7657, 8733, 10916, 13814]}, "edge": {"target": [], "time": []}}, "mouseout": {"state": {"target": ["0", "23", "24", "25", "26", "28", "27", "29"], "time": [4004, 5121, 6259, 7448, 8702, 10630, 13637, 16938]}, "edge": {"target": [], "time": []}}}, "displayed_time": "22.63", "trialTime": 23730, "trial_type": "mouselab-mdp", "trial_index": 34, "time_elapsed": 2811416, "internal_node_id": "0.0-6.0-1.0-13.0"}}, {"uniqueid": "w94095996:a62087430", "current_trial": 35, "dateTime": 1693391949682, "trialdata": {"revealed_states": [], "clicked_states": ["12", "13", "14", "15", "17", "16", "18"], "num_clicks_accrued": [0, 0, 0, 0, 0, 0, 0, 0, 0, 0, 0, 0, 0], "stateRewards": ["", -2, -3, -3, 9, 79, 67, 22, -15, -56, 27, -85, -2, 4, -4, -15, -20, -32, 60, 15, 71, 57, 17, 1, 2, -8, 15, -37, -81, 82, 15, 21, -3, 2], "withholdReward": false, "trial_id": "mdp_trial_15", "block": "test", "trialIndex": 20, "score": 33.95, "costs": -9.05, "simulationMode": [null, null, null, null, null], "rewards": [-2, 4, -4, -15, 60], "path": ["0", "0", "12", "13", "14", "15", "18"], "rt": [17657, 355, 815, 430, 301], "actions": ["right", "right", "right", "up", "left"], "actionTimes": [20339, 21214, 22559, 23491, 24303], "queries": {"click": {"state": {"target": ["12", "13", "14", "15", "17", "16", "18"], "time": [4209, 5428, 6531, 7749, 8939, 12090, 15540]}, "edge": {"target": [], "time": []}}, "mouseover": {"state": {"target": ["12", "13", "14", "15", "17", "16", "18", "19"], "time": [3779, 5035, 6219, 7337, 8529, 9774, 13169, 16890]}, "edge": {"target": [], "time": []}}, "mouseout": {"state": {"target": ["0", "12", "13", "14", "15", "17", "16", "18"], "time": [3528, 4783, 5910, 7037, 8303, 9511, 12897, 16290]}, "edge": {"target": [], "time": []}}}, "displayed_time": "24.83", "trialTime": 25660, "trial_type": "mouselab-mdp", "trial_index": 35, "time_elapsed": 2838458, "internal_node_id": "0.0-6.0-1.0-14.0"}}, {"uniqueid": "w94095996:a62087430", "current_trial": 36, "dateTime": 1693391990267, "trialdata": {"revealed_states": [], "clicked_states": ["23", "24", "25", "26", "28", "27", "29", "33", "32", "31", "21"], "num_clicks_accrued": [0, 0, 0, 0, 0, 0, 0, 0, 0, 0, 0, 0, 0], "stateRewards": ["", -1, 2, 5, -6, 13, -64, -47, 8, -79, -80, -33, 1, 2, -2, -16, 56, -71, -10, 3, 29, 44, 85, -1, 4, 5, 4, -36, -56, 19, 8, 52, -13, -2], "withholdReward": false, "trial_id": "mdp_trial_16", "block": "test", "trialIndex": 21, "score": 50.349999999999994, "costs": -17.650000000000002, "simulationMode": [null, null, null, null, null, null], "rewards": [-1, 4, 5, 8, 52], "path": ["0", "0", "23", "24", "25", "30", "31"], "rt": [29047, 2434, 145, 182, 529, 602], "actions": ["left", "left", "left", "left", "down", "right"], "actionTimes": [31548, 33994, 34668, 35365, 36426, 37587], "queries": {"click": {"state": {"target": ["23", "24", "25", "26", "28", "27", "29", "33", "32", "31", "21"], "time": [4439, 5764, 6969, 8081, 9102, 12055, 15475, 19476, 22834, 26079, 29238]}, "edge": {"target": [], "time": []}}, "mouseover": {"state": {"target": ["23", "23", "24", "25", "26", "28", "27", "29", "33", "32", "31", "31", "21"], "time": [3377, 3721, 5181, 6561, 7680, 8583, 10318, 13124, 19003, 21406, 23346, 23664, 28206]}, "edge": {"target": [], "time": []}}, "mouseout": {"state": {"target": ["19", "12", "0", "23", "23", "24", "25", "26", "28", "27", "29", "33", "32", "31", "31"], "time": [832, 916, 3367, 3451, 5144, 6378, 7420, 8545, 10031, 12853, 16481, 20402, 23310, 23383, 26807]}, "edge": {"target": [], "time": []}}}, "displayed_time": "38.11", "trialTime": 39127, "trial_type": "mouselab-mdp", "trial_index": 36, "time_elapsed": 2879043, "internal_node_id": "0.0-6.0-1.0-15.0"}}, {"uniqueid": "w94095996:a62087430", "current_trial": 37, "dateTime": 1693392011603, "trialdata": {"revealed_states": [], "clicked_states": ["21", "20", "22"], "num_clicks_accrued": [0, 0, 0, 0, 0, 0, 0, 0, 0, 0, 0, 0, 0], "stateRewards": ["", -1, 3, -4, -14, 78, 67, 2, 13, -32, 28, 39, -2, 1, -4, -4, -4, -42, -86, 11, 64, -29, -32, -1, -4, 2, -7, 5, 68, -61, 2, -21, 85, 50], "withholdReward": false, "trial_id": "mdp_trial_17", "block": "test", "trialIndex": 22, "score": 63.55, "costs": -6.449999999999999, "simulationMode": [null, null, null, null, null], "rewards": [-2, 1, -4, 11, 64], "path": ["0", "0", "12", "13", "14", "19", "20"], "rt": [12433, 230, 349, 245, 145], "actions": ["right", "right", "right", "down", "right"], "actionTimes": [15168, 15908, 16793, 17557, 18229], "queries": {"click": {"state": {"target": ["21", "20", "22"], "time": [4204, 7658, 11359]}, "edge": {"target": [], "time": []}}, "mouseover": {"state": {"target": ["22", "21", "20", "19", "22"], "time": [3485, 3770, 4903, 8385, 8463]}, "edge": {"target": [], "time": []}}, "mouseout": {"state": {"target": ["21", "0", "22", "21", "20", "19"], "time": [1202, 3442, 3510, 4673, 8347, 8423]}, "edge": {"target": [], "time": []}}}, "displayed_time": "18.75", "trialTime": 20018, "trial_type": "mouselab-mdp", "trial_index": 37, "time_elapsed": 2900379, "internal_node_id": "0.0-6.0-1.0-16.0"}}, {"uniqueid": "w94095996:a62087430", "current_trial": 38, "dateTime": 1693392044131, "trialdata": {"revealed_states": [], "clicked_states": ["28", "27", "33", "32", "31"], "num_clicks_accrued": [0, 0, 0, 0, 0, 0, 0, 0, 0, 0, 0, 0, 0], "stateRewards": ["", -2, 2, -2, -7, -50, -62, -45, 7, 36, -24, -72, -1, -1, 8, -1, -67, 20, -52, 2, 35, -50, 80, -1, 1, 6, -6, -70, 6, 88, 8, -47, 74, -19], "withholdReward": false, "trial_id": "mdp_trial_18", "block": "test", "trialIndex": 23, "score": 77.25, "costs": -10.75, "simulationMode": [null, null, null, null, null], "rewards": [-1, 1, 6, 8, 74], "path": ["0", "0", "23", "24", "25", "30", "32"], "rt": [24067, 148, 99, 342, 215], "actions": ["left", "left", "left", "down", "down"], "actionTimes": [26717, 27391, 28074, 28927, 29666], "queries": {"click": {"state": {"target": ["28", "27", "33", "32", "31"], "time": [4452, 7490, 11884, 14994, 19925]}, "edge": {"target": [], "time": []}}, "mouseover": {"state": {"target": ["23", "28", "28", "27", "29", "33", "32", "31", "24", "29", "29"], "time": [3585, 3693, 4028, 5317, 8331, 11362, 13077, 15912, 25343, 25405, 25935]}, "edge": {"target": [], "time": []}}, "mouseout": {"state": {"target": ["22", "0", "23", "28", "28", "27", "29", "33", "32", "31", "24", "29"], "time": [865, 3561, 3662, 3730, 5019, 8122, 10894, 12983, 15700, 20617, 25378, 25433]}, "edge": {"target": [], "time": []}}}, "displayed_time": "30.18", "trialTime": 31157, "trial_type": "mouselab-mdp", "trial_index": 38, "time_elapsed": 2932908, "internal_node_id": "0.0-6.0-1.0-17.0"}}, {"uniqueid": "w94095996:a62087430", "current_trial": 39, "dateTime": 1693392077683, "trialdata": {"revealed_states": [], "clicked_states": ["21", "22", "20", "17"], "num_clicks_accrued": [0, 0, 0, 0, 0, 0, 0, 0, 0, 0, 0, 0, 0], "stateRewards": ["", 2, 1, -3, 7, 46, 11, -36, 16, 71, 5, 1, 2, -2, -8, -3, -4, 6, 55, 7, 68, -54, 2, 1, 1, 6, -6, 42, -4, -84, -11, -65, 63, 25], "withholdReward": false, "trial_id": "mdp_trial_19", "block": "test", "trialIndex": 24, "score": 58.4, "costs": -8.6, "simulationMode": [null, null, null, null, null], "rewards": [2, -2, -8, 7, 68], "path": ["0", "0", "12", "13", "14", "19", "20"], "rt": [15125, 348, 345, 355, 409], "actions": ["right", "right", "right", "down", "right"], "actionTimes": [27352, 28241, 29100, 29979, 30915], "queries": {"click": {"state": {"target": ["21", "22", "20", "17"], "time": [13984, 17405, 20614, 24084]}, "edge": {"target": [], "time": []}}, "mouseover": {"state": {"target": ["12", "13", "19", "21", "20", "22", "20", "17", "19"], "time": [13104, 13135, 13230, 13513, 14667, 15965, 18270, 22492, 25072]}, "edge": {"target": [], "time": []}}, "mouseout": {"state": {"target": ["29", "0", "12", "13", "19", "21", "20", "22", "20", "17"], "time": [2526, 13097, 13130, 13177, 13365, 14606, 15825, 18082, 22021, 24871]}, "edge": {"target": [], "time": []}}}, "displayed_time": "31.43", "trialTime": 32381, "trial_type": "mouselab-mdp", "trial_index": 39, "time_elapsed": 2966460, "internal_node_id": "0.0-6.0-1.0-18.0"}}, {"uniqueid": "w94095996:a62087430", "current_trial": 40, "dateTime": 1693392130417, "trialdata": {"revealed_states": [], "clicked_states": ["5", "6", "10", "7", "11", "9", "27", "28", "29", "33", "32", "31"], "num_clicks_accrued": [0, 0, 0, 0, 0, 0, 0, 0, 0, 0, 0, 0, 0], "stateRewards": ["", -2, 1, 6, -2, -10, -78, -69, 14, -15, 7, -1, 1, -1, -2, 13, 77, 32, 87, 5, -74, 30, -26, 1, 3, 4, 12, 39, 54, -43, 2, 10, 23, 13], "withholdReward": false, "trial_id": "mdp_trial_20", "block": "test", "trialIndex": 25, "score": 48.2, "costs": -25.799999999999994, "simulationMode": [null, null, null, null, null], "rewards": [1, 3, 4, 12, 54], "path": ["0", "0", "23", "24", "25", "26", "28"], "rt": [42603, 259, 297, 297, 592], "actions": ["left", "left", "left", "up", "right"], "actionTimes": [46291, 47102, 47942, 48760, 49891], "queries": {"click": {"state": {"target": ["5", "6", "10", "7", "11", "9", "27", "28", "29", "33", "32", "31"], "time": [5506, 8691, 12265, 16003, 19180, 22139, 25157, 28084, 32427, 35787, 39830, 43437]}, "edge": {"target": [], "time": []}}, "mouseover": {"state": {"target": ["7", "5", "6", "7", "2", "10", "7", "7", "11", "9", "9", "27", "28", "26", "29", "33", "33", "32", "31"], "time": [4719, 5086, 6273, 9535, 11425, 11619, 13114, 13417, 16810, 20125, 20459, 23284, 26232, 28814, 29174, 34681, 35231, 37324, 40909]}, "edge": {"target": [], "time": []}}, "mouseout": {"state": {"target": ["19", "13", "0", "7", "5", "6", "7", "2", "10", "7", "7", "11", "9", "9", "27", "28", "26", "29", "33", "33", "32", "31"], "time": [925, 965, 4659, 4743, 5995, 9348, 11419, 11480, 13104, 13246, 16743, 20089, 20355, 23106, 25986, 28741, 29083, 34643, 34719, 37061, 40602, 44534]}, "edge": {"target": [], "time": []}}}, "displayed_time": "50.42", "trialTime": 51204, "trial_type": "mouselab-mdp", "trial_index": 40, "time_elapsed": 3019194, "internal_node_id": "0.0-6.0-1.0-19.0"}}, {"uniqueid": "w94095996:a62087430", "current_trial": 41, "dateTime": 1693392165824, "trialdata": {"revealed_states": [], "clicked_states": ["22", "21", "20", "17", "16", "18", "7"], "num_clicks_accrued": [0, 0, 0, 0, 0, 0, 0, 0, 0, 0, 0, 0, 0], "stateRewards": ["", 2, 4, -3, 16, -58, 30, -35, 11, -60, 47, 27, -2, -1, -7, -16, 23, -70, 68, -10, -65, -43, -34, -2, 1, 7, 9, -63, 34, -31, -8, -12, -86, 59], "withholdReward": false, "trial_id": "mdp_trial_21", "block": "test", "trialIndex": 26, "score": 26.950000000000003, "costs": -15.05, "simulationMode": [null, null, null, null, null], "rewards": [-2, -1, -7, -16, 68], "path": ["0", "0", "12", "13", "14", "15", "18"], "rt": [24585, 236, 1035, 340, 1561], "actions": ["right", "right", "right", "up", "left"], "actionTimes": [27023, 27788, 29372, 30259, 32363], "queries": {"click": {"state": {"target": ["22", "21", "20", "17", "16", "18", "7"], "time": [3743, 7393, 10771, 14140, 17306, 20398, 23740]}, "edge": {"target": [], "time": []}}, "mouseover": {"state": {"target": ["22", "21", "20", "17", "16", "18", "7", "7"], "time": [3245, 4609, 8244, 11414, 14826, 18451, 22934, 23295]}, "edge": {"target": [], "time": []}}, "mouseout": {"state": {"target": ["0", "22", "21", "20", "17", "16", "18", "7", "7", "7"], "time": [3060, 4279, 7995, 11330, 14758, 18141, 22867, 22978, 23926, 24622]}, "edge": {"target": [], "time": []}}}, "displayed_time": "32.87", "trialTime": 33922, "trial_type": "mouselab-mdp", "trial_index": 41, "time_elapsed": 3054600, "internal_node_id": "0.0-6.0-1.0-20.0"}}, {"uniqueid": "w94095996:a62087430", "current_trial": 42, "dateTime": 1693392186139, "trialdata": {"revealed_states": [], "clicked_states": ["31", "32"], "num_clicks_accrued": [0, 0, 0, 0, 0, 0, 0, 0, 0, 0, 0, 0, 0], "stateRewards": ["", 1, 2, -5, 14, 54, -14, -25, 16, -5, -87, 78, -1, 1, 3, -3, 52, 53, 53, -10, 73, -69, -48, 2, 3, 1, 8, -62, -7, 85, 7, 82, 52, -28], "withholdReward": false, "trial_id": "mdp_trial_22", "block": "test", "trialIndex": 27, "score": 90.7, "costs": -4.3, "simulationMode": [null, null, null, null, null], "rewards": [2, 3, 1, 7, 82], "path": ["0", "0", "23", "24", "25", "30", "31"], "rt": [8085, 1442, 258, 368, 1814], "actions": ["left", "left", "left", "down", "right"], "actionTimes": [10249, 12646, 13446, 14351, 16693], "queries": {"click": {"state": {"target": ["31", "32"], "time": [4026, 7437]}, "edge": {"target": [], "time": []}}, "mouseover": {"state": {"target": ["23", "31", "32"], "time": [2960, 3315, 5119]}, "edge": {"target": [], "time": []}}, "mouseout": {"state": {"target": ["0", "23", "31", "32"], "time": [2935, 2988, 4761, 8262]}, "edge": {"target": [], "time": []}}}, "displayed_time": "17.28", "trialTime": 18859, "trial_type": "mouselab-mdp", "trial_index": 42, "time_elapsed": 3074916, "internal_node_id": "0.0-6.0-1.0-21.0"}}, {"uniqueid": "w94095996:a62087430", "current_trial": 43, "dateTime": 1693392222943, "trialdata": {"revealed_states": [], "clicked_states": ["27", "28", "29", "33", "32", "31", "21"], "num_clicks_accrued": [0, 0, 0, 0, 0, 0, 0, 0, 0, 0, 0, 0, 0], "stateRewards": ["", 2, 3, -3, 4, 72, -28, 34, -12, 57, -64, -15, 2, 1, -4, -15, 2, 49, 31, -1, -42, -58, 31, -2, 1, -2, -13, -75, -19, -22, -6, 61, 10, -56], "withholdReward": false, "trial_id": "mdp_trial_23", "block": "test", "trialIndex": 28, "score": 36.95, "costs": -15.05, "simulationMode": [null, null, null, null, null], "rewards": [-2, 1, -2, -6, 61], "path": ["0", "0", "23", "24", "25", "30", "31"], "rt": [26307, 402, 415, 436, 919], "actions": ["left", "left", "left", "down", "right"], "actionTimes": [28780, 29692, 30645, 31647, 33100], "queries": {"click": {"state": {"target": ["27", "28", "29", "33", "32", "31", "21"], "time": [4193, 7404, 10587, 13650, 16510, 20173, 25071]}, "edge": {"target": [], "time": []}}, "mouseover": {"state": {"target": ["23", "26", "27", "28", "26", "29", "33", "32", "31", "21"], "time": [3398, 3586, 3835, 4981, 8423, 8469, 11523, 14418, 17329, 21061]}, "edge": {"target": [], "time": []}}, "mouseout": {"state": {"target": ["0", "23", "26", "27", "28", "26", "29", "33", "32", "31", "21"], "time": [3388, 3440, 3628, 4728, 8415, 8460, 11287, 14104, 17263, 20670, 25896]}, "edge": {"target": [], "time": []}}}, "displayed_time": "33.61", "trialTime": 34932, "trial_type": "mouselab-mdp", "trial_index": 43, "time_elapsed": 3111719, "internal_node_id": "0.0-6.0-1.0-22.0"}}, {"uniqueid": "w94095996:a62087430", "current_trial": 44, "dateTime": 1693392270749, "trialdata": {"revealed_states": [], "clicked_states": ["22", "21", "20", "17", "16", "18", "28", "27", "29", "33", "32", "31"], "num_clicks_accrued": [0, 0, 0, 0, 0, 0, 0, 0, 0, 0, 0, 0, 0], "stateRewards": ["", 2, -1, -1, -9, -81, -30, 55, -6, 78, 25, 62, 2, 4, -1, 9, -85, 1, -19, 1, -60, 12, -34, 1, 4, -1, -13, -24, -16, -83, -8, 16, 43, 9], "withholdReward": false, "trial_id": "mdp_trial_24", "block": "test", "trialIndex": 29, "score": 13.200000000000006, "costs": -25.799999999999994, "simulationMode": [null, null, null, null, null], "rewards": [1, 4, -1, -8, 43], "path": ["0", "0", "23", "24", "25", "30", "32"], "rt": [38697, 50, 159, 330, 187], "actions": ["left", "left", "left", "down", "down"], "actionTimes": [41584, 42154, 42847, 43686, 44409], "queries": {"click": {"state": {"target": ["22", "21", "20", "17", "16", "18", "28", "27", "29", "33", "32", "31"], "time": [4357, 7429, 10357, 13417, 16497, 19474, 22476, 25887, 29235, 32230, 35070, 38084]}, "edge": {"target": [], "time": []}}, "mouseover": {"state": {"target": ["22", "21", "20", "14", "17", "16", "18", "7", "26", "26", "28", "27", "29", "33", "32", "31"], "time": [3861, 4952, 8190, 11576, 12862, 14560, 17888, 20666, 21387, 21630, 21689, 23506, 26540, 30469, 33363, 36270]}, "edge": {"target": [], "time": []}}, "mouseout": {"state": {"target": ["0", "22", "21", "20", "14", "17", "16", "18", "7", "26", "26", "28", "27", "29", "33", "32", "31"], "time": [3454, 4874, 8179, 10595, 12672, 14521, 17603, 20488, 21319, 21427, 21679, 23181, 26492, 30095, 33036, 35937, 39207]}, "edge": {"target": [], "time": []}}}, "displayed_time": "44.93", "trialTime": 46283, "trial_type": "mouselab-mdp", "trial_index": 44, "time_elapsed": 3159526, "internal_node_id": "0.0-6.0-1.0-23.0"}}, {"uniqueid": "w94095996:a62087430", "current_trial": 45, "dateTime": 1693392301899, "trialdata": {"revealed_states": [], "clicked_states": ["18", "16", "17", "20", "21"], "num_clicks_accrued": [0, 0, 0, 0, 0, 0, 0, 0, 0, 0, 0, 0, 0], "stateRewards": ["", 2, 4, 7, -6, -76, -81, 2, 5, -66, -3, 36, -2, -4, 6, -2, -69, 4, -49, -6, 67, 38, -67, 2, 1, 1, 6, -68, -21, 52, -16, -16, 6, -70], "withholdReward": false, "trial_id": "mdp_trial_25", "block": "test", "trialIndex": 30, "score": 50.25, "costs": -10.75, "simulationMode": [null, null, null, null, null], "rewards": [-2, -4, 6, -6, 67], "path": ["0", "0", "12", "13", "14", "19", "20"], "rt": [17294, 483, 618, 450, 472], "actions": ["right", "right", "right", "down", "right"], "actionTimes": [22741, 23736, 24890, 25870, 26877], "queries": {"click": {"state": {"target": ["18", "16", "17", "20", "21"], "time": [7353, 10651, 13624, 16636, 19713]}, "edge": {"target": [], "time": []}}, "mouseover": {"state": {"target": ["15", "18", "16", "17", "20", "21"], "time": [6691, 6974, 8245, 11896, 15880, 17639]}, "edge": {"target": [], "time": []}}, "mouseout": {"state": {"target": ["0", "15", "18", "16", "17", "20", "21"], "time": [6391, 6725, 7814, 11513, 15719, 17418, 20796]}, "edge": {"target": [], "time": []}}}, "displayed_time": "27.39", "trialTime": 28734, "trial_type": "mouselab-mdp", "trial_index": 45, "time_elapsed": 3190675, "internal_node_id": "0.0-6.0-1.0-24.0"}}, {"uniqueid": "w94095996:a62087430", "current_trial": 46, "dateTime": 1693392329341, "trialdata": {"revealed_states": [], "clicked_states": ["31", "32", "33", "29", "27"], "num_clicks_accrued": [0, 0, 0, 0, 0, 0, 0, 0, 0, 0, 0, 0, 0], "stateRewards": ["", 1, 2, 2, -15, -84, 28, -26, 13, 31, 86, 30, -2, 1, -1, -8, 66, -40, -1, -10, -32, 57, -17, 1, 2, -2, 9, -23, 77, 85, 12, -32, -62, -35], "withholdReward": false, "trial_id": "mdp_trial_26", "block": "test", "trialIndex": 31, "score": 84.25, "costs": -10.75, "simulationMode": [null, null, null, null, null], "rewards": [1, 2, -2, 9, 85], "path": ["0", "0", "23", "24", "25", "26", "29"], "rt": [17347, 233, 747, 384, 945], "actions": ["left", "left", "left", "up", "left"], "actionTimes": [19879, 20639, 21931, 22842, 24329], "queries": {"click": {"state": {"target": ["31", "32", "33", "29", "27"], "time": [4594, 8015, 11027, 13893, 16764]}, "edge": {"target": [], "time": []}}, "mouseover": {"state": {"target": ["31", "32", "33", "29", "27"], "time": [4193, 5457, 8942, 12038, 14832]}, "edge": {"target": [], "time": []}}, "mouseout": {"state": {"target": ["0", "31", "31", "32", "33", "29", "27"], "time": [3782, 4791, 5094, 8603, 11963, 14589, 18167]}, "edge": {"target": [], "time": []}}}, "displayed_time": "24.85", "trialTime": 26029, "trial_type": "mouselab-mdp", "trial_index": 46, "time_elapsed": 3218117, "internal_node_id": "0.0-6.0-1.0-25.0"}}, {"uniqueid": "w94095996:a62087430", "current_trial": 47, "dateTime": 1693392362267, "trialdata": {"revealed_states": [], "clicked_states": ["22", "21", "20", "17", "16", "18"], "num_clicks_accrued": [0, 0, 0, 0, 0, 0, 0, 0, 0, 0, 0, 0, 0], "stateRewards": ["", -1, -3, -5, -14, -13, -47, 79, 8, -60, -64, 41, -1, 2, 3, 13, -46, 61, -79, -11, -64, -65, 23, 1, -2, 6, -14, 46, 32, 21, 7, 75, -66, 15], "withholdReward": false, "trial_id": "mdp_trial_27", "block": "test", "trialIndex": 32, "score": 65.1, "costs": -12.9, "simulationMode": [null, null, null, null, null], "rewards": [-1, 2, 3, 13, 61], "path": ["0", "0", "12", "13", "14", "15", "17"], "rt": [22479, 271, 413, 850, 543], "actions": ["right", "right", "right", "up", "right"], "actionTimes": [25472, 26268, 27203, 28589, 29663], "queries": {"click": {"state": {"target": ["22", "21", "20", "17", "16", "18"], "time": [4375, 7935, 12389, 15393, 18325, 22224]}, "edge": {"target": [], "time": []}}, "mouseover": {"state": {"target": ["22", "21", "20", "20", "17", "16", "18"], "time": [3909, 5019, 8692, 11990, 13418, 16187, 21308]}, "edge": {"target": [], "time": []}}, "mouseout": {"state": {"target": ["0", "22", "21", "20", "20", "17", "16"], "time": [3713, 4860, 8527, 11341, 13028, 16076, 19631]}, "edge": {"target": [], "time": []}}}, "displayed_time": "30.19", "trialTime": 31039, "trial_type": "mouselab-mdp", "trial_index": 47, "time_elapsed": 3251043, "internal_node_id": "0.0-6.0-1.0-26.0"}}, {"uniqueid": "w94095996:a62087430", "current_trial": 48, "dateTime": 1693392389765, "trialdata": {"revealed_states": [], "clicked_states": ["31", "32", "33"], "num_clicks_accrued": [0, 0, 0, 0, 0, 0, 0, 0, 0, 0, 0, 0, 0], "stateRewards": ["", 1, 1, -3, 7, 49, 78, 26, -5, 26, 48, -43, -1, -3, 2, -5, 4, -1, -60, 10, -35, 51, 81, -2, 1, -7, -5, -39, -86, -54, 4, -3, 74, 77], "withholdReward": false, "trial_id": "mdp_trial_28", "block": "test", "trialIndex": 33, "score": 66.55, "costs": -6.449999999999999, "simulationMode": [null, null, null, null, null, null], "rewards": [-2, 1, -7, 4, 77], "path": ["0", "0", "23", "24", "25", "30", "33"], "rt": [9839, 6834, 310, 241, 319, 722], "actions": ["left", "left", "left", "left", "down", "left"], "actionTimes": [13257, 20104, 20948, 21724, 22584, 23825], "queries": {"click": {"state": {"target": ["31", "32", "33"], "time": [5074, 8298, 11208]}, "edge": {"target": [], "time": []}}, "mouseover": {"state": {"target": ["23", "31", "32", "33"], "time": [4304, 4667, 6033, 9423]}, "edge": {"target": [], "time": []}}, "mouseout": {"state": {"target": ["18", "12", "23", "31", "32", "33"], "time": [1252, 1434, 4419, 5716, 9103, 12398]}, "edge": {"target": [], "time": []}}}, "displayed_time": "24.37", "trialTime": 25866, "trial_type": "mouselab-mdp", "trial_index": 48, "time_elapsed": 3278542, "internal_node_id": "0.0-6.0-1.0-27.0"}}, {"uniqueid": "w94095996:a62087430", "current_trial": 49, "dateTime": 1693392425305, "trialdata": {"revealed_states": [], "clicked_states": ["31", "32", "33", "29", "27", "28", "22"], "num_clicks_accrued": [0, 0, 0, 0, 0, 0, 0, 0, 0, 0, 0, 0, 0], "stateRewards": ["", 1, 1, 7, -11, 80, -20, -53, -14, 3, 31, 27, 2, -1, -8, -10, 33, 41, 86, 9, 78, -37, -13, -1, -2, -6, -8, -80, 75, 4, -16, -49, -74, 24], "withholdReward": false, "trial_id": "mdp_trial_29", "block": "test", "trialIndex": 34, "score": 42.95, "costs": -15.05, "simulationMode": [null, null, null, null, null, null], "rewards": [-1, -2, -6, -8, 75], "path": ["0", "0", "23", "24", "25", "26", "28"], "rt": [21807, 4385, 165, 149, 624, 209], "actions": ["left", "left", "left", "left", "up", "right"], "actionTimes": [24574, 28971, 29675, 30355, 31527, 32265], "queries": {"click": {"state": {"target": ["31", "32", "33", "29", "27", "28", "22"], "time": [4411, 7508, 10925, 13753, 16923, 19804, 22830]}, "edge": {"target": [], "time": []}}, "mouseover": {"state": {"target": ["23", "24", "31", "32", "33", "29", "27", "28", "1", "22"], "time": [3457, 3757, 4024, 5027, 8368, 11525, 14688, 18085, 20909, 21326]}, "edge": {"target": [], "time": []}}, "mouseout": {"state": {"target": ["23", "24", "31", "32", "33", "29", "27", "28", "1", "22"], "time": [3706, 3791, 4919, 8272, 11445, 14613, 17749, 20871, 20950, 23679]}, "edge": {"target": [], "time": []}}}, "displayed_time": "32.84", "trialTime": 33695, "trial_type": "mouselab-mdp", "trial_index": 49, "time_elapsed": 3314081, "internal_node_id": "0.0-6.0-1.0-28.0"}}, {"uniqueid": "w94095996:a62087430", "current_trial": 50, "dateTime": 1693392446608, "trialdata": {"revealed_states": [], "clicked_states": ["22", "21"], "num_clicks_accrued": [0, 0, 0, 0, 0, 0, 0, 0, 0, 0, 0, 0, 0], "stateRewards": ["", 2, -4, 7, 3, 23, -42, 4, 7, -81, -33, 7, -2, -4, 5, -1, 50, -57, -14, -13, -14, 44, 55, -2, -2, 5, -2, 33, 1, 57, -13, -7, 58, 87], "withholdReward": false, "trial_id": "mdp_trial_30", "block": "test", "trialIndex": 35, "score": 36.7, "costs": -4.3, "simulationMode": [null, null, null, null, null], "rewards": [-2, -4, 5, -13, 55], "path": ["0", "0", "12", "13", "14", "19", "22"], "rt": [8588, 9, 616, 695, 379], "actions": ["right", "right", "right", "down", "left"], "actionTimes": [11400, 11946, 13122, 14405, 15347], "queries": {"click": {"state": {"target": ["22", "21"], "time": [4815, 7817]}, "edge": {"target": [], "time": []}}, "mouseover": {"state": {"target": ["22", "21", "20"], "time": [4161, 5855, 8455]}, "edge": {"target": [], "time": []}}, "mouseout": {"state": {"target": ["0", "0", "22", "21", "20"], "time": [1158, 4061, 5464, 8008, 8875]}, "edge": {"target": [], "time": []}}}, "displayed_time": "16.81", "trialTime": 19337, "trial_type": "mouselab-mdp", "trial_index": 50, "time_elapsed": 3335384, "internal_node_id": "0.0-6.0-1.0-29.0"}}, {"uniqueid": "w94095996:a62087430", "current_trial": 51, "dateTime": 1693392477610, "trialdata": {"revealed_states": [], "clicked_states": ["31", "32"], "num_clicks_accrued": [0, 0, 0, 0, 0, 0, 0, 0, 0, 0, 0, 0, 0], "stateRewards": ["", 2, 3, -3, 12, -43, 81, -82, -15, 58, -7, -75, -1, -1, 3, -5, 50, -25, -8, 4, 66, 65, -66, 2, -4, 2, -1, -10, 10, 37, 11, 88, -37, 8], "withholdReward": false, "trial_id": "mdp_trial_31", "block": "test", "trialIndex": 36, "score": 94.7, "costs": -4.3, "simulationMode": [null, null, null, null, null], "rewards": [2, -4, 2, 11, 88], "path": ["0", "0", "23", "24", "25", "30", "31"], "rt": [8046, 547, 240, 474, 236], "actions": ["left", "left", "left", "down", "right"], "actionTimes": [21851, 22929, 23699, 24704, 25473], "queries": {"click": {"state": {"target": ["31", "32"], "time": [15573, 18516]}, "edge": {"target": [], "time": []}}, "mouseover": {"state": {"target": ["23", "31", "32"], "time": [14847, 15201, 16431]}, "edge": {"target": [], "time": []}}, "mouseout": {"state": {"target": ["19", "0", "0", "0", "23", "31", "32"], "time": [4916, 5014, 5550, 14766, 14904, 16220, 19500]}, "edge": {"target": [], "time": []}}}, "displayed_time": "27.80", "trialTime": 29297, "trial_type": "mouselab-mdp", "trial_index": 51, "time_elapsed": 3366386, "internal_node_id": "0.0-6.0-1.0-30.0"}}, {"uniqueid": "w94095996:a62087430", "current_trial": 52, "dateTime": 1693392506604, "trialdata": {"revealed_states": [], "clicked_states": ["22", "21", "20", "17", "16"], "num_clicks_accrued": [0, 0, 0, 0, 0, 0, 0, 0, 0, 0, 0, 0, 0], "stateRewards": ["", -2, 1, -7, 9, 8, 25, 61, -7, -17, 69, -81, 1, 4, -4, -11, 16, 67, 44, 3, 6, -45, -54, -2, 3, 6, -11, -15, 32, -47, 3, -39, -6, -88], "withholdReward": false, "trial_id": "mdp_trial_32", "block": "test", "trialIndex": 37, "score": 46.25, "costs": -10.75, "simulationMode": [null, null, null, null, null], "rewards": [1, 4, -4, -11, 67], "path": ["0", "0", "12", "13", "14", "15", "17"], "rt": [17606, 325, 310, 697, 432], "actions": ["right", "right", "right", "up", "right"], "actionTimes": [21247, 22092, 22939, 24155, 25175], "queries": {"click": {"state": {"target": ["22", "21", "20", "17", "16"], "time": [5269, 8238, 11328, 14293, 17249]}, "edge": {"target": [], "time": []}}, "mouseover": {"state": {"target": ["22", "22", "21", "20", "17", "16", "16"], "time": [4532, 4765, 6046, 9312, 12736, 15134, 15418]}, "edge": {"target": [], "time": []}}, "mouseout": {"state": {"target": ["0", "22", "22", "21", "20", "17", "16", "16"], "time": [4435, 4614, 5784, 9001, 12299, 15094, 15194, 18184]}, "edge": {"target": [], "time": []}}}, "displayed_time": "25.70", "trialTime": 27391, "trial_type": "mouselab-mdp", "trial_index": 52, "time_elapsed": 3395380, "internal_node_id": "0.0-6.0-1.0-31.0"}}, {"uniqueid": "w94095996:a62087430", "current_trial": 53, "dateTime": 1693392534441, "trialdata": {"revealed_states": [], "clicked_states": ["31", "32", "33", "29"], "num_clicks_accrued": [0, 0, 0, 0, 0, 0, 0, 0, 0, 0, 0, 0, 0], "stateRewards": ["", -2, 2, 3, -7, -31, -33, 29, -8, -57, 50, -83, -1, -1, 5, 13, -23, -62, 25, 5, -66, -85, 14, 1, -2, -1, 16, 71, 33, -19, -14, 5, -43, 79], "withholdReward": false, "trial_id": "mdp_trial_33", "block": "test", "trialIndex": 38, "score": 54.4, "costs": -8.6, "simulationMode": [null, null, null, null, null, null], "rewards": [1, -2, -1, -14, 79], "path": ["0", "0", "23", "24", "25", "30", "33"], "rt": [12900, 2724, 702, 460, 420, 635], "actions": ["left", "left", "left", "left", "down", "left"], "actionTimes": [16789, 19523, 20769, 21746, 22706, 23873], "queries": {"click": {"state": {"target": ["31", "32", "33", "29"], "time": [5600, 8483, 11331, 14289]}, "edge": {"target": [], "time": []}}, "mouseover": {"state": {"target": ["23", "31", "32", "33", "29"], "time": [4794, 5143, 6478, 9238, 12332]}, "edge": {"target": [], "time": []}}, "mouseout": {"state": {"target": ["0", "0", "23", "31", "32", "33", "29"], "time": [1760, 4726, 4841, 6205, 9195, 12221, 15628]}, "edge": {"target": [], "time": []}}}, "displayed_time": "24.42", "trialTime": 25592, "trial_type": "mouselab-mdp", "trial_index": 53, "time_elapsed": 3423218, "internal_node_id": "0.0-6.0-1.0-32.0"}}, {"uniqueid": "w94095996:a62087430", "current_trial": 54, "dateTime": 1693392558983, "trialdata": {"revealed_states": [], "clicked_states": ["32", "33", "31"], "num_clicks_accrued": [0, 0, 0, 0, 0, 0, 0, 0, 0, 0, 0, 0, 0], "stateRewards": ["", 1, -1, 1, -14, -10, 67, -28, -11, 72, 40, -65, -1, 1, 1, -2, 8, -55, 34, -10, 61, 33, -15, 2, -4, 7, 4, -75, 63, -21, -16, 61, 19, 21], "withholdReward": false, "trial_id": "mdp_trial_34", "block": "test", "trialIndex": 39, "score": 43.55, "costs": -6.449999999999999, "simulationMode": [null, null, null, null, null], "rewards": [2, -4, 7, -16, 61], "path": ["0", "0", "23", "24", "25", "30", "31"], "rt": [14239, 281, 273, 308, 164], "actions": ["left", "left", "left", "down", "right"], "actionTimes": [18013, 18843, 19632, 20528, 21235], "queries": {"click": {"state": {"target": ["32", "33", "31"], "time": [5912, 8998, 12924]}, "edge": {"target": [], "time": []}}, "mouseover": {"state": {"target": ["23", "31", "31", "32", "33", "30", "31"], "time": [4563, 4624, 4950, 5354, 6815, 9828, 10035]}, "edge": {"target": [], "time": []}}, "mouseout": {"state": {"target": ["23", "0", "23", "31", "31", "32", "33", "30", "31"], "time": [1801, 4535, 4597, 4657, 5168, 6481, 9819, 9866, 16798]}, "edge": {"target": [], "time": []}}}, "displayed_time": "21.77", "trialTime": 22925, "trial_type": "mouselab-mdp", "trial_index": 54, "time_elapsed": 3447759, "internal_node_id": "0.0-6.0-1.0-33.0"}}, {"uniqueid": "w94095996:a62087430", "current_trial": 55, "dateTime": 1693392589681, "trialdata": {"revealed_states": [], "clicked_states": ["22", "21", "20", "17", "16", "18"], "num_clicks_accrued": [0, 0, 0, 0, 0, 0, 0, 0, 0, 0, 0, 0, 0], "stateRewards": ["", 1, 3, 3, -10, 52, 68, 59, 12, 7, 49, 21, -2, -3, -4, -2, -2, 63, 63, -4, 44, 43, -76, -2, -3, -6, 13, 48, 36, 12, -5, -36, -33, -11], "withholdReward": false, "trial_id": "mdp_trial_35", "block": "test", "trialIndex": 40, "score": 39.1, "costs": -12.9, "simulationMode": [null, null, null, null, null], "rewards": [-2, -3, -4, -2, 63], "path": ["0", "0", "12", "13", "14", "15", "18"], "rt": [20782, 195, 237, 405, 105], "actions": ["right", "right", "right", "up", "left"], "actionTimes": [24154, 24893, 25659, 26592, 27229], "queries": {"click": {"state": {"target": ["22", "21", "20", "17", "16", "18"], "time": [5210, 8238, 11061, 13925, 17182, 20707]}, "edge": {"target": [], "time": []}}, "mouseover": {"state": {"target": ["12", "22", "21", "20", "17", "16", "18"], "time": [4234, 4442, 5968, 9102, 13448, 15657, 19840]}, "edge": {"target": [], "time": []}}, "mouseout": {"state": {"target": ["0", "0", "12", "22", "21", "20", "17", "16", "16", "18"], "time": [1056, 4206, 4270, 5712, 9029, 12245, 15276, 17410, 19614, 21568]}, "edge": {"target": [], "time": []}}}, "displayed_time": "27.76", "trialTime": 29031, "trial_type": "mouselab-mdp", "trial_index": 55, "time_elapsed": 3478457, "internal_node_id": "0.0-6.0-1.0-34.0"}}, {"uniqueid": "w94095996:a62087430", "current_trial": 56, "dateTime": 1693392663943, "trialdata": {"revealed_states": [], "clicked_states": ["22", "21", "20", "17", "16", "18", "31", "32", "33", "28", "27", "29", "11", "9", "5", "6", "7", "10"], "num_clicks_accrued": [0, 0, 0, 0, 0, 0, 0, 0, 0, 0, 0, 0, 0], "stateRewards": ["", -1, -3, -6, -2, -7, 80, -45, -3, -38, -72, 76, 2, 1, 7, 4, -62, 14, -74, 14, -87, -21, -88, -2, 1, -7, -10, 66, 56, -76, 10, -29, -72, -70], "withholdReward": false, "trial_id": "mdp_trial_36", "block": "test", "trialIndex": 41, "score": 29.30000000000001, "costs": -38.69999999999999, "simulationMode": [null, null, null, null, null], "rewards": [-1, -3, -6, -2, 80], "path": ["0", "0", "1", "2", "3", "4", "6"], "rt": [63573, 323, 155, 760, 216], "actions": ["up", "up", "up", "right", "right"], "actionTimes": [66849, 67693, 68385, 69683, 70418], "queries": {"click": {"state": {"target": ["22", "21", "20", "17", "16", "18", "31", "32", "33", "28", "27", "29", "11", "9", "5", "6", "7", "10"], "time": [5639, 8595, 11872, 14799, 17660, 20508, 23445, 26480, 29394, 32227, 35098, 38583, 42675, 46653, 50723, 54148, 57810, 62322]}, "edge": {"target": [], "time": []}}, "mouseover": {"state": {"target": ["18", "15", "12", "0", "12", "22", "21", "20", "17", "16", "18", "7", "1", "31", "30", "32", "33", "24", "28", "27", "29", "8", "11", "9", "5", "6", "7", "2", "10", "10"], "time": [4210, 4244, 4462, 4520, 4710, 5211, 6401, 9509, 12664, 15746, 18854, 21764, 21980, 22480, 24241, 24528, 27587, 30247, 30589, 33314, 38006, 42076, 42310, 43739, 50310, 52921, 55405, 61245, 61507, 61823]}, "edge": {"target": [], "time": []}}, "mouseout": {"state": {"target": ["13", "0", "18", "15", "12", "0", "12", "22", "21", "20", "17", "16", "18", "18", "7", "1", "31", "30", "32", "33", "24", "28", "27", "29", "8", "11", "9", "5", "6", "7", "2", "10", "10"], "time": [1704, 1740, 4237, 4412, 4491, 4678, 4762, 6193, 9343, 12556, 15489, 18646, 20522, 21591, 21963, 22023, 24191, 24285, 27297, 30204, 30289, 33271, 37709, 41760, 42108, 43407, 49962, 52398, 55130, 61216, 61477, 61537, 63107]}, "edge": {"target": [], "time": []}}}, "displayed_time": "70.97", "trialTime": 72248, "trial_type": "mouselab-mdp", "trial_index": 56, "time_elapsed": 3552718, "internal_node_id": "0.0-6.0-1.0-35.0"}}, {"uniqueid": "w94095996:a62087430", "current_trial": 57, "dateTime": 1693392684564, "trialdata": {"revealed_states": [], "clicked_states": ["31", "32"], "num_clicks_accrued": [0, 0, 0, 0, 0, 0, 0, 0, 0, 0, 0, 0, 0], "stateRewards": ["", -2, -3, 1, -14, 48, -49, 67, -1, -35, -48, 3, -2, 1, -4, -5, 86, -84, 39, 1, 48, 41, -42, -1, -4, 2, -7, 18, -86, 17, 7, -9, 57, -69], "withholdReward": false, "trial_id": "mdp_trial_37", "block": "test", "trialIndex": 42, "score": 56.7, "costs": -4.3, "simulationMode": [null, null, null, null, null], "rewards": [-1, -4, 2, 7, 57], "path": ["0", "0", "23", "24", "25", "30", "32"], "rt": [9144, 229, 108, 125, 121], "actions": ["left", "left", "left", "down", "down"], "actionTimes": [11640, 12399, 13041, 13689, 14331], "queries": {"click": {"state": {"target": ["31", "32"], "time": [4018, 7156]}, "edge": {"target": [], "time": []}}, "mouseover": {"state": {"target": ["31", "32", "33", "33"], "time": [3668, 4897, 8080, 8534]}, "edge": {"target": [], "time": []}}, "mouseout": {"state": {"target": ["0", "31", "32", "33", "33"], "time": [3234, 4622, 7721, 8120, 10850]}, "edge": {"target": [], "time": []}}}, "displayed_time": "16.50", "trialTime": 18079, "trial_type": "mouselab-mdp", "trial_index": 57, "time_elapsed": 3573341, "internal_node_id": "0.0-6.0-1.0-36.0"}}, {"uniqueid": "w94095996:a62087430", "current_trial": 58, "dateTime": 1693392704785, "trialdata": {"revealed_states": [], "clicked_states": ["31", "32"], "num_clicks_accrued": [0, 0, 0, 0, 0, 0, 0, 0, 0, 0, 0, 0, 0], "stateRewards": ["", -1, -3, -3, 1, -38, 2, -53, -2, -1, -81, 70, -1, 1, -5, -9, 46, 15, 35, -1, -22, 38, 59, -2, 4, -8, 13, 1, -83, -43, 4, 76, 13, 48], "withholdReward": false, "trial_id": "mdp_trial_38", "block": "test", "trialIndex": 43, "score": 69.7, "costs": -4.3, "simulationMode": [null, null, null, null, null], "rewards": [-2, 4, -8, 4, 76], "path": ["0", "0", "23", "24", "25", "30", "31"], "rt": [7893, 262, 217, 373, 261], "actions": ["left", "left", "left", "down", "right"], "actionTimes": [10601, 11414, 12157, 13060, 13853], "queries": {"click": {"state": {"target": ["31", "32"], "time": [4061, 7081]}, "edge": {"target": [], "time": []}}, "mouseover": {"state": {"target": ["23", "31", "32"], "time": [3260, 3477, 4921]}, "edge": {"target": [], "time": []}}, "mouseout": {"state": {"target": ["32", "0", "23", "31", "32"], "time": [676, 1593, 3383, 4612, 7954]}, "edge": {"target": [], "time": []}}}, "displayed_time": "16.71", "trialTime": 18261, "trial_type": "mouselab-mdp", "trial_index": 58, "time_elapsed": 3593561, "internal_node_id": "0.0-6.0-1.0-37.0"}}, {"uniqueid": "w94095996:a62087430", "current_trial": 59, "dateTime": 1693392754015, "trialdata": {"revealed_states": [], "clicked_states": ["31", "28", "27", "29", "33", "32", "21", "20", "22", "17", "16", "18"], "num_clicks_accrued": [0, 0, 0, 0, 0, 0, 0, 0, 0, 0, 0, 0, 0], "stateRewards": ["", -1, -3, -7, -7, -76, 30, -49, 11, -70, 56, 2, 1, 4, -3, -14, -59, -83, -25, -9, -21, -67, -73, -2, 4, 4, -9, -11, -32, 60, 9, -87, 22, -64], "withholdReward": false, "trial_id": "mdp_trial_39", "block": "test", "trialIndex": 44, "score": 31.200000000000006, "costs": -25.799999999999994, "simulationMode": [null, null, null, null, null], "rewards": [-2, 4, 4, -9, 60], "path": ["0", "0", "23", "24", "25", "26", "29"], "rt": [39740, 400, 229, 516, 134], "actions": ["left", "left", "left", "up", "left"], "actionTimes": [42011, 42978, 43752, 44802, 45466], "queries": {"click": {"state": {"target": ["31", "28", "27", "29", "33", "32", "21", "20", "22", "17", "16", "18"], "time": [3907, 6923, 9740, 12661, 15494, 18672, 21797, 24851, 27803, 32821, 35649, 38538]}, "edge": {"target": [], "time": []}}, "mouseover": {"state": {"target": ["23", "31", "30", "28", "28", "27", "27", "29", "33", "32", "21", "20", "19", "22", "22", "14", "17", "16", "18"], "time": [3276, 3370, 4389, 4516, 4812, 7657, 8133, 10736, 13760, 16743, 20139, 22800, 26217, 26388, 26670, 31757, 32256, 34138, 36696]}, "edge": {"target": [], "time": []}}, "mouseout": {"state": {"target": ["0", "23", "31", "30", "28", "28", "27", "27", "29", "33", "32", "21", "20", "19", "22", "22", "14", "17", "16", "18"], "time": [3270, 3308, 4135, 4480, 4553, 7649, 8000, 10584, 13388, 16406, 19492, 22042, 26204, 26377, 26456, 31739, 31814, 33851, 36633, 40308]}, "edge": {"target": [], "time": []}}}, "displayed_time": "45.98", "trialTime": 47269, "trial_type": "mouselab-mdp", "trial_index": 59, "time_elapsed": 3642791, "internal_node_id": "0.0-6.0-1.0-38.0"}}, {"uniqueid": "w94095996:a62087430", "current_trial": 60, "dateTime": 1693392788026, "trialdata": {"revealed_states": [], "clicked_states": ["9", "11", "10", "7", "6", "5"], "num_clicks_accrued": [0, 0, 0, 0, 0, 0, 0, 0, 0, 0, 0, 0, 0], "stateRewards": ["", 2, -3, -8, 14, -7, -51, 73, 2, 36, 36, -43, -1, 3, -4, 1, 6, 87, -65, 15, 61, -42, -83, -1, 3, -2, -7, 30, -48, 35, 13, 26, 60, 78], "withholdReward": false, "trial_id": "mdp_trial_40", "block": "test", "trialIndex": 45, "score": 65.1, "costs": -12.9, "simulationMode": [null, null, null, null, null], "rewards": [2, -3, -8, 14, 73], "path": ["0", "0", "1", "2", "3", "4", "7"], "rt": [23532, 231, 97, 86, 194], "actions": ["up", "up", "up", "right", "down"], "actionTimes": [25886, 26648, 27286, 27904, 28634], "queries": {"click": {"state": {"target": ["9", "11", "10", "7", "6", "5"], "time": [4171, 7297, 10782, 13852, 16705, 19591]}, "edge": {"target": [], "time": []}}, "mouseover": {"state": {"target": ["1", "2", "3", "8", "9", "11", "10", "7", "6", "5", "5", "4", "7"], "time": [2834, 2869, 2906, 3134, 3773, 4877, 8499, 11500, 15506, 18210, 18621, 21138, 21600]}, "edge": {"target": [], "time": []}}, "mouseout": {"state": {"target": ["0", "1", "2", "3", "8", "9", "9", "11", "10", "7", "6", "5", "5", "4"], "time": [2797, 2861, 2899, 3106, 3163, 4387, 4805, 8118, 11284, 15243, 18202, 18252, 21052, 21212]}, "edge": {"target": [], "time": []}}}, "displayed_time": "29.18", "trialTime": 32135, "trial_type": "mouselab-mdp", "trial_index": 60, "time_elapsed": 3676802, "internal_node_id": "0.0-6.0-1.0-39.0"}}, {"uniqueid": "w94095996:a62087430", "current_trial": 61, "dateTime": 1693392879899, "trialdata": {"rt": 91469, "response": {"Q0": "$-2 to $2", "Q1": "$-4 to $4", "Q2": "$-88 to $88", "Q3": "The cost for clicking on nodes varied between nodes.", "Q4": "Very motivated"}, "question_order": [0, 1, 2, 3, 4], "trial_id": "final_quiz_control", "trial_type": "survey-multi-choice", "trial_index": 61, "time_elapsed": 3768675, "internal_node_id": "0.0-6.0-2.0"}}, {"uniqueid": "w94095996:a62087430", "current_trial": 62, "dateTime": 1693393099947, "trialdata": {"rt": 218766, "response": {"Q0": "At first I started by clicking the first node until the last node to get the good part to take but I noticed that is time consuming I changed the strategy.", "Q1": "Yes , after I have found out that the last nodes have got high numbers. I just opened or clicked the last nodes only then decide which path I'm going to take.", "Q2": "It was not difficult since the start of the web of cash game the aim was to get the proper strategy to master it and improve my performance."}, "trial_id": "self_report_control", "trial_type": "survey-text", "trial_index": 62, "time_elapsed": 3988724, "internal_node_id": "0.0-6.0-3.0"}}, {"uniqueid": "w94095996:a62087430", "current_trial": 63, "dateTime": 1693393168587, "trialdata": {"rt": 68630, "response": {"Q0": "Strongly disagree", "Q1": "Strongly disagree", "Q2": "Strongly disagree", "Q3": "Strongly disagree", "Q4": "Strongly agree", "Q5": "Strongly agree", "Q6": "Strongly disagree"}, "question_order": [0, 1, 2, 3, 4, 5, 6], "trial_id": "self_report_2", "trial_type": "survey-multi-choice", "trial_index": 63, "time_elapsed": 4057363, "internal_node_id": "0.0-6.0-4.0"}}, {"uniqueid": "w94095996:a62087430", "current_trial": 64, "dateTime": 1693393211836, "trialdata": {"rt": 43229, "response": {"gender": "male", "age": "20", "colorblind": "0", "effort": "0"}, "trial_type": "survey-html-form", "trial_index": 64, "time_elapsed": 4100613, "internal_node_id": "0.0-6.0-5.0"}}, {"uniqueid": "w94095996:a62087430", "current_trial": 65, "dateTime": 1693393246252, "trialdata": {"rt": 34360, "response": {"Q0": "", "Q1": "No"