{"condition": 0, "counterbalance": 0, "assignmentId": "a93027990", "workerId": "w63533218", "hitId": "h96125721", "currenttrial": 55, "bonus": 0, "data": [{"uniqueid": "w63533218:a93027990", "current_trial": 0, "dateTime": 1693564624961, "trialdata": {"success": true, "trial_type": "fullscreen", "trial_index": 0, "time_elapsed": 2807, "internal_node_id": "0.0-0.0"}}, {"uniqueid": "w63533218:a93027990", "current_trial": 1, "dateTime": 1693564642338, "trialdata": {"view_history": [{"page_index": 0, "viewing_time": 17369}], "rt": 17370, "trial_id": "exp_instructions_control", "trial_type": "instructions", "trial_index": 1, "time_elapsed": 20185, "internal_node_id": "0.0-1.0"}}, {"uniqueid": "w63533218:a93027990", "current_trial": 2, "dateTime": 1693564996103, "trialdata": {"view_history": [{"page_index": 0, "viewing_time": 148686}, {"page_index": 1, "viewing_time": 116809}, {"page_index": 2, "viewing_time": 23266}, {"page_index": 3, "viewing_time": 65000}], "rt": 353761, "trial_id": "mouselab_instructions_1_control", "trial_type": "instructions", "trial_index": 2, "time_elapsed": 373950, "internal_node_id": "0.0-2.0-1.0"}}, {"uniqueid": "w63533218:a93027990", "current_trial": 3, "dateTime": 1693565021044, "trialdata": {"revealed_states": [], "clicked_states": ["1"], "num_clicks_accrued": [0, 0, 0, 0, 0, 0, 0, 0, 0, 0, 0, 0, 0], "stateRewards": ["", 10, 10, 10, -10, 10, 10, 10, 10, -10, 10, 10, 10, -10, -10, 10, 10, 10, -10, -10, -10, -10, 10, -10, -10, 10, 10, 10, 10, 10, 10, 10, 10, -10], "withholdReward": false, "trial_id": "practice_1", "block": "test", "trialIndex": 0, "score": 13, "costs": -0.5, "simulationMode": [null, null, null, null, null], "rewards": [-10, -10, 10, 10, 10], "path": ["0", "0", "23", "24", "25", "26", "27"], "rt": [3590, 2572, 1107, 939, 2484], "actions": ["left", "left", "left", "up", "up"], "actionTimes": [8057, 11153, 12771, 14249, 17258], "queries": {"click": {"state": {"target": ["1"], "time": [6077]}, "edge": {"target": [], "time": []}}, "mouseover": {"state": {"target": ["1"], "time": [5759]}, "edge": {"target": [], "time": []}}, "mouseout": {"state": {"target": ["12", "1", "15"], "time": [2172, 7211, 20752]}, "edge": {"target": [], "time": []}}}, "displayed_time": "17.78", "trialTime": 24135, "trial_type": "mouselab-mdp", "trial_index": 3, "time_elapsed": 398889, "internal_node_id": "0.0-2.0-2.0-0.0"}}, {"uniqueid": "w63533218:a93027990", "current_trial": 4, "dateTime": 1693565043872, "trialdata": {"revealed_states": [], "clicked_states": ["12"], "num_clicks_accrued": [0, 0, 0, 0, 0, 0, 0, 0, 0, 0, 0, 0, 0], "stateRewards": ["", 10, 10, -10, -10, -10, -10, -10, -10, 10, -10, -10, 10, -10, -10, 10, 10, -10, 10, 10, -10, -10, -10, 10, 10, -10, 10, 10, -10, 10, 10, 10, -10, -10], "withholdReward": false, "trial_id": "practice_2", "block": "test", "trialIndex": 1, "score": 13, "costs": -0.5, "simulationMode": [null, null, null, null, null], "rewards": [10, -10, -10, 10, 10], "path": ["0", "0", "12", "13", "14", "15", "16"], "rt": [3246, 708, 608, 977, 152], "actions": ["right", "right", "right", "up", "up"], "actionTimes": [5874, 7102, 8235, 9737, 10411], "queries": {"click": {"state": {"target": ["12"], "time": [3517]}, "edge": {"target": [], "time": []}}, "mouseover": {"state": {"target": ["12", "0", "23"], "time": [3194, 4573, 4639]}, "edge": {"target": [], "time": []}}, "mouseout": {"state": {"target": ["15", "18", "0", "12", "0", "23", "22", "12", "16"], "time": [1330, 1621, 3112, 4545, 4623, 14095, 16943, 20252, 20304]}, "edge": {"target": [], "time": []}}}, "displayed_time": "10.93", "trialTime": 22317, "trial_type": "mouselab-mdp", "trial_index": 4, "time_elapsed": 421718, "internal_node_id": "0.0-2.0-2.0-1.0"}}, {"uniqueid": "w63533218:a93027990", "current_trial": 5, "dateTime": 1693565103171, "trialdata": {"view_history": [{"page_index": 0, "viewing_time": 49061}, {"page_index": 1, "viewing_time": 10229}], "rt": 59290, "trial_id": "mouselab_instructions_2_control", "trial_type": "instructions", "trial_index": 5, "time_elapsed": 481018, "internal_node_id": "0.0-2.0-3.0"}}, {"uniqueid": "w63533218:a93027990", "current_trial": 6, "dateTime": 1693565147320, "trialdata": {"rt": 44143, "response": {"Q0": "The cost for clicking on nodes may vary between nodes.", "Q1": "The better I perform the higher my bonus will be.", "Q2": "No, the amount of cash at each node of the web may be different each time.", "Q3": "To get the highest total score.", "Q4": "Only before moving the spider.", "Q5": "3 seconds"}, "question_order": [0, 1, 2, 3, 4, 5], "correct": {"Q0": "The cost for clicking on nodes may vary between nodes.", "Q1": "The better I perform the higher my bonus will be.", "Q2": "No, the amount of cash at each node of the web may be different each time.", "Q3": "To get the highest total score.", "Q4": "Only before moving the spider.", "Q5": "3 seconds"}, "trial_id": "mouselab_quiz_control", "trial_type": "survey-multi-choice", "trial_index": 6, "time_elapsed": 525167, "internal_node_id": "0.0-2.0-4.0"}}, {"uniqueid": "w63533218:a93027990", "current_trial": 7, "dateTime": 1693565158306, "trialdata": {"rt": 10976, "response": {"Q0": "No"}, "question_order": [0], "trial_id": "repeat_check", "trial_type": "survey-multi-choice", "trial_index": 7, "time_elapsed": 536153, "internal_node_id": "0.0-4.0-0.0"}}, {"uniqueid": "w63533218:a93027990", "current_trial": 8, "dateTime": 1693565165755, "trialdata": {"rt": 7440, "stimulus": "\n<h1> Get ready to start the game! </h1>\n\nThank you for reading the instructions. Get ready start with the 40 rounds of this game.\n<br><br>\nIf you need to take a break, feel free to take one after the end of a round, before continuing to the next one.\n<br><br>\nRemember, the more money the spider gets, the bigger your bonus will be!\n<br><br>\n<div style='text-align: center;'>Press <code>space</code> to begin.</div>\n\n<br><br>\n(If, at any point, the <code>space</code> key does not take you to the next page, click once on the text and try again.)", "response": " ", "trial_id": "mdp_ready", "trial_type": "html-keyboard-response", "trial_index": 8, "time_elapsed": 543602, "internal_node_id": "0.0-6.0-0.0"}}, {"uniqueid": "w63533218:a93027990", "current_trial": 9, "dateTime": 1693565187621, "trialdata": {"revealed_states": [], "clicked_states": ["30"], "num_clicks_accrued": [0, 0, 0, 0, 0, 0, 0, 0, 0, 0, 0, 0, 0], "stateRewards": ["", 1, -1, 8, 4, 76, -33, -17, -3, -1, -54, -74, -2, 2, -5, 13, -51, 63, 83, 1, 84, 29, -36, 2, -1, 7, -12, -10, -44, -43, -14, 8, -69, 19], "withholdReward": false, "trial_id": "mdp_trial_1", "block": "test", "trialIndex": 2, "score": -15.4, "costs": -1.4, "simulationMode": [null, null, null, null, null], "rewards": [2, -1, 7, -12, -10], "path": ["0", "0", "23", "24", "25", "26", "27"], "rt": [3563, 336, 538, 1283, 420], "actions": ["left", "left", "left", "up", "up"], "actionTimes": [5645, 6501, 7554, 9368, 10300], "queries": {"click": {"state": {"target": ["30"], "time": [3562]}, "edge": {"target": [], "time": []}}, "mouseover": {"state": {"target": ["0", "23", "24", "30", "32", "30"], "time": [2639, 2675, 2699, 2777, 2881, 3354]}, "edge": {"target": [], "time": []}}, "mouseout": {"state": {"target": ["22", "12", "0", "0", "23", "24", "30", "32", "30", "24", "18"], "time": [784, 1147, 1607, 2668, 2688, 2728, 2833, 3001, 13383, 13416, 13489]}, "edge": {"target": [], "time": []}}}, "displayed_time": "16.09", "trialTime": 21334, "trial_type": "mouselab-mdp", "trial_index": 9, "time_elapsed": 565467, "internal_node_id": "0.0-6.0-1.0-0.0"}}, {"uniqueid": "w63533218:a93027990", "current_trial": 10, "dateTime": 1693565210692, "trialdata": {"revealed_states": [], "clicked_states": ["6"], "num_clicks_accrued": [0, 0, 0, 0, 0, 0, 0, 0, 0, 0, 0, 0, 0], "stateRewards": ["", 2, 3, 3, 10, 19, -21, 6, 9, 54, 68, 16, 2, 2, -6, -8, 40, -2, -75, -2, -42, 55, 59, -1, 2, 4, -14, 11, -34, -30, -6, 61, -53, 13], "withholdReward": false, "trial_id": "mdp_trial_2", "block": "test", "trialIndex": 3, "score": 69.6, "costs": -1.4, "simulationMode": [null, null, null, null, null], "rewards": [2, 3, 3, 9, 54], "path": ["0", "0", "1", "2", "3", "8", "9"], "rt": [5734, 411, 422, 116, 1282], "actions": ["up", "up", "up", "left", "up"], "actionTimes": [7980, 8917, 9861, 10488, 12286], "queries": {"click": {"state": {"target": ["6"], "time": [4894]}, "edge": {"target": [], "time": []}}, "mouseover": {"state": {"target": ["1", "4", "6", "28", "10"], "time": [2724, 2996, 4606, 6798, 7373]}, "edge": {"target": [], "time": []}}, "mouseout": {"state": {"target": ["18", "1", "4", "6", "28", "10", "6"], "time": [1127, 2743, 4564, 6678, 7344, 17230, 17299]}, "edge": {"target": [], "time": []}}}, "displayed_time": "16.25", "trialTime": 22539, "trial_type": "mouselab-mdp", "trial_index": 10, "time_elapsed": 588537, "internal_node_id": "0.0-6.0-1.0-1.0"}}, {"uniqueid": "w63533218:a93027990", "current_trial": 11, "dateTime": 1693565232075, "trialdata": {"revealed_states": [], "clicked_states": ["16"], "num_clicks_accrued": [0, 0, 0, 0, 0, 0, 0, 0, 0, 0, 0, 0, 0], "stateRewards": ["", 1, -1, 4, 5, -32, 18, 20, 6, -88, -74, 9, -2, 1, -2, -14, 34, -77, -38, -1, 80, -36, 73, 2, 3, -8, 10, -48, -73, -71, -11, -22, 20, 54], "withholdReward": false, "trial_id": "mdp_trial_3", "block": "test", "trialIndex": 4, "score": -79.4, "costs": -1.4, "simulationMode": [null, null, null, null, null], "rewards": [1, -1, 4, 6, -88], "path": ["0", "0", "1", "2", "3", "8", "9"], "rt": [4354, 334, 1063, 251, 812], "actions": ["up", "up", "up", "left", "up"], "actionTimes": [7024, 7881, 9476, 10248, 11580], "queries": {"click": {"state": {"target": ["16"], "time": [4309]}, "edge": {"target": [], "time": []}}, "mouseover": {"state": {"target": ["18", "15", "17", "16"], "time": [3314, 3361, 3486, 3904]}, "edge": {"target": [], "time": []}}, "mouseout": {"state": {"target": ["0", "18", "15", "17", "16", "17"], "time": [2687, 3347, 3393, 3645, 15189, 20429]}, "edge": {"target": [], "time": []}}}, "displayed_time": "16.67", "trialTime": 20839, "trial_type": "mouselab-mdp", "trial_index": 11, "time_elapsed": 609921, "internal_node_id": "0.0-6.0-1.0-2.0"}}, {"uniqueid": "w63533218:a93027990", "current_trial": 12, "dateTime": 1693565249986, "trialdata": {"revealed_states": [], "clicked_states": [], "num_clicks_accrued": [0, 0, 0, 0, 0, 0, 0, 0, 0, 0, 0, 0, 0], "stateRewards": ["", -1, 1, 8, -3, -24, 11, -65, -6, -77, 48, 44, -2, 1, -2, -7, -55, -35, 33, 8, -28, 19, -53, -1, -1, -5, -5, -70, 10, 44, 8, -58, -70, 51], "withholdReward": false, "trial_id": "mdp_trial_4", "block": "test", "trialIndex": 5, "score": 52, "costs": 0, "simulationMode": [null, null, null, null, null], "rewards": [-1, -1, -5, 8, 51], "path": ["0", "0", "23", "24", "25", "30", "33"], "rt": [5584, 222, 362, 289, 317], "actions": ["left", "left", "left", "down", "left"], "actionTimes": [7228, 7970, 8859, 9671, 10514], "queries": {"click": {"state": {"target": [], "time": []}, "edge": {"target": [], "time": []}}, "mouseover": {"state": {"target": ["31", "30", "32"], "time": [3446, 3901, 5202]}, "edge": {"target": [], "time": []}}, "mouseout": {"state": {"target": ["15", "12", "0", "0", "31", "30", "32", "31", "1", "16"], "time": [44, 167, 635, 3389, 3464, 5118, 5544, 13793, 13826, 13859]}, "edge": {"target": [], "time": []}}}, "displayed_time": "15.65", "trialTime": 17344, "trial_type": "mouselab-mdp", "trial_index": 12, "time_elapsed": 627832, "internal_node_id": "0.0-6.0-1.0-3.0"}}, {"uniqueid": "w63533218:a93027990", "current_trial": 13, "dateTime": 1693565272225, "trialdata": {"revealed_states": [], "clicked_states": ["22"], "num_clicks_accrued": [0, 0, 0, 0, 0, 0, 0, 0, 0, 0, 0, 0, 0], "stateRewards": ["", 1, 4, 5, -5, 58, -80, 75, 6, 25, -39, 46, 2, -2, 4, 2, 59, 31, -22, -12, -61, 15, 72, 1, -2, -7, 8, 77, 76, -23, -7, 71, -15, -3], "withholdReward": false, "trial_id": "mdp_trial_5", "block": "test", "trialIndex": 6, "score": -17.4, "costs": -1.4, "simulationMode": [null, null, null, null, null], "rewards": [2, -2, 4, 2, -22], "path": ["0", "0", "12", "13", "14", "15", "18"], "rt": [3672, 136, 493, 545, 199], "actions": ["right", "right", "right", "up", "left"], "actionTimes": [6516, 7179, 8186, 9255, 9979], "queries": {"click": {"state": {"target": ["22"], "time": [4491]}, "edge": {"target": [], "time": []}}, "mouseover": {"state": {"target": ["14", "19", "22"], "time": [3816, 3972, 4282]}, "edge": {"target": [], "time": []}}, "mouseout": {"state": {"target": ["14", "13", "12", "14", "19", "22", "14", "14", "12"], "time": [1664, 1679, 1708, 3846, 4165, 4540, 15078, 18627, 21075]}, "edge": {"target": [], "time": []}}}, "displayed_time": "16.85", "trialTime": 21669, "trial_type": "mouselab-mdp", "trial_index": 13, "time_elapsed": 650070, "internal_node_id": "0.0-6.0-1.0-4.0"}}, {"uniqueid": "w63533218:a93027990", "current_trial": 14, "dateTime": 1693565293781, "trialdata": {"revealed_states": [], "clicked_states": ["9"], "num_clicks_accrued": [0, 0, 0, 0, 0, 0, 0, 0, 0, 0, 0, 0, 0], "stateRewards": ["", 2, -3, 5, -14, -63, -9, -24, -11, -54, -43, 68, 2, -2, -4, 7, -64, 30, 47, 12, -74, 11, 86, 1, -3, 3, 10, -71, -42, -52, -1, -29, -16, 69], "withholdReward": false, "trial_id": "mdp_trial_6", "block": "test", "trialIndex": 7, "score": -42.4, "costs": -1.4, "simulationMode": [null, null, null, null, null], "rewards": [1, -3, 3, 10, -52], "path": ["0", "0", "23", "24", "25", "26", "29"], "rt": [4790, 126, 540, 801, 127], "actions": ["left", "left", "left", "up", "left"], "actionTimes": [6555, 7196, 8259, 9586, 10227], "queries": {"click": {"state": {"target": ["9"], "time": [3496]}, "edge": {"target": [], "time": []}}, "mouseover": {"state": {"target": ["8", "9"], "time": [2392, 2959]}, "edge": {"target": [], "time": []}}, "mouseout": {"state": {"target": ["8", "9", "4", "14"], "time": [2924, 5857, 17154, 19934]}, "edge": {"target": [], "time": []}}}, "displayed_time": "15.77", "trialTime": 20993, "trial_type": "mouselab-mdp", "trial_index": 14, "time_elapsed": 671626, "internal_node_id": "0.0-6.0-1.0-5.0"}}, {"uniqueid": "w63533218:a93027990", "current_trial": 15, "dateTime": 1693565319310, "trialdata": {"revealed_states": [], "clicked_states": ["6"], "num_clicks_accrued": [0, 0, 0, 0, 0, 0, 0, 0, 0, 0, 0, 0, 0], "stateRewards": ["", 1, -3, -4, -11, -56, 61, -47, -16, -28, -9, 69, -2, -3, -4, -8, 40, -86, 59, -4, 80, 27, 54, -1, 3, -1, 8, 67, 23, 50, 6, 83, -43, -29], "withholdReward": false, "trial_id": "mdp_trial_7", "block": "test", "trialIndex": 8, "score": 42.6, "costs": -1.4, "simulationMode": [null, null, null, null, null], "rewards": [1, -3, -4, -11, 61], "path": ["0", "0", "1", "2", "3", "4", "6"], "rt": [4414, 730, 452, 329, 121], "actions": ["up", "up", "up", "right", "right"], "actionTimes": [6771, 8029, 9008, 9861, 10502], "queries": {"click": {"state": {"target": ["6"], "time": [3906]}, "edge": {"target": [], "time": []}}, "mouseover": {"state": {"target": ["6"], "time": [3389]}, "edge": {"target": [], "time": []}}, "mouseout": {"state": {"target": ["1", "1", "0", "0", "6", "1"], "time": [1181, 1452, 1529, 2882, 5165, 23980]}, "edge": {"target": [], "time": []}}}, "displayed_time": "16.36", "trialTime": 24945, "trial_type": "mouselab-mdp", "trial_index": 15, "time_elapsed": 697156, "internal_node_id": "0.0-6.0-1.0-6.0"}}, {"uniqueid": "w63533218:a93027990", "current_trial": 16, "dateTime": 1693565342995, "trialdata": {"revealed_states": [], "clicked_states": ["20"], "num_clicks_accrued": [0, 0, 0, 0, 0, 0, 0, 0, 0, 0, 0, 0, 0], "stateRewards": ["", 1, 4, -8, -5, -15, -7, 21, 13, -30, 40, -65, 1, 1, 5, -14, 35, 27, -38, -11, 36, -58, -47, -2, 4, -3, 13, -16, -49, 22, 15, -56, -44, -10], "withholdReward": false, "trial_id": "mdp_trial_8", "block": "test", "trialIndex": 9, "score": 48.6, "costs": -1.4, "simulationMode": [null, null, null, null, null], "rewards": [1, 4, -8, 13, 40], "path": ["0", "0", "1", "2", "3", "8", "10"], "rt": [4041, 347, 129, 475, 207], "actions": ["up", "up", "up", "left", "down"], "actionTimes": [9237, 10109, 10757, 11759, 12485], "queries": {"click": {"state": {"target": ["20"], "time": [6326]}, "edge": {"target": [], "time": []}}, "mouseover": {"state": {"target": ["12", "13", "14", "20", "19"], "time": [5592, 5626, 5663, 5775, 7550]}, "edge": {"target": [], "time": []}}, "mouseout": {"state": {"target": ["24", "31", "0", "0", "12", "13", "14", "20", "19", "22", "14"], "time": [896, 1133, 4378, 5559, 5609, 5660, 5692, 7546, 7576, 20370, 20420]}, "edge": {"target": [], "time": []}}}, "displayed_time": "19.20", "trialTime": 23106, "trial_type": "mouselab-mdp", "trial_index": 16, "time_elapsed": 720840, "internal_node_id": "0.0-6.0-1.0-7.0"}}, {"uniqueid": "w63533218:a93027990", "current_trial": 17, "dateTime": 1693565364720, "trialdata": {"revealed_states": [], "clicked_states": ["28"], "num_clicks_accrued": [0, 0, 0, 0, 0, 0, 0, 0, 0, 0, 0, 0, 0], "stateRewards": ["", -2, -2, -7, -13, -10, 49, -68, -1, 84, 70, 88, 1, 4, 4, 12, -57, 25, 30, 8, -1, -77, 57, 2, 3, 2, 3, -18, -80, 23, -15, -41, 70, 11], "withholdReward": false, "trial_id": "mdp_trial_9", "block": "test", "trialIndex": 10, "score": -37.4, "costs": -1.4, "simulationMode": [null, null, null, null, null], "rewards": [1, 4, 4, 12, -57], "path": ["0", "0", "12", "13", "14", "15", "16"], "rt": [5457, 634, 455, 227, 772], "actions": ["right", "right", "right", "up", "up"], "actionTimes": [7260, 8424, 9393, 10148, 11446], "queries": {"click": {"state": {"target": ["28"], "time": [4228]}, "edge": {"target": [], "time": []}}, "mouseover": {"state": {"target": ["28", "25", "26", "27", "26", "28", "28"], "time": [2538, 2928, 3127, 3394, 3468, 3623, 3994]}, "edge": {"target": [], "time": []}}, "mouseout": {"state": {"target": ["18", "12", "0", "28", "25", "26", "27", "26", "28", "28", "2", "1", "0"], "time": [726, 1046, 2467, 2606, 3112, 3278, 3429, 3611, 3649, 20171, 20772, 20865, 20919]}, "edge": {"target": [], "time": []}}}, "displayed_time": "15.80", "trialTime": 21132, "trial_type": "mouselab-mdp", "trial_index": 17, "time_elapsed": 742565, "internal_node_id": "0.0-6.0-1.0-8.0"}}, {"uniqueid": "w63533218:a93027990", "current_trial": 18, "dateTime": 1693565393650, "trialdata": {"revealed_states": [], "clicked_states": ["6"], "num_clicks_accrued": [0, 0, 0, 0, 0, 0, 0, 0, 0, 0, 0, 0, 0], "stateRewards": ["", 1, -2, 7, -14, 88, -56, -44, -14, 64, -51, -57, -2, 3, -4, -9, -11, 19, -77, -1, 68, 75, -67, -1, 1, -2, 5, -37, 70, -34, -10, -72, 63, -41], "withholdReward": false, "trial_id": "mdp_trial_10", "block": "test", "trialIndex": 11, "score": -54.4, "costs": -1.4, "simulationMode": [null, null, null, null, null], "rewards": [-1, 1, -2, -10, -41], "path": ["0", "0", "23", "24", "25", "30", "33"], "rt": [5902, 340, 319, 216, 522], "actions": ["left", "left", "left", "down", "left"], "actionTimes": [11199, 12059, 12899, 13628, 14696], "queries": {"click": {"state": {"target": ["6"], "time": [6473]}, "edge": {"target": [], "time": []}}, "mouseover": {"state": {"target": ["7", "4", "6", "7", "1"], "time": [5905, 5940, 6214, 7347, 7412]}, "edge": {"target": [], "time": []}}, "mouseout": {"state": {"target": ["1", "18", "18", "0", "7", "4", "6", "7", "1"], "time": [956, 1603, 3634, 5804, 5931, 5968, 6494, 7362, 7698]}, "edge": {"target": [], "time": []}}}, "displayed_time": "19.30", "trialTime": 28365, "trial_type": "mouselab-mdp", "trial_index": 18, "time_elapsed": 771495, "internal_node_id": "0.0-6.0-1.0-9.0"}}, {"uniqueid": "w63533218:a93027990", "current_trial": 19, "dateTime": 1693565417808, "trialdata": {"revealed_states": [], "clicked_states": ["21"], "num_clicks_accrued": [0, 0, 0, 0, 0, 0, 0, 0, 0, 0, 0, 0, 0], "stateRewards": ["", 1, -2, 4, 7, -43, -83, -60, -5, -86, -80, 83, -1, -2, 6, 11, -15, 21, 13, 9, 29, -49, 11, -1, 4, -6, -11, 87, 40, 63, -8, -39, -11, 62], "withholdReward": false, "trial_id": "mdp_trial_11", "block": "test", "trialIndex": 12, "score": -34.4, "costs": -1.4, "simulationMode": [null, null, null, null, null], "rewards": [1, -2, 4, 7, -43], "path": ["0", "0", "1", "2", "3", "4", "5"], "rt": [4367, 647, 377, 95, 181], "actions": ["up", "up", "up", "right", "up"], "actionTimes": [6032, 7196, 8091, 8709, 9426], "queries": {"click": {"state": {"target": ["21"], "time": [2953]}, "edge": {"target": [], "time": []}}, "mouseover": {"state": {"target": ["21"], "time": [2486]}, "edge": {"target": [], "time": []}}, "mouseout": {"state": {"target": ["12", "0", "21"], "time": [668, 2122, 3082]}, "edge": {"target": [], "time": []}}}, "displayed_time": "15.67", "trialTime": 23584, "trial_type": "mouselab-mdp", "trial_index": 19, "time_elapsed": 795653, "internal_node_id": "0.0-6.0-1.0-10.0"}}, {"uniqueid": "w63533218:a93027990", "current_trial": 20, "dateTime": 1693565444168, "trialdata": {"revealed_states": [], "clicked_states": ["7"], "num_clicks_accrued": [0, 0, 0, 0, 0, 0, 0, 0, 0, 0, 0, 0, 0], "stateRewards": ["", 2, -1, 3, -12, -83, 6, -33, 9, 28, 24, -50, -2, -1, -2, -5, -87, 37, 82, 12, 80, -5, 10, -2, -3, -6, 9, 22, -1, 16, 9, 77, -62, 58], "withholdReward": false, "trial_id": "mdp_trial_12", "block": "test", "trialIndex": 13, "score": 35.6, "costs": -1.4, "simulationMode": [null, null, null, null, null], "rewards": [2, -1, 3, 9, 24], "path": ["0", "0", "1", "2", "3", "8", "10"], "rt": [4267, 560, 252, 156, 155], "actions": ["up", "up", "up", "left", "down"], "actionTimes": [9818, 10894, 11682, 12353, 13035], "queries": {"click": {"state": {"target": ["7"], "time": [6574]}, "edge": {"target": [], "time": []}}, "mouseover": {"state": {"target": ["7", "6", "7", "1"], "time": [5975, 6028, 6271, 7628]}, "edge": {"target": [], "time": []}}, "mouseout": {"state": {"target": ["21", "13", "18", "18", "0", "0", "7", "6", "7", "1", "1", "0", "0"], "time": [1432, 1522, 2352, 4301, 4717, 5889, 5994, 6198, 7597, 9292, 24656, 25146, 25393]}, "edge": {"target": [], "time": []}}}, "displayed_time": "19.55", "trialTime": 25740, "trial_type": "mouselab-mdp", "trial_index": 20, "time_elapsed": 822013, "internal_node_id": "0.0-6.0-1.0-11.0"}}, {"uniqueid": "w63533218:a93027990", "current_trial": 21, "dateTime": 1693565469359, "trialdata": {"revealed_states": [], "clicked_states": ["9"], "num_clicks_accrued": [0, 0, 0, 0, 0, 0, 0, 0, 0, 0, 0, 0, 0], "stateRewards": ["", -1, -3, -5, -14, -13, -47, 79, 8, -60, -64, 41, -1, 2, 3, 13, -46, 61, -79, -11, -64, -65, 23, 1, -2, 6, -14, 46, 32, 21, 7, 75, -66, 15], "withholdReward": false, "trial_id": "mdp_trial_13", "block": "test", "trialIndex": 14, "score": -37.4, "costs": -1.4, "simulationMode": [null, null, null, null, null], "rewards": [-1, -3, -5, -14, -13], "path": ["0", "0", "1", "2", "3", "4", "5"], "rt": [3830, 901, 227, 171, 315], "actions": ["up", "up", "up", "right", "up"], "actionTimes": [6750, 8166, 8916, 9603, 10430], "queries": {"click": {"state": {"target": ["9"], "time": [3860]}, "edge": {"target": [], "time": []}}, "mouseover": {"state": {"target": ["1", "2", "9", "4", "18", "13"], "time": [3388, 3424, 3462, 4782, 4880, 4930]}, "edge": {"target": [], "time": []}}, "mouseout": {"state": {"target": ["0", "1", "2", "0", "1", "2", "9", "4", "18", "13"], "time": [935, 980, 1051, 2169, 3415, 3442, 3919, 4796, 4912, 4962]}, "edge": {"target": [], "time": []}}}, "displayed_time": "16.92", "trialTime": 24575, "trial_type": "mouselab-mdp", "trial_index": 21, "time_elapsed": 847204, "internal_node_id": "0.0-6.0-1.0-12.0"}}, {"uniqueid": "w63533218:a93027990", "current_trial": 22, "dateTime": 1693565496104, "trialdata": {"revealed_states": [], "clicked_states": ["11"], "num_clicks_accrued": [0, 0, 0, 0, 0, 0, 0, 0, 0, 0, 0, 0, 0], "stateRewards": ["", -1, 2, -6, 6, 43, 78, 78, -2, 55, -29, -17, -2, -4, 1, -15, 13, 7, -79, 8, -28, -68, 36, -1, -3, 3, -16, 84, -18, 87, 10, 32, 13, -81], "withholdReward": false, "trial_id": "mdp_trial_14", "block": "test", "trialIndex": 15, "score": 77.6, "costs": -1.4, "simulationMode": [null, null, null, null, null], "rewards": [-1, 2, -6, 6, 78], "path": ["0", "0", "1", "2", "3", "4", "6"], "rt": [4299, 92, 234, 89, 177], "actions": ["up", "up", "up", "right", "right"], "actionTimes": [11193, 11801, 12559, 13162, 13852], "queries": {"click": {"state": {"target": ["11"], "time": [8484]}, "edge": {"target": [], "time": []}}, "mouseover": {"state": {"target": ["1", "8", "11"], "time": [7669, 7708, 8114]}, "edge": {"target": [], "time": []}}, "mouseout": {"state": {"target": ["24", "10", "10", "12", "12", "1", "8", "11"], "time": [11, 197, 5761, 5878, 6095, 7684, 7738, 23793]}, "edge": {"target": [], "time": []}}}, "displayed_time": "20.89", "trialTime": 26125, "trial_type": "mouselab-mdp", "trial_index": 22, "time_elapsed": 873950, "internal_node_id": "0.0-6.0-1.0-13.0"}}, {"uniqueid": "w63533218:a93027990", "current_trial": 23, "dateTime": 1693565522506, "trialdata": {"revealed_states": [], "clicked_states": ["6"], "num_clicks_accrued": [0, 0, 0, 0, 0, 0, 0, 0, 0, 0, 0, 0, 0], "stateRewards": ["", 2, 3, 8, 11, 25, -80, 6, -4, -56, 84, -23, -2, -4, -3, 4, -51, -9, -61, -15, -64, 67, -35, 1, -1, -7, -6, 83, 59, -15, 12, -79, 56, 41], "withholdReward": false, "trial_id": "mdp_trial_15", "block": "test", "trialIndex": 16, "score": -15.4, "costs": -1.4, "simulationMode": [null, null, null, null, null], "rewards": [2, 3, 8, -4, -23], "path": ["0", "0", "1", "2", "3", "8", "11"], "rt": [3945, 627, 279, 165, 174], "actions": ["up", "up", "up", "left", "left"], "actionTimes": [8726, 9876, 10677, 11364, 12075], "queries": {"click": {"state": {"target": ["6"], "time": [5913]}, "edge": {"target": [], "time": []}}, "mouseover": {"state": {"target": ["7", "6", "7"], "time": [5266, 5653, 7045]}, "edge": {"target": [], "time": []}}, "mouseout": {"state": {"target": ["0", "1", "4", "6", "7", "1", "23", "31", "0", "7", "6", "7", "12"], "time": [902, 939, 2135, 3196, 3246, 3652, 3713, 3847, 5204, 5282, 6978, 7064, 25112]}, "edge": {"target": [], "time": []}}}, "displayed_time": "18.78", "trialTime": 25743, "trial_type": "mouselab-mdp", "trial_index": 23, "time_elapsed": 900351, "internal_node_id": "0.0-6.0-1.0-14.0"}}, {"uniqueid": "w63533218:a93027990", "current_trial": 24, "dateTime": 1693565544665, "trialdata": {"revealed_states": [], "clicked_states": ["21"], "num_clicks_accrued": [0, 0, 0, 0, 0, 0, 0, 0, 0, 0, 0, 0, 0], "stateRewards": ["", 1, -2, -3, 14, -42, -87, -37, -11, -50, 33, -44, -2, 4, -7, 13, 48, -75, -66, 12, 23, -2, 82, 1, -4, 3, 12, 51, -15, -26, -11, -52, -29, 82], "withholdReward": false, "trial_id": "mdp_trial_16", "block": "test", "trialIndex": 17, "score": 87.6, "costs": -1.4, "simulationMode": [null, null, null, null, null], "rewards": [-2, 4, -7, 12, 82], "path": ["0", "0", "12", "13", "14", "19", "22"], "rt": [5446, 934, 461, 122, 439], "actions": ["right", "right", "right", "down", "left"], "actionTimes": [8217, 9676, 10654, 11299, 12264], "queries": {"click": {"state": {"target": ["21"], "time": [4085]}, "edge": {"target": [], "time": []}}, "mouseover": {"state": {"target": ["0", "21"], "time": [3397, 3775]}, "edge": {"target": [], "time": []}}, "mouseout": {"state": {"target": ["31", "0", "0", "21"], "time": [1799, 1878, 3425, 5206]}, "edge": {"target": [], "time": []}}}, "displayed_time": "16.77", "trialTime": 21508, "trial_type": "mouselab-mdp", "trial_index": 24, "time_elapsed": 922510, "internal_node_id": "0.0-6.0-1.0-15.0"}}, {"uniqueid": "w63533218:a93027990", "current_trial": 25, "dateTime": 1693565565122, "trialdata": {"revealed_states": [], "clicked_states": ["22"], "num_clicks_accrued": [0, 0, 0, 0, 0, 0, 0, 0, 0, 0, 0, 0, 0], "stateRewards": ["", -1, 1, 3, -8, -23, -15, -14, -11, -23, 58, 68, 1, 3, 5, 12, -17, -41, -7, -10, -4, 82, 10, 1, 4, -4, 11, 73, 55, -55, -1, -86, -86, 54], "withholdReward": false, "trial_id": "mdp_trial_17", "block": "test", "trialIndex": 18, "score": 7.6, "costs": -1.4, "simulationMode": [null, null, null, null, null], "rewards": [1, 3, 5, -10, 10], "path": ["0", "0", "12", "13", "14", "19", "22"], "rt": [5905, 1231, 403, 197, 212], "actions": ["right", "right", "right", "down", "left"], "actionTimes": [7556, 9315, 10236, 10947, 11676], "queries": {"click": {"state": {"target": ["22"], "time": [3974]}, "edge": {"target": [], "time": []}}, "mouseover": {"state": {"target": ["12", "22", "22", "19", "20", "19", "22"], "time": [2269, 2314, 2767, 2846, 3023, 3195, 3616]}, "edge": {"target": [], "time": []}}, "mouseout": {"state": {"target": ["0", "12", "22", "22", "19", "20", "19"], "time": [2251, 2286, 2331, 2802, 2905, 3174, 3215]}, "edge": {"target": [], "time": []}}}, "displayed_time": "15.65", "trialTime": 19832, "trial_type": "mouselab-mdp", "trial_index": 25, "time_elapsed": 942968, "internal_node_id": "0.0-6.0-1.0-16.0"}}, {"uniqueid": "w63533218:a93027990", "current_trial": 26, "dateTime": 1693565591098, "trialdata": {"revealed_states": [], "clicked_states": ["22"], "num_clicks_accrued": [0, 0, 0, 0, 0, 0, 0, 0, 0, 0, 0, 0, 0], "stateRewards": ["", -2, 4, 3, 5, -61, 4, 30, 1, -47, 83, 10, 1, 4, 7, -14, 19, -74, -83, 6, -2, -2, -65, -1, -2, 4, -11, 12, -1, -68, 11, -38, -28, 66], "withholdReward": false, "trial_id": "mdp_trial_18", "block": "test", "trialIndex": 19, "score": -27.4, "costs": -1.4, "simulationMode": [null, null, null, null, null], "rewards": [-1, -2, 4, 11, -38], "path": ["0", "0", "23", "24", "25", "30", "31"], "rt": [5133, 749, 463, 168, 827], "actions": ["left", "left", "left", "down", "right"], "actionTimes": [7940, 9212, 10190, 10876, 12222], "queries": {"click": {"state": {"target": ["22"], "time": [3997]}, "edge": {"target": [], "time": []}}, "mouseover": {"state": {"target": ["22"], "time": [3732]}, "edge": {"target": [], "time": []}}, "mouseout": {"state": {"target": ["22", "0", "0", "22", "19", "20", "19", "22"], "time": [495, 1082, 3369, 15788, 21391, 23956, 24838, 24866]}, "edge": {"target": [], "time": []}}}, "displayed_time": "16.81", "trialTime": 25309, "trial_type": "mouselab-mdp", "trial_index": 26, "time_elapsed": 968943, "internal_node_id": "0.0-6.0-1.0-17.0"}}, {"uniqueid": "w63533218:a93027990", "current_trial": 27, "dateTime": 1693565614760, "trialdata": {"revealed_states": [], "clicked_states": ["20"], "num_clicks_accrued": [0, 0, 0, 0, 0, 0, 0, 0, 0, 0, 0, 0, 0], "stateRewards": ["", -2, 4, -3, -13, 63, -36, 62, 11, 78, 34, -51, 2, -2, 8, -6, -40, -18, 31, 9, 64, 39, 79, 1, 4, -4, 15, -12, 76, 73, -10, -77, 86, -4], "withholdReward": false, "trial_id": "mdp_trial_19", "block": "test", "trialIndex": 20, "score": 79.6, "costs": -1.4, "simulationMode": [null, null, null, null, null], "rewards": [2, -2, 8, 9, 64], "path": ["0", "0", "12", "13", "14", "19", "20"], "rt": [4584, 379, 537, 290, 424], "actions": ["right", "right", "right", "down", "right"], "actionTimes": [10228, 11124, 12182, 12985, 13936], "queries": {"click": {"state": {"target": ["20"], "time": [6685]}, "edge": {"target": [], "time": []}}, "mouseover": {"state": {"target": ["0", "12", "13", "20"], "time": [6034, 6077, 6098, 6235]}, "edge": {"target": [], "time": []}}, "mouseout": {"state": {"target": ["0", "0", "12", "13", "20"], "time": [4998, 6071, 6094, 6111, 7660]}, "edge": {"target": [], "time": []}}}, "displayed_time": "19.65", "trialTime": 23020, "trial_type": "mouselab-mdp", "trial_index": 27, "time_elapsed": 992605, "internal_node_id": "0.0-6.0-1.0-18.0"}}, {"uniqueid": "w63533218:a93027990", "current_trial": 28, "dateTime": 1693565642647, "trialdata": {"revealed_states": [], "clicked_states": ["20"], "num_clicks_accrued": [0, 0, 0, 0, 0, 0, 0, 0, 0, 0, 0, 0, 0], "stateRewards": ["", 1, 2, -6, -13, -51, 22, -4, -12, -44, -12, 6, -2, -2, -2, -14, -46, -4, -77, -2, 36, -79, 41, 2, -4, 2, -6, -55, 59, 70, -5, 39, -19, 24], "withholdReward": false, "trial_id": "mdp_trial_20", "block": "test", "trialIndex": 21, "score": 26.6, "costs": -1.4, "simulationMode": [null, null, null, null, null], "rewards": [-2, -2, -2, -2, 36], "path": ["0", "0", "12", "13", "14", "19", "20"], "rt": [4086, 836, 121, 323, 212], "actions": ["right", "right", "right", "down", "right"], "actionTimes": [9842, 11208, 11843, 12695, 13437], "queries": {"click": {"state": {"target": ["20"], "time": [7277]}, "edge": {"target": [], "time": []}}, "mouseover": {"state": {"target": ["12", "13", "20"], "time": [6422, 6448, 6502]}, "edge": {"target": [], "time": []}}, "mouseout": {"state": {"target": ["0", "23", "0", "12", "13"], "time": [4393, 4609, 6396, 6441, 6459]}, "edge": {"target": [], "time": []}}}, "displayed_time": "19.76", "trialTime": 27262, "trial_type": "mouselab-mdp", "trial_index": 28, "time_elapsed": 1020492, "internal_node_id": "0.0-6.0-1.0-19.0"}}, {"uniqueid": "w63533218:a93027990", "current_trial": 29, "dateTime": 1693565668281, "trialdata": {"revealed_states": [], "clicked_states": ["20"], "num_clicks_accrued": [0, 0, 0, 0, 0, 0, 0, 0, 0, 0, 0, 0, 0], "stateRewards": ["", 1, 1, -6, -2, 7, 77, 3, 16, -16, 66, 31, -1, 3, -8, -6, 33, -50, -48, 7, -60, -66, 36, 2, -3, 3, -7, -12, -61, -79, -4, 8, 74, -70], "withholdReward": false, "trial_id": "mdp_trial_21", "block": "test", "trialIndex": 22, "score": -61.4, "costs": -1.4, "simulationMode": [null, null, null, null, null], "rewards": [-1, 3, -8, -6, -48], "path": ["0", "0", "12", "13", "14", "15", "18"], "rt": [5881, 889, 408, 299, 476], "actions": ["right", "right", "right", "up", "left"], "actionTimes": [8828, 10232, 11171, 11990, 12984], "queries": {"click": {"state": {"target": ["20"], "time": [4367]}, "edge": {"target": [], "time": []}}, "mouseover": {"state": {"target": ["13", "20", "20", "21", "19", "17", "15"], "time": [3672, 3723, 4099, 5390, 6947, 7697, 7745]}, "edge": {"target": [], "time": []}}, "mouseout": {"state": {"target": ["20", "14", "13", "12", "0", "23", "13", "20", "20", "21", "19", "17", "15"], "time": [1414, 1443, 1715, 1775, 1805, 2080, 3690, 3757, 5358, 5408, 6976, 7733, 7788]}, "edge": {"target": [], "time": []}}}, "displayed_time": "16.95", "trialTime": 24960, "trial_type": "mouselab-mdp", "trial_index": 29, "time_elapsed": 1046126, "internal_node_id": "0.0-6.0-1.0-20.0"}}, {"uniqueid": "w63533218:a93027990", "current_trial": 30, "dateTime": 1693565698770, "trialdata": {"revealed_states": [], "clicked_states": ["27"], "num_clicks_accrued": [0, 0, 0, 0, 0, 0, 0, 0, 0, 0, 0, 0, 0], "stateRewards": ["", -1, -3, -3, 1, -38, 2, -53, -2, -1, -81, 70, -1, 1, -5, -9, 46, 15, 35, -1, -22, 38, 59, -2, 4, -8, 13, 1, -83, -43, 4, 76, 13, 48], "withholdReward": false, "trial_id": "mdp_trial_22", "block": "test", "trialIndex": 23, "score": -77.4, "costs": -1.4, "simulationMode": [null, null, null, null, null], "rewards": [-2, 4, -8, 13, -83], "path": ["0", "0", "23", "24", "25", "26", "28"], "rt": [4855, 437, 94, 392, 715], "actions": ["left", "left", "left", "up", "right"], "actionTimes": [10118, 11077, 11685, 12599, 13839], "queries": {"click": {"state": {"target": ["27"], "time": [7252]}, "edge": {"target": [], "time": []}}, "mouseover": {"state": {"target": ["10", "11", "8", "8", "11", "27"], "time": [5663, 5701, 6114, 6476, 6574, 6620]}, "edge": {"target": [], "time": []}}, "mouseout": {"state": {"target": ["13", "0", "28", "23", "0", "10", "11", "8", "8", "11", "27", "27", "28", "23", "23", "0", "12", "13", "19", "22", "23", "26", "26", "29", "24"], "time": [497, 2088, 4071, 4105, 4493, 5691, 5718, 6141, 6557, 6591, 24639, 25671, 25716, 25782, 26405, 26921, 27237, 27262, 27286, 28048, 28114, 28538, 28840, 29305, 29366]}, "edge": {"target": [], "time": []}}}, "displayed_time": "19.27", "trialTime": 29829, "trial_type": "mouselab-mdp", "trial_index": 30, "time_elapsed": 1076616, "internal_node_id": "0.0-6.0-1.0-21.0"}}, {"uniqueid": "w63533218:a93027990", "current_trial": 31, "dateTime": 1693565722861, "trialdata": {"revealed_states": [], "clicked_states": ["20"], "num_clicks_accrued": [0, 0, 0, 0, 0, 0, 0, 0, 0, 0, 0, 0, 0], "stateRewards": ["", -2, -3, -7, 7, -54, -69, -4, -14, -77, 22, 40, -2, -1, 5, 6, -35, 50, -60, 10, -28, 75, 57, 1, -4, -2, 2, 68, 34, -18, 12, 3, -21, -43], "withholdReward": false, "trial_id": "mdp_trial_23", "block": "test", "trialIndex": 24, "score": 67.6, "costs": -1.4, "simulationMode": [null, null, null, null, null], "rewards": [-2, -1, 5, 10, 57], "path": ["0", "0", "12", "13", "14", "19", "22"], "rt": [5153, 1066, 372, 153, 285], "actions": ["right", "right", "right", "down", "left"], "actionTimes": [11958, 13546, 14434, 15115, 15914], "queries": {"click": {"state": {"target": ["20"], "time": [9175]}, "edge": {"target": [], "time": []}}, "mouseover": {"state": {"target": ["13", "19", "19", "21", "21", "19", "22", "19", "20"], "time": [7556, 7611, 7692, 8000, 8153, 8364, 8515, 8751, 8793]}, "edge": {"target": [], "time": []}}, "mouseout": {"state": {"target": ["23", "10", "13", "19", "19", "21", "21", "19", "22", "19", "20", "18", "7", "2", "10"], "time": [4434, 6065, 7589, 7643, 7968, 8016, 8292, 8470, 8720, 8779, 9194, 22497, 22529, 22912, 22948]}, "edge": {"target": [], "time": []}}}, "displayed_time": "20.81", "trialTime": 23468, "trial_type": "mouselab-mdp", "trial_index": 31, "time_elapsed": 1100706, "internal_node_id": "0.0-6.0-1.0-22.0"}}, {"uniqueid": "w63533218:a93027990", "current_trial": 32, "dateTime": 1693565749467, "trialdata": {"revealed_states": [], "clicked_states": ["22"], "num_clicks_accrued": [0, 0, 0, 0, 0, 0, 0, 0, 0, 0, 0, 0, 0], "stateRewards": ["", -1, 1, 8, -8, -49, 62, -78, 16, 28, -81, 78, -2, -3, -1, -4, 67, 49, -2, -13, -16, -39, 83, 1, -4, 4, -5, -20, 7, 84, 7, -32, -59, 19], "withholdReward": false, "trial_id": "mdp_trial_24", "block": "test", "trialIndex": 25, "score": 62.6, "costs": -1.4, "simulationMode": [null, null, null, null, null], "rewards": [-2, -3, -1, -13, 83], "path": ["0", "0", "12", "13", "14", "19", "22"], "rt": [4099, 450, 313, 204, 964], "actions": ["right", "right", "right", "down", "left"], "actionTimes": [10606, 11571, 12399, 13128, 14617], "queries": {"click": {"state": {"target": ["22"], "time": [7781]}, "edge": {"target": [], "time": []}}, "mouseover": {"state": {"target": ["22"], "time": [7237]}, "edge": {"target": [], "time": []}}, "mouseout": {"state": {"target": ["23", "0"], "time": [858, 7177]}, "edge": {"target": [], "time": []}}}, "displayed_time": "20.51", "trialTime": 25940, "trial_type": "mouselab-mdp", "trial_index": 32, "time_elapsed": 1127312, "internal_node_id": "0.0-6.0-1.0-23.0"}}, {"uniqueid": "w63533218:a93027990", "current_trial": 33, "dateTime": 1693565773459, "trialdata": {"revealed_states": [], "clicked_states": ["20"], "num_clicks_accrued": [0, 0, 0, 0, 0, 0, 0, 0, 0, 0, 0, 0, 0], "stateRewards": ["", -1, -3, -6, -2, -7, 80, -45, -3, -38, -72, 76, 2, 1, 7, 4, -62, 14, -74, 14, -87, -21, -88, -2, 1, -7, -10, 66, 56, -76, 10, -29, -72, -70], "withholdReward": false, "trial_id": "mdp_trial_25", "block": "test", "trialIndex": 26, "score": -65.4, "costs": -1.4, "simulationMode": [null, null, null, null, null], "rewards": [2, 1, 7, 14, -88], "path": ["0", "0", "12", "13", "14", "19", "22"], "rt": [4378, 544, 517, 288, 285], "actions": ["right", "right", "right", "down", "left"], "actionTimes": [6358, 7427, 8462, 9267, 10079], "queries": {"click": {"state": {"target": ["20"], "time": [3138]}, "edge": {"target": [], "time": []}}, "mouseover": {"state": {"target": ["13", "20"], "time": [2409, 2896]}, "edge": {"target": [], "time": []}}, "mouseout": {"state": {"target": ["22", "0", "0", "13", "20", "15", "6", "4", "10", "28", "24", "24", "23", "0", "22", "19", "19", "22", "12"], "time": [733, 1099, 2384, 2442, 18017, 18091, 18141, 18546, 18715, 20182, 20223, 20728, 20758, 20801, 21228, 21400, 21523, 21709, 22028]}, "edge": {"target": [], "time": []}}}, "displayed_time": "15.98", "trialTime": 23286, "trial_type": "mouselab-mdp", "trial_index": 33, "time_elapsed": 1151304, "internal_node_id": "0.0-6.0-1.0-24.0"}}, {"uniqueid": "w63533218:a93027990", "current_trial": 34, "dateTime": 1693565799299, "trialdata": {"revealed_states": [], "clicked_states": ["20"], "num_clicks_accrued": [0, 0, 0, 0, 0, 0, 0, 0, 0, 0, 0, 0, 0], "stateRewards": ["", -2, -1, -1, 5, -54, -87, 35, 2, -8, 20, -22, 1, 3, 6, 13, -75, -32, -55, -3, 56, 62, -22, -1, -4, -1, -7, -51, 84, 70, 7, -15, 5, 55], "withholdReward": false, "trial_id": "mdp_trial_26", "block": "test", "trialIndex": 27, "score": 61.6, "costs": -1.4, "simulationMode": [null, null, null, null, null], "rewards": [1, 3, 6, -3, 56], "path": ["0", "0", "12", "13", "14", "19", "20"], "rt": [3735, 541, 475, 17, 301], "actions": ["right", "right", "right", "down", "right"], "actionTimes": [5411, 6481, 7476, 8018, 8852], "queries": {"click": {"state": {"target": ["20"], "time": [2843]}, "edge": {"target": [], "time": []}}, "mouseover": {"state": {"target": ["0", "12", "20"], "time": [1692, 2140, 2640]}, "edge": {"target": [], "time": []}}, "mouseout": {"state": {"target": ["12", "0", "12", "20", "19", "19", "20"], "time": [822, 1703, 2170, 15069, 17300, 19610, 21677]}, "edge": {"target": [], "time": []}}}, "displayed_time": "15.68", "trialTime": 25156, "trial_type": "mouselab-mdp", "trial_index": 34, "time_elapsed": 1177144, "internal_node_id": "0.0-6.0-1.0-25.0"}}, {"uniqueid": "w63533218:a93027990", "current_trial": 35, "dateTime": 1693565826453, "trialdata": {"revealed_states": [], "clicked_states": ["20"], "num_clicks_accrued": [0, 0, 0, 0, 0, 0, 0, 0, 0, 0, 0, 0, 0], "stateRewards": ["", 1, 3, -2, 15, 51, 15, -19, 11, 67, -45, -73, 2, 4, -2, -13, 36, 9, -28, 10, -30, 31, 16, 1, 2, -1, -16, 14, -22, 36, -1, 88, -5, 45], "withholdReward": false, "trial_id": "mdp_trial_27", "block": "test", "trialIndex": 28, "score": -37.4, "costs": -1.4, "simulationMode": [null, null, null, null, null], "rewards": [1, 2, -1, -16, -22], "path": ["0", "0", "23", "24", "25", "26", "28"], "rt": [4473, 417, 446, 157, 620], "actions": ["left", "left", "left", "up", "right"], "actionTimes": [5744, 6682, 7645, 8320, 9480], "queries": {"click": {"state": {"target": ["20"], "time": [2421]}, "edge": {"target": [], "time": []}}, "mouseover": {"state": {"target": ["13", "20"], "time": [1487, 1919]}, "edge": {"target": [], "time": []}}, "mouseout": {"state": {"target": ["20", "19", "12", "13", "20", "20"], "time": [451, 480, 551, 1516, 2443, 3461]}, "edge": {"target": [], "time": []}}}, "displayed_time": "15.27", "trialTime": 26469, "trial_type": "mouselab-mdp", "trial_index": 35, "time_elapsed": 1204298, "internal_node_id": "0.0-6.0-1.0-26.0"}}, {"uniqueid": "w63533218:a93027990", "current_trial": 36, "dateTime": 1693565851691, "trialdata": {"revealed_states": [], "clicked_states": ["22"], "num_clicks_accrued": [0, 0, 0, 0, 0, 0, 0, 0, 0, 0, 0, 0, 0], "stateRewards": ["", 2, 3, -1, 16, -78, -11, 46, 2, -20, 79, -67, 2, 3, 2, 11, -83, -42, -58, -11, -67, -22, 55, 2, -1, -1, -16, -83, -82, 23, -11, -29, 13, 13], "withholdReward": false, "trial_id": "mdp_trial_28", "block": "test", "trialIndex": 29, "score": 49.6, "costs": -1.4, "simulationMode": [null, null, null, null, null], "rewards": [2, 3, 2, -11, 55], "path": ["0", "0", "12", "13", "14", "19", "22"], "rt": [3793, 546, 247, 130, 384], "actions": ["right", "right", "right", "down", "left"], "actionTimes": [7640, 8715, 9482, 10130, 11038], "queries": {"click": {"state": {"target": ["22"], "time": [5040]}, "edge": {"target": [], "time": []}}, "mouseover": {"state": {"target": ["12", "13", "19", "19", "22"], "time": [4292, 4331, 4397, 4732, 4797]}, "edge": {"target": [], "time": []}}, "mouseout": {"state": {"target": ["0", "1", "1", "0", "12", "13", "19", "19", "22", "12"], "time": [2700, 2780, 3019, 4273, 4318, 4363, 4656, 4763, 24120, 24188]}, "edge": {"target": [], "time": []}}}, "displayed_time": "17.85", "trialTime": 24523, "trial_type": "mouselab-mdp", "trial_index": 36, "time_elapsed": 1229536, "internal_node_id": "0.0-6.0-1.0-27.0"}}, {"uniqueid": "w63533218:a93027990", "current_trial": 37, "dateTime": 1693565870282, "trialdata": {"revealed_states": [], "clicked_states": ["20"], "num_clicks_accrued": [0, 0, 0, 0, 0, 0, 0, 0, 0, 0, 0, 0, 0], "stateRewards": ["", 2, 3, -3, 12, -43, 81, -82, -15, 58, -7, -75, -1, -1, 3, -5, 50, -25, -8, 4, 66, 65, -66, 2, -4, 2, -1, -10, 10, 37, 11, 88, -37, 8], "withholdReward": false, "trial_id": "mdp_trial_29", "block": "test", "trialIndex": 30, "score": 69.6, "costs": -1.4, "simulationMode": [null, null, null, null, null], "rewards": [-1, -1, 3, 4, 66], "path": ["0", "0", "12", "13", "14", "19", "20"], "rt": [3679, 457, 348, 80, 244], "actions": ["right", "right", "right", "down", "right"], "actionTimes": [5474, 6460, 7334, 7935, 8695], "queries": {"click": {"state": {"target": ["20"], "time": [2922]}, "edge": {"target": [], "time": []}}, "mouseover": {"state": {"target": ["14", "20", "20", "21"], "time": [2242, 2291, 2691, 4082]}, "edge": {"target": [], "time": []}}, "mouseout": {"state": {"target": ["14", "20", "20", "21"], "time": [2268, 2316, 3932, 14285]}, "edge": {"target": [], "time": []}}}, "displayed_time": "15.80", "trialTime": 17941, "trial_type": "mouselab-mdp", "trial_index": 37, "time_elapsed": 1248127, "internal_node_id": "0.0-6.0-1.0-28.0"}}, {"uniqueid": "w63533218:a93027990", "current_trial": 38, "dateTime": 1693565892513, "trialdata": {"revealed_states": [], "clicked_states": ["31"], "num_clicks_accrued": [0, 0, 0, 0, 0, 0, 0, 0, 0, 0, 0, 0, 0], "stateRewards": ["", -1, 3, 8, 10, -86, 61, -36, 10, 17, -60, 24, -1, -3, 3, 11, 50, 60, 33, -3, -20, 58, -6, 1, -4, -4, 13, -70, -71, 43, 14, 52, 82, -11], "withholdReward": false, "trial_id": "mdp_trial_30", "block": "test", "trialIndex": 31, "score": 57.6, "costs": -1.4, "simulationMode": [null, null, null, null, null], "rewards": [1, -4, -4, 14, 52], "path": ["0", "0", "23", "24", "25", "30", "31"], "rt": [3809, 434, 318, 230, 229], "actions": ["left", "left", "left", "down", "right"], "actionTimes": [5851, 6810, 7659, 8407, 9152], "queries": {"click": {"state": {"target": ["31"], "time": [2959]}, "edge": {"target": [], "time": []}}, "mouseover": {"state": {"target": ["0", "23", "31", "31"], "time": [2119, 2153, 2218, 2672]}, "edge": {"target": [], "time": []}}, "mouseout": {"state": {"target": ["0", "0", "23", "31", "31", "21", "20", "19", "22"], "time": [1337, 2139, 2174, 2511, 17954, 18587, 21006, 21039, 21077]}, "edge": {"target": [], "time": []}}}, "displayed_time": "16.05", "trialTime": 21555, "trial_type": "mouselab-mdp", "trial_index": 38, "time_elapsed": 1270359, "internal_node_id": "0.0-6.0-1.0-29.0"}}, {"uniqueid": "w63533218:a93027990", "current_trial": 39, "dateTime": 1693565920260, "trialdata": {"revealed_states": [], "clicked_states": ["20"], "num_clicks_accrued": [0, 0, 0, 0, 0, 0, 0, 0, 0, 0, 0, 0, 0], "stateRewards": ["", -1, -3, 1, -4, -48, -63, -49, -2, -84, -19, 65, 2, -2, -2, -12, -4, 59, 9, 6, 75, 69, -13, -1, -3, -3, -2, -37, -68, -36, 13, 32, 18, -14], "withholdReward": false, "trial_id": "mdp_trial_31", "block": "test", "trialIndex": 32, "score": 77.6, "costs": -1.4, "simulationMode": [null, null, null, null, null], "rewards": [2, -2, -2, 6, 75], "path": ["0", "0", "12", "13", "14", "19", "20"], "rt": [4009, 1019, 377, 94, 349], "actions": ["right", "right", "right", "down", "right"], "actionTimes": [9385, 10928, 11819, 12435, 13321], "queries": {"click": {"state": {"target": ["20"], "time": [6520]}, "edge": {"target": [], "time": []}}, "mouseover": {"state": {"target": ["12", "13", "20"], "time": [6042, 6067, 6139]}, "edge": {"target": [], "time": []}}, "mouseout": {"state": {"target": ["22", "0", "12", "13", "20", "22"], "time": [2988, 6020, 6055, 6090, 25606, 25658]}, "edge": {"target": [], "time": []}}}, "displayed_time": "19.38", "trialTime": 26996, "trial_type": "mouselab-mdp", "trial_index": 39, "time_elapsed": 1298105, "internal_node_id": "0.0-6.0-1.0-30.0"}}, {"uniqueid": "w63533218:a93027990", "current_trial": 40, "dateTime": 1693565946677, "trialdata": {"revealed_states": [], "clicked_states": ["31"], "num_clicks_accrued": [0, 0, 0, 0, 0, 0, 0, 0, 0, 0, 0, 0, 0], "stateRewards": ["", -2, 3, 3, -14, 62, 36, 49, 16, 11, 17, -84, 2, -1, 6, 2, -82, -73, 49, -6, -87, 48, 50, -1, -2, -1, -16, -11, 37, -44, 4, 55, 73, -10], "withholdReward": false, "trial_id": "mdp_trial_32", "block": "test", "trialIndex": 33, "score": 53.6, "costs": -1.4, "simulationMode": [null, null, null, null, null], "rewards": [-1, -2, -1, 4, 55], "path": ["0", "0", "23", "24", "25", "30", "31"], "rt": [3876, 490, 321, 147, 404], "actions": ["left", "left", "left", "down", "right"], "actionTimes": [9736, 10761, 11607, 12268, 13191], "queries": {"click": {"state": {"target": ["31"], "time": [7047]}, "edge": {"target": [], "time": []}}, "mouseover": {"state": {"target": ["23", "31"], "time": [6394, 6907]}, "edge": {"target": [], "time": []}}, "mouseout": {"state": {"target": ["0", "23"], "time": [5240, 6437]}, "edge": {"target": [], "time": []}}}, "displayed_time": "19.86", "trialTime": 25720, "trial_type": "mouselab-mdp", "trial_index": 40, "time_elapsed": 1324523, "internal_node_id": "0.0-6.0-1.0-31.0"}}, {"uniqueid": "w63533218:a93027990", "current_trial": 41, "dateTime": 1693565973795, "trialdata": {"revealed_states": [], "clicked_states": ["20"], "num_clicks_accrued": [0, 0, 0, 0, 0, 0, 0, 0, 0, 0, 0, 0, 0], "stateRewards": ["", -1, 4, 3, 12, -27, 34, -33, 3, -63, 1, 6, 2, 2, -6, -11, -77, -85, 68, -6, 51, 81, -60, -2, -2, 1, 15, 20, 15, 68, -10, -14, 6, -4], "withholdReward": false, "trial_id": "mdp_trial_33", "block": "test", "trialIndex": 34, "score": 41.6, "costs": -1.4, "simulationMode": [null, null, null, null, null], "rewards": [2, 2, -6, -6, 51], "path": ["0", "0", "12", "13", "14", "19", "20"], "rt": [4807, 514, 379, 146, 329], "actions": ["right", "right", "right", "down", "right"], "actionTimes": [9951, 10986, 11878, 12543, 13392], "queries": {"click": {"state": {"target": ["20"], "time": [6619]}, "edge": {"target": [], "time": []}}, "mouseover": {"state": {"target": ["22", "20"], "time": [5629, 6282]}, "edge": {"target": [], "time": []}}, "mouseout": {"state": {"target": ["31", "12", "20", "19", "22", "0", "0", "22"], "time": [146, 1032, 3470, 3497, 3579, 3985, 5387, 5645]}, "edge": {"target": [], "time": []}}}, "displayed_time": "19.15", "trialTime": 26328, "trial_type": "mouselab-mdp", "trial_index": 41, "time_elapsed": 1351640, "internal_node_id": "0.0-6.0-1.0-32.0"}}, {"uniqueid": "w63533218:a93027990", "current_trial": 42, "dateTime": 1693565997842, "trialdata": {"revealed_states": [], "clicked_states": ["31"], "num_clicks_accrued": [0, 0, 0, 0, 0, 0, 0, 0, 0, 0, 0, 0, 0], "stateRewards": ["", 2, -1, -1, -9, -81, -30, 55, -6, 78, 25, 62, 2, 4, -1, 9, -85, 1, -19, 1, -60, 12, -34, 1, 4, -1, -13, -24, -16, -83, -8, 16, 43, 9], "withholdReward": false, "trial_id": "mdp_trial_34", "block": "test", "trialIndex": 35, "score": 10.6, "costs": -1.4, "simulationMode": [null, null, null, null, null], "rewards": [1, 4, -1, -8, 16], "path": ["0", "0", "23", "24", "25", "30", "31"], "rt": [4851, 175, 329, 143, 425], "actions": ["left", "left", "left", "down", "right"], "actionTimes": [9375, 10081, 10936, 11595, 12543], "queries": {"click": {"state": {"target": ["31"], "time": [5846]}, "edge": {"target": [], "time": []}}, "mouseover": {"state": {"target": ["0", "31", "30", "31"], "time": [5052, 5136, 5235, 5514]}, "edge": {"target": [], "time": []}}, "mouseout": {"state": {"target": ["20", "19", "13", "0", "31", "30", "31", "31", "22"], "time": [3300, 3332, 3381, 5088, 5155, 5466, 21795, 22085, 23150]}, "edge": {"target": [], "time": []}}}, "displayed_time": "18.54", "trialTime": 23356, "trial_type": "mouselab-mdp", "trial_index": 42, "time_elapsed": 1375687, "internal_node_id": "0.0-6.0-1.0-33.0"}}, {"uniqueid": "w63533218:a93027990", "current_trial": 43, "dateTime": 1693566024587, "trialdata": {"revealed_states": [], "clicked_states": ["20"], "num_clicks_accrued": [0, 0, 0, 0, 0, 0, 0, 0, 0, 0, 0, 0, 0], "stateRewards": ["", -2, 3, -5, -7, 66, 43, -60, -4, -70, -75, 4, -1, 2, 2, -13, 54, 11, -40, -1, 77, 32, 15, -2, 3, -8, -9, -35, 83, -27, 6, -74, -34, 44], "withholdReward": false, "trial_id": "mdp_trial_35", "block": "test", "trialIndex": 36, "score": 77.6, "costs": -1.4, "simulationMode": [null, null, null, null, null], "rewards": [-1, 2, 2, -1, 77], "path": ["0", "0", "12", "13", "14", "19", "20"], "rt": [4098, 327, 256, 186, 1156], "actions": ["right", "right", "right", "down", "right"], "actionTimes": [6017, 6863, 7641, 8352, 10036], "queries": {"click": {"state": {"target": ["20"], "time": [3168]}, "edge": {"target": [], "time": []}}, "mouseover": {"state": {"target": ["12", "14", "20"], "time": [2350, 2426, 2817]}, "edge": {"target": [], "time": []}}, "mouseout": {"state": {"target": ["13", "14", "14", "13", "12", "0", "12", "14", "20", "14", "19"], "time": [560, 610, 843, 877, 1195, 2334, 2366, 2444, 25411, 25677, 25771]}, "edge": {"target": [], "time": []}}}, "displayed_time": "15.92", "trialTime": 26039, "trial_type": "mouselab-mdp", "trial_index": 43, "time_elapsed": 1402432, "internal_node_id": "0.0-6.0-1.0-34.0"}}, {"uniqueid": "w63533218:a93027990", "current_trial": 44, "dateTime": 1693566046657, "trialdata": {"revealed_states": [], "clicked_states": ["31"], "num_clicks_accrued": [0, 0, 0, 0, 0, 0, 0, 0, 0, 0, 0, 0, 0], "stateRewards": ["", 1, 3, 3, -10, 52, 68, 59, 12, 7, 49, 21, -2, -3, -4, -2, -2, 63, 63, -4, 44, 43, -76, -2, -3, -6, 13, 48, 36, 12, -5, -36, -33, -11], "withholdReward": false, "trial_id": "mdp_trial_36", "block": "test", "trialIndex": 37, "score": 29.6, "costs": -1.4, "simulationMode": [null, null, null, null, null], "rewards": [-2, -3, -4, -4, 44], "path": ["0", "0", "12", "13", "14", "19", "20"], "rt": [4229, 561, 463, 100, 313], "actions": ["right", "right", "right", "down", "right"], "actionTimes": [5817, 6898, 7881, 8499, 9334], "queries": {"click": {"state": {"target": ["31"], "time": [2456]}, "edge": {"target": [], "time": []}}, "mouseover": {"state": {"target": ["31"], "time": [2290]}, "edge": {"target": [], "time": []}}, "mouseout": {"state": {"target": ["12", "23", "0", "31"], "time": [46, 854, 1764, 20853]}, "edge": {"target": [], "time": []}}}, "displayed_time": "15.59", "trialTime": 21373, "trial_type": "mouselab-mdp", "trial_index": 44, "time_elapsed": 1424502, "internal_node_id": "0.0-6.0-1.0-35.0"}}, {"uniqueid": "w63533218:a93027990", "current_trial": 45, "dateTime": 1693566072074, "trialdata": {"revealed_states": [], "clicked_states": ["31"], "num_clicks_accrued": [0, 0, 0, 0, 0, 0, 0, 0, 0, 0, 0, 0, 0], "stateRewards": ["", 1, 2, 8, -2, 23, -69, -18, -16, 54, -21, 71, -1, -4, 7, 11, 43, -6, 88, 6, -55, 72, 43, 1, -3, -2, -1, 68, -31, -54, 4, -8, 25, -2], "withholdReward": false, "trial_id": "mdp_trial_37", "block": "test", "trialIndex": 38, "score": -48.4, "costs": -1.4, "simulationMode": [null, null, null, null, null], "rewards": [-1, -4, 7, 6, -55], "path": ["0", "0", "12", "13", "14", "19", "20"], "rt": [4945, 640, 388, 257, 1074], "actions": ["right", "right", "right", "down", "right"], "actionTimes": [9347, 10517, 11428, 12200, 13798], "queries": {"click": {"state": {"target": ["31"], "time": [5660]}, "edge": {"target": [], "time": []}}, "mouseover": {"state": {"target": ["31", "31"], "time": [5040, 5446]}, "edge": {"target": [], "time": []}}, "mouseout": {"state": {"target": ["31", "0", "31", "31", "31"], "time": [3444, 4933, 5230, 22907, 23252]}, "edge": {"target": [], "time": []}}}, "displayed_time": "18.40", "trialTime": 24675, "trial_type": "mouselab-mdp", "trial_index": 45, "time_elapsed": 1449920, "internal_node_id": "0.0-6.0-1.0-36.0"}}, {"uniqueid": "w63533218:a93027990", "current_trial": 46, "dateTime": 1693566097459, "trialdata": {"revealed_states": [], "clicked_states": ["20"], "num_clicks_accrued": [0, 0, 0, 0, 0, 0, 0, 0, 0, 0, 0, 0, 0], "stateRewards": ["", -1, -3, -7, -7, -76, 30, -49, 11, -70, 56, 2, 1, 4, -3, -14, -59, -83, -25, -9, -21, -67, -73, -2, 4, 4, -9, -11, -32, 60, 9, -87, 22, -64], "withholdReward": false, "trial_id": "mdp_trial_38", "block": "test", "trialIndex": 39, "score": -96.4, "costs": -1.4, "simulationMode": [null, null, null, null, null], "rewards": [1, 4, -3, -14, -83], "path": ["0", "0", "12", "13", "14", "15", "17"], "rt": [4784, 846, 352, 221, 53], "actions": ["right", "right", "right", "up", "right"], "actionTimes": [6383, 7743, 8616, 9351, 9931], "queries": {"click": {"state": {"target": ["20"], "time": [2591]}, "edge": {"target": [], "time": []}}, "mouseover": {"state": {"target": ["12", "19", "20", "21"], "time": [2119, 2178, 2226, 3543]}, "edge": {"target": [], "time": []}}, "mouseout": {"state": {"target": ["12", "12", "19", "20", "21", "12", "2", "2", "7", "18", "14", "14", "15", "13"], "time": [950, 2156, 2194, 3512, 3565, 21678, 21767, 22043, 22472, 22522, 22607, 22996, 23087, 24244]}, "edge": {"target": [], "time": []}}}, "displayed_time": "15.60", "trialTime": 24674, "trial_type": "mouselab-mdp", "trial_index": 46, "time_elapsed": 1475304, "internal_node_id": "0.0-6.0-1.0-37.0"}}, {"uniqueid": "w63533218:a93027990", "current_trial": 47, "dateTime": 1693566122635, "trialdata": {"revealed_states": [], "clicked_states": ["17"], "num_clicks_accrued": [0, 0, 0, 0, 0, 0, 0, 0, 0, 0, 0, 0, 0], "stateRewards": ["", 2, 3, 6, -5, -74, -53, 17, -12, 46, 44, 18, -2, 4, 1, -8, 22, -23, -49, 9, -45, 55, 81, 1, -1, -7, -16, -83, -71, -45, 2, 51, 82, 61], "withholdReward": false, "trial_id": "mdp_trial_39", "block": "test", "trialIndex": 40, "score": 91.6, "costs": -1.4, "simulationMode": [null, null, null, null, null], "rewards": [-2, 4, 1, 9, 81], "path": ["0", "0", "12", "13", "14", "19", "22"], "rt": [10159, 83, 405, 501, 1276], "actions": ["right", "right", "right", "down", "left"], "actionTimes": [11714, 12312, 13257, 14277, 16069], "queries": {"click": {"state": {"target": ["17"], "time": [2701]}, "edge": {"target": [], "time": []}}, "mouseover": {"state": {"target": ["18", "15", "17", "17", "15", "15", "15", "18"], "time": [2030, 2060, 2109, 2554, 7680, 7899, 8417, 8815]}, "edge": {"target": [], "time": []}}, "mouseout": {"state": {"target": ["22", "0", "18", "15", "17", "17", "15", "15", "15", "18", "30"], "time": [650, 1984, 2046, 2092, 2158, 7667, 7722, 7933, 8745, 22800, 23153]}, "edge": {"target": [], "time": []}}}, "displayed_time": "16.59", "trialTime": 24442, "trial_type": "mouselab-mdp", "trial_index": 47, "time_elapsed": 1500479, "internal_node_id": "0.0-6.0-1.0-38.0"}}, {"uniqueid": "w63533218:a93027990", "current_trial": 48, "dateTime": 1693566148206, "trialdata": {"revealed_states": [], "clicked_states": ["33"], "num_clicks_accrued": [0, 0, 0, 0, 0, 0, 0, 0, 0, 0, 0, 0, 0], "stateRewards": ["", 1, 1, 5, 6, -29, -7, 3, -16, 9, -46, 65, -1, 4, -1, -16, -63, -77, -87, 8, 80, -50, 43, -1, -1, -5, 5, -38, -71, -62, 9, 81, -50, -52], "withholdReward": false, "trial_id": "mdp_trial_40", "block": "test", "trialIndex": 41, "score": 51.6, "costs": -1.4, "simulationMode": [null, null, null, null, null], "rewards": [-1, 4, -1, 8, 43], "path": ["0", "0", "12", "13", "14", "19", "22"], "rt": [5057, 397, 194, 32, 317], "actions": ["right", "right", "right", "down", "left"], "actionTimes": [7104, 8025, 8738, 9304, 10160], "queries": {"click": {"state": {"target": ["33"], "time": [3286]}, "edge": {"target": [], "time": []}}, "mouseover": {"state": {"target": ["31", "30", "33"], "time": [2675, 2696, 2791]}, "edge": {"target": [], "time": []}}, "mouseout": {"state": {"target": ["22", "0", "31", "30", "33"], "time": [999, 2629, 2692, 2725, 3301]}, "edge": {"target": [], "time": []}}}, "displayed_time": "16.05", "trialTime": 24759, "trial_type": "mouselab-mdp", "trial_index": 48, "time_elapsed": 1526051, "internal_node_id": "0.0-6.0-1.0-39.0"}}, {"uniqueid": "w63533218:a93027990", "current_trial": 49, "dateTime": 1693566293612, "trialdata": {"rt": 145390, "response": {"Q0": "$-2 to $2", "Q1": "$-32 to $32", "Q2": "$-88 to $88", "Q3": "The cost was always $1.4.", "Q4": "Very motivated"}, "question_order": [0, 1, 2, 3, 4], "trial_id": "final_quiz_control", "trial_type": "survey-multi-choice", "trial_index": 49, "time_elapsed": 1671459, "internal_node_id": "0.0-6.0-2.0"}}, {"uniqueid": "w63533218:a93027990", "current_trial": 50, "dateTime": 1693566587145, "trialdata": {"rt": 293520, "response": {"Q0": "I only clicked the nodes on step 5 trying to find highest amount. If i clicked on a minus nodes i would choose a different node, i mostly went for the node opposite the one i clicked, hoping it might be a positive one. ", "Q1": "yeah i think towards the end i got a little better, i stayed in one area and tried to go opposite, seemed to help me get a few more positive ones. ", "Q2": "Was really hard as just was luck to as what you got. "}, "trial_id": "self_report_control", "trial_type": "survey-text", "trial_index": 50, "time_elapsed": 1964992, "internal_node_id": "0.0-6.0-3.0"}}, {"uniqueid": "w63533218:a93027990", "current_trial": 51, "dateTime": 1693566640377, "trialdata": {"rt": 53226, "response": {"gender": "female", "age": "35", "colorblind": "0", "effort": "0"}, "trial_type": "survey-html-form", "trial_index": 51, "time_elapsed": 2018224, "internal_node_id": "0.0-6.0-4.0"}}, {"uniqueid": "w63533218:a93027990", "current_trial": 52, "dateTime": 1693566699739, "trialdata": {"rt": 59352, "response": {"Q0": "No", "Q1": "No", "Q2": "Was fun study i enjoyed it. All the best with your research."}, "trial_type": "survey-text", "trial_index": 52, "time_elapsed": 2077586, "internal_node_id": "0.0-6.0-5.0"}}, {"uniqueid": "w63533218:a93027990", "current_trial": 53, "dateTime": 1693566775230, "trialdata": {"rt": 75484, "stimulus": "<h1>Completion Code Instructions (1/2)</h1>\n<br><br><br><br>\nYou have reached the end of the experiment! The completion code consists of two parts: (1) a code with 2 characters (2) a code with 6 characters. On this page, you will receive the second part of the code. The first part of the completion code will be on the next page.\n<br><br>\nThe second part of your completion code is: <b>EWEK22</b>\n<br><br>\nPlease note this down. Then, press 'Finish HIT' in order to find the first part of your completion code. Once the data has been saved, you will receive this code either in this window or in the original browser window where you started the experiment.\n", "response": 0, "trial_type": "html-button-response", "trial_index": 53, "time_elapsed": 2153077, "internal_node_id": "0.0-6.0-6.0"}}, {"uniqueid": "w63533218:a93027990", "current_trial": 54, "dateTime": 1693566776235, "trialdata": {"success": true, "trial_type": "fullscreen", "trial_index": 54, "time_elapsed": 2154081, "internal_node_id": "0.0-7.0"}}], "questiondata": {"params": {"CODE": "C6DMOQA6", "MIN_TIME": 14, "inspectCost": 1, "startTime": "Fri Sep 01 2023 11:37:01 GMT+0100 (British Summer Time)", "bonusRate": 0.002, "variance": "1_2_4_8_44", "branching": "31123"}, "final_score": 582.4}, "eventdata": [{"eventtype": "initialized", "value": null, "timestamp": 1693564620628, "interval": 0}, {"eventtype": "window_resize", "value": [1024, 654], "timestamp": 1693564620628, "interval": 0}, {"eventtype": "window_resize", "value": [1024, 654], "timestamp": 1693564620968, "interval": 340}, {"eventtype": "window_resize", "value": [1366, 768], "timestamp": 1693564624227, "interval": 3259}, {"eventtype": "window_resize", "value": [1024, 654], "timestamp": 1693566775627, "interval": 2151400}], "useragent": "Mozilla/5.0 (Windows NT 10.0; Win64; x64) AppleWebKit/537.36 (KHTML, like Gecko) Chrome/116.0.0.0 Safari/537.36", "mode": "live", "id": "w63533218:a93027990", "status": "user data saved", "Beginhit": "2023-09-01 10:37:00.040453", "Beginexp": "2023-09-01 10:37:05.914429", "Endhit": "2023-09-01 11:12:57.725954", "psiturkStatus": 3, "browser": "<redacted>", "platform": "windows", "language": "en-US"}