{"condition": 1, "counterbalance": 0, "assignmentId": "a19407467", "workerId": "w93334271", "hitId": "h70416587", "currenttrial": 56, "bonus": 0, "data": [{"uniqueid": "w93334271:a19407467", "current_trial": 0, "dateTime": 1693579769617, "trialdata": {"success": true, "trial_type": "fullscreen", "trial_index": 0, "time_elapsed": 7250, "internal_node_id": "0.0-0.0"}}, {"uniqueid": "w93334271:a19407467", "current_trial": 1, "dateTime": 1693579788168, "trialdata": {"view_history": [{"page_index": 0, "viewing_time": 18534}], "rt": 18534, "trial_id": "exp_instructions_misaligned", "trial_type": "instructions", "trial_index": 1, "time_elapsed": 25801, "internal_node_id": "0.0-1.0"}}, {"uniqueid": "w93334271:a19407467", "current_trial": 2, "dateTime": 1693580078640, "trialdata": {"view_history": [{"page_index": 0, "viewing_time": 116586}, {"page_index": 1, "viewing_time": 95252}, {"page_index": 0, "viewing_time": 1733}, {"page_index": 1, "viewing_time": 2850}, {"page_index": 2, "viewing_time": 22984}, {"page_index": 3, "viewing_time": 51068}], "rt": 290472, "trial_id": "mouselab_instructions_1_misaligned", "trial_type": "instructions", "trial_index": 2, "time_elapsed": 316273, "internal_node_id": "0.0-2.0-1.0"}}, {"uniqueid": "w93334271:a19407467", "current_trial": 3, "dateTime": 1693580132858, "trialdata": {"revealed_states": [], "clicked_states": ["25", "14", "2", "8", "4", "30", "19", "15"], "num_clicks_accrued": [0, 0, 0, 0, 0, 0, 0, 0, 0, 0, 0, 0, 0], "stateRewards": ["", -10, -10, 10, -10, 10, 10, -10, 10, 10, -10, -10, -10, -10, 10, -10, -10, -10, -10, 10, 10, -10, 10, -10, 10, 10, -10, 10, 10, -10, -10, -10, -10, -10], "withholdReward": false, "trial_id": "practice_1", "block": "test", "trialIndex": 0, "score": -10.5, "costs": -4, "simulationMode": [null, null, null, null, null], "rewards": [-10, -10, 10, 10, -10], "path": ["0", "0", "12", "13", "14", "19", "21"], "rt": [34751, 83, 50, 0, 67], "actions": ["right", "right", "right", "down", "down"], "actionTimes": [41051, 41801, 42517, 43217, 43984], "queries": {"click": {"state": {"target": ["25", "14", "2", "8", "4", "30", "19", "15"], "time": [12467, 14800, 16217, 21450, 22867, 28784, 30867, 36817]}, "edge": {"target": [], "time": []}}, "mouseover": {"state": {"target": ["0", "23", "25", "25", "23", "12", "14", "2", "12", "8", "3", "4", "3", "10", "28", "30", "19", "13", "12", "13", "14", "13", "13", "15"], "time": [6600, 7333, 7483, 11317, 13483, 13717, 14533, 15817, 17683, 20100, 22000, 22384, 25784, 25950, 26717, 27500, 29934, 32884, 33484, 34467, 34900, 35167, 36250, 36567]}, "edge": {"target": [], "time": []}}, "mouseout": {"state": {"target": ["0", "0", "23", "25", "25", "23", "12", "14", "2", "12", "2", "8", "3", "4", "3", "10", "28", "30", "19", "13", "12", "13", "14", "13", "13", "15", "14"], "time": [6533, 7100, 7417, 10750, 13333, 13633, 13950, 15650, 17600, 17983, 18917, 21917, 22150, 25717, 25867, 26100, 27117, 29550, 32584, 33417, 33700, 34550, 35100, 35534, 36317, 38517, 48617]}, "edge": {"target": [], "time": []}}}, "displayed_time": "44.65", "trialTime": 48984, "trial_type": "mouselab-mdp", "trial_index": 3, "time_elapsed": 370491, "internal_node_id": "0.0-2.0-2.0-0.0"}}, {"uniqueid": "w93334271:a19407467", "current_trial": 4, "dateTime": 1693580186909, "trialdata": {"revealed_states": [], "clicked_states": ["25", "26", "30", "14", "15", "18", "17", "16", "13", "12", "3"], "num_clicks_accrued": [0, 0, 0, 0, 0, 0, 0, 0, 0, 0, 0, 0, 0], "stateRewards": ["", 10, 10, -10, 10, 10, -10, -10, -10, -10, -10, -10, -10, -10, 10, 10, 10, -10, -10, 10, 10, 10, -10, -10, -10, 10, -10, 10, -10, -10, -10, -10, -10, -10], "withholdReward": false, "trial_id": "practice_2", "block": "test", "trialIndex": 1, "score": 8, "costs": -5.5, "simulationMode": [null, null, null, null, null], "rewards": [-10, -10, 10, 10, 10], "path": ["0", "0", "12", "13", "14", "15", "16"], "rt": [37367, 0, 50, 0, 0], "actions": ["right", "right", "right", "up", "up"], "actionTimes": [43501, 44184, 44901, 45568, 46218], "queries": {"click": {"state": {"target": ["25", "26", "30", "14", "15", "18", "17", "16", "13", "12", "3"], "time": [8234, 11434, 13650, 17817, 20167, 22384, 24801, 26717, 31217, 33451, 37418]}, "edge": {"target": [], "time": []}}, "mouseover": {"state": {"target": ["23", "28", "25", "24", "12", "24", "26", "30", "23", "24", "31", "14", "15", "18", "17", "16", "13", "13", "12", "7", "2", "3", "2", "24", "24"], "time": [7300, 7484, 7850, 9184, 9400, 10534, 10884, 13200, 14800, 15784, 16017, 17517, 19984, 22067, 24617, 26434, 28617, 29184, 33234, 36518, 36668, 37018, 39384, 42251, 42851]}, "edge": {"target": [], "time": []}}, "mouseout": {"state": {"target": ["0", "1", "0", "23", "28", "25", "24", "12", "24", "26", "30", "23", "24", "31", "14", "15", "18", "15", "17", "16", "13", "13", "12", "7", "2", "3", "2", "24", "24", "23"], "time": [967, 1267, 6384, 7400, 7617, 9100, 9334, 9567, 10800, 13134, 14550, 15717, 15884, 16084, 18967, 21984, 24317, 24451, 26284, 28534, 29051, 33118, 33884, 36584, 36951, 39168, 39451, 42334, 42951, 48018]}, "edge": {"target": [], "time": []}}}, "displayed_time": "46.88", "trialTime": 49051, "trial_type": "mouselab-mdp", "trial_index": 4, "time_elapsed": 424542, "internal_node_id": "0.0-2.0-2.0-1.0"}}, {"uniqueid": "w93334271:a19407467", "current_trial": 5, "dateTime": 1693580222243, "trialdata": {"view_history": [{"page_index": 0, "viewing_time": 28734}, {"page_index": 1, "viewing_time": 6600}], "rt": 35334, "trial_id": "mouselab_instructions_2_misaligned", "trial_type": "instructions", "trial_index": 5, "time_elapsed": 459876, "internal_node_id": "0.0-2.0-3.0"}}, {"uniqueid": "w93334271:a19407467", "current_trial": 6, "dateTime": 1693580261327, "trialdata": {"rt": 39067, "response": {"Q0": "The cost for clicking on nodes may vary between nodes.", "Q1": "The better I perform the higher my bonus will be.", "Q2": "No, the amount of cash at each node of the web may be different each time.", "Q3": "To get the highest total score.", "Q4": "Only before moving the spider.", "Q5": "3 seconds"}, "question_order": [0, 1, 2, 3, 4, 5], "correct": {"Q0": "The cost for clicking on nodes may vary between nodes.", "Q1": "The better I perform the higher my bonus will be.", "Q2": "No, the amount of cash at each node of the web may be different each time.", "Q3": "To get the highest total score.", "Q4": "Only before moving the spider.", "Q5": "3 seconds"}, "trial_id": "mouselab_quiz_misaligned", "trial_type": "survey-multi-choice", "trial_index": 6, "time_elapsed": 498960, "internal_node_id": "0.0-2.0-4.0"}}, {"uniqueid": "w93334271:a19407467", "current_trial": 7, "dateTime": 1693580266827, "trialdata": {"rt": 5500, "response": {"Q0": "No"}, "question_order": [0], "trial_id": "repeat_check", "trial_type": "survey-multi-choice", "trial_index": 7, "time_elapsed": 504460, "internal_node_id": "0.0-4.0-0.0"}}, {"uniqueid": "w93334271:a19407467", "current_trial": 8, "dateTime": 1693580275361, "trialdata": {"rt": 8517, "stimulus": "\n<h1> Get ready to start the game! </h1>\n\nThank you for reading the instructions. Get ready start with the 40 rounds of this game.\n<br><br>\nIf you need to take a break, feel free to take one after the end of a round, before continuing to the next one.\n<br><br>\nRemember, the more money the spider gets, the bigger your bonus will be!\n<br><br>\n<div style='text-align: center;'>Press <code>space</code> to begin.</div>\n\n<br><br>\n(If, at any point, the <code>space</code> key does not take you to the next page, click once on the text and try again.)", "response": " ", "trial_id": "mdp_ready", "trial_type": "html-keyboard-response", "trial_index": 8, "time_elapsed": 512994, "internal_node_id": "0.0-6.0-0.0"}}, {"uniqueid": "w93334271:a19407467", "current_trial": 9, "dateTime": 1693580311128, "trialdata": {"revealed_states": [], "clicked_states": ["25", "26", "30", "32", "31", "33"], "num_clicks_accrued": [0, 0, 0, 0, 0, 0, 0, 0, 0, 0, 0, 0, 0], "stateRewards": ["", -2, 4, -5, -12, 85, -24, -18, -15, -78, -22, 26, -1, -1, 2, 14, -45, 52, -23, 7, -33, 24, -6, -2, -4, 5, -7, -16, 36, -39, 5, 71, -87, -23], "withholdReward": false, "trial_id": "mdp_trial_1", "block": "test", "trialIndex": 2, "score": -93.5, "costs": -10.5, "simulationMode": [null, null, null, null, null], "rewards": [-2, -4, 5, 5, -87], "path": ["0", "0", "23", "24", "25", "30", "32"], "rt": [17534, 583, 100, 0, 0], "actions": ["left", "left", "left", "down", "down"], "actionTimes": [23584, 24901, 25701, 26451, 27134], "queries": {"click": {"state": {"target": ["25", "26", "30", "32", "31", "33"], "time": [7850, 9650, 11134, 13217, 16850, 20284]}, "edge": {"target": [], "time": []}}, "mouseover": {"state": {"target": ["24", "25", "25", "26", "30", "14", "31", "32", "31", "33"], "time": [6900, 7217, 7517, 8484, 10817, 12134, 12700, 12850, 14217, 18284]}, "edge": {"target": [], "time": []}}, "mouseout": {"state": {"target": ["1", "0", "24", "25", "25", "26", "25", "30", "14", "31", "32", "31"], "time": [1150, 6833, 7133, 7300, 8334, 10517, 10734, 11284, 12367, 12767, 14050, 17850]}, "edge": {"target": [], "time": []}}}, "displayed_time": "27.80", "trialTime": 30717, "trial_type": "mouselab-mdp", "trial_index": 9, "time_elapsed": 548761, "internal_node_id": "0.0-6.0-1.0-0.0"}}, {"uniqueid": "w93334271:a19407467", "current_trial": 10, "dateTime": 1693580344779, "trialdata": {"revealed_states": [], "clicked_states": ["25", "26", "28", "27", "29"], "num_clicks_accrued": [0, 0, 0, 0, 0, 0, 0, 0, 0, 0, 0, 0, 0], "stateRewards": ["", -2, 1, -5, 2, -68, 80, 33, 10, 67, -59, 20, -1, -3, 3, 14, 74, -2, 24, -16, 63, 80, 46, -1, 4, 6, 12, 83, -38, -43, -4, 43, 14, -79], "withholdReward": false, "trial_id": "mdp_trial_2", "block": "test", "trialIndex": 3, "score": 95.05, "costs": -8.950000000000001, "simulationMode": [null, null, null, null, null], "rewards": [-1, 4, 6, 12, 83], "path": ["0", "0", "23", "24", "25", "26", "27"], "rt": [16500, 0, 217, 0, 0], "actions": ["left", "left", "left", "up", "up"], "actionTimes": [22434, 23117, 24034, 24717, 25417], "queries": {"click": {"state": {"target": ["25", "26", "28", "27", "29"], "time": [7633, 9567, 11767, 15317, 19183]}, "edge": {"target": [], "time": []}}, "mouseover": {"state": {"target": ["24", "25", "26", "30", "28", "27", "29", "26", "24"], "time": [6950, 7433, 8650, 10900, 11550, 12600, 16450, 19950, 20183]}, "edge": {"target": [], "time": []}}, "mouseout": {"state": {"target": ["33", "0", "24", "25", "26", "30", "26", "28", "27", "29", "26"], "time": [850, 6800, 7350, 8500, 10567, 11183, 11300, 12450, 16317, 19867, 20083]}, "edge": {"target": [], "time": []}}}, "displayed_time": "26.10", "trialTime": 28567, "trial_type": "mouselab-mdp", "trial_index": 10, "time_elapsed": 582412, "internal_node_id": "0.0-6.0-1.0-1.0"}}, {"uniqueid": "w93334271:a19407467", "current_trial": 11, "dateTime": 1693580375446, "trialdata": {"revealed_states": [], "clicked_states": ["25", "26", "27", "28"], "num_clicks_accrued": [0, 0, 0, 0, 0, 0, 0, 0, 0, 0, 0, 0, 0], "stateRewards": ["", 2, 4, -6, -13, -75, -81, 30, 7, 5, 59, -65, -1, -1, 7, 14, -38, 36, -41, 1, -54, -5, 64, 2, -1, 5, 6, -19, 79, 11, 16, -33, -50, 58], "withholdReward": false, "trial_id": "mdp_trial_3", "block": "test", "trialIndex": 4, "score": 84.2, "costs": -6.800000000000001, "simulationMode": [null, null, null, null, null], "rewards": [2, -1, 5, 6, 79], "path": ["0", "0", "23", "24", "25", "26", "28"], "rt": [13634, 1217, 67, 0, 0], "actions": ["left", "left", "left", "up", "right"], "actionTimes": [19317, 21251, 22001, 22684, 23384], "queries": {"click": {"state": {"target": ["25", "26", "27", "28"], "time": [7201, 9051, 10484, 15017]}, "edge": {"target": [], "time": []}}, "mouseover": {"state": {"target": ["28", "25", "26", "26", "27", "28", "25", "30", "28", "26", "29"], "time": [6401, 6684, 8201, 8517, 9834, 12101, 14051, 14201, 14817, 15567, 15884]}, "edge": {"target": [], "time": []}}, "mouseout": {"state": {"target": ["0", "28", "25", "26", "26", "27", "28", "25", "30", "28", "26"], "time": [1167, 6484, 8117, 8351, 9201, 11967, 13984, 14134, 14501, 15501, 15734]}, "edge": {"target": [], "time": []}}}, "displayed_time": "24.07", "trialTime": 25634, "trial_type": "mouselab-mdp", "trial_index": 11, "time_elapsed": 613079, "internal_node_id": "0.0-6.0-1.0-2.0"}}, {"uniqueid": "w93334271:a19407467", "current_trial": 12, "dateTime": 1693580424931, "trialdata": {"revealed_states": [], "clicked_states": ["25", "26", "30", "14", "19", "15", "18", "17", "16", "3", "8", "4", "7"], "num_clicks_accrued": [0, 0, 0, 0, 0, 0, 0, 0, 0, 0, 0, 0, 0], "stateRewards": ["", 2, 3, -1, 16, -78, -11, 46, 2, -20, 79, -67, 2, 3, 2, 11, -83, -42, -58, -11, -67, -22, 55, 2, -1, -1, -16, -83, -82, 23, -11, -29, 13, 13], "withholdReward": false, "trial_id": "mdp_trial_4", "block": "test", "trialIndex": 5, "score": 45.25, "costs": -20.75, "simulationMode": [null, null, null, null, null], "rewards": [2, 3, -1, 16, 46], "path": ["0", "0", "1", "2", "3", "4", "7"], "rt": [33184, 0, 733, 0, 0], "actions": ["up", "up", "up", "right", "down"], "actionTimes": [38768, 39434, 40851, 41518, 42185], "queries": {"click": {"state": {"target": ["25", "26", "30", "14", "19", "15", "18", "17", "16", "3", "8", "4", "7"], "time": [7000, 8784, 10784, 13067, 14467, 15701, 17584, 21467, 25001, 30334, 32168, 33568, 35184]}, "edge": {"target": [], "time": []}}, "mouseover": {"state": {"target": ["25", "25", "26", "25", "30", "13", "13", "14", "19", "15", "7", "18", "17", "16", "19", "7", "3", "8", "4", "4", "7"], "time": [6467, 6784, 8084, 10384, 10534, 12184, 12584, 12917, 14251, 15067, 16684, 17434, 21167, 22301, 29334, 29634, 30068, 31384, 33118, 33351, 34918]}, "edge": {"target": [], "time": []}}, "mouseout": {"state": {"target": ["23", "0", "25", "25", "26", "25", "30", "13", "13", "14", "19", "15", "7", "18", "17", "16", "19", "7", "3", "8", "4", "4", "8", "4", "7"], "time": [784, 5817, 6534, 7917, 9867, 10467, 11851, 12484, 12701, 14151, 14934, 16451, 16834, 18451, 22001, 28884, 29551, 29868, 31301, 32968, 33268, 34084, 34384, 34834, 36201]}, "edge": {"target": [], "time": []}}}, "displayed_time": "42.92", "trialTime": 44535, "trial_type": "mouselab-mdp", "trial_index": 12, "time_elapsed": 662564, "internal_node_id": "0.0-6.0-1.0-3.0"}}, {"uniqueid": "w93334271:a19407467", "current_trial": 13, "dateTime": 1693580460498, "trialdata": {"revealed_states": [], "clicked_states": ["3", "4", "8", "7", "25"], "num_clicks_accrued": [0, 0, 0, 0, 0, 0, 0, 0, 0, 0, 0, 0, 0], "stateRewards": ["", 2, -1, -1, 7, 11, -40, -22, -2, 69, 37, 8, -2, 4, -8, -12, -2, -72, -3, -12, 17, 63, 12, 1, 3, -7, 6, 25, 61, 61, -9, 28, -17, 27], "withholdReward": false, "trial_id": "mdp_trial_5", "block": "test", "trialIndex": 6, "score": 10.850000000000001, "costs": -7.1499999999999995, "simulationMode": [null, null, null, null, null], "rewards": [2, -1, -1, 7, 11], "path": ["0", "0", "1", "2", "3", "4", "5"], "rt": [17967, 83, 50, 33, 650], "actions": ["up", "up", "up", "right", "up"], "actionTimes": [24317, 25100, 25817, 26534, 27867], "queries": {"click": {"state": {"target": ["3", "4", "8", "7", "25"], "time": [8017, 9733, 10900, 12300, 16783]}, "edge": {"target": [], "time": []}}, "mouseover": {"state": {"target": ["0", "0", "1", "3", "4", "8", "7", "5", "26", "25", "26", "22", "13", "14"], "time": [7050, 7250, 7400, 7750, 8867, 10350, 11917, 15700, 15867, 16150, 19000, 19233, 19650, 19800]}, "edge": {"target": [], "time": []}}, "mouseout": {"state": {"target": ["31", "0", "0", "0", "1", "3", "4", "8", "7", "5", "26", "25", "26", "22", "13"], "time": [766, 1766, 7116, 7316, 7483, 8717, 10200, 11767, 13233, 15783, 16067, 18850, 19133, 19317, 19733]}, "edge": {"target": [], "time": []}}}, "displayed_time": "28.57", "trialTime": 30417, "trial_type": "mouselab-mdp", "trial_index": 13, "time_elapsed": 698131, "internal_node_id": "0.0-6.0-1.0-4.0"}}, {"uniqueid": "w93334271:a19407467", "current_trial": 14, "dateTime": 1693580487749, "trialdata": {"revealed_states": [], "clicked_states": ["25", "14", "3", "26", "29"], "num_clicks_accrued": [0, 0, 0, 0, 0, 0, 0, 0, 0, 0, 0, 0, 0], "stateRewards": ["", 1, 4, 5, 8, -55, -11, 8, 16, -37, 77, -22, -2, 3, -8, -10, 45, 87, -67, 4, 17, -33, -22, -1, -3, 7, 6, -39, -85, 75, -1, 7, -48, 45], "withholdReward": false, "trial_id": "mdp_trial_6", "block": "test", "trialIndex": 7, "score": 77.45, "costs": -6.549999999999999, "simulationMode": [null, null, null, null, null], "rewards": [-1, -3, 7, 6, 75], "path": ["0", "0", "23", "24", "25", "26", "29"], "rt": [11900, 367, 83, 17, 0], "actions": ["left", "left", "left", "up", "left"], "actionTimes": [17600, 18650, 19417, 20033, 20700], "queries": {"click": {"state": {"target": ["25", "14", "3", "26", "29"], "time": [6883, 8800, 10283, 12033, 13417]}, "edge": {"target": [], "time": []}}, "mouseover": {"state": {"target": ["23", "25", "12", "14", "7", "3", "26", "26", "29"], "time": [6400, 6600, 8050, 8483, 9433, 9883, 11517, 11717, 13200]}, "edge": {"target": [], "time": []}}, "mouseout": {"state": {"target": ["2", "0", "23", "25", "12", "14", "7", "3", "26", "26", "29"], "time": [933, 5933, 6483, 7667, 8200, 9250, 9650, 11050, 11633, 13033, 14483]}, "edge": {"target": [], "time": []}}}, "displayed_time": "21.48", "trialTime": 22234, "trial_type": "mouselab-mdp", "trial_index": 14, "time_elapsed": 725382, "internal_node_id": "0.0-6.0-1.0-5.0"}}, {"uniqueid": "w93334271:a19407467", "current_trial": 15, "dateTime": 1693580528449, "trialdata": {"revealed_states": [], "clicked_states": ["25", "14", "3", "8", "4", "26", "29", "28", "27"], "num_clicks_accrued": [0, 0, 0, 0, 0, 0, 0, 0, 0, 0, 0, 0, 0], "stateRewards": ["", -1, -2, -1, -10, -57, 73, -72, -16, 75, -14, -46, -2, -3, -7, -1, -61, -60, 76, -4, 50, 4, 14, 2, 2, -7, 12, -65, -32, 15, -8, -76, -25, -61], "withholdReward": false, "trial_id": "mdp_trial_7", "block": "test", "trialIndex": 8, "score": 10.05, "costs": -13.95, "simulationMode": [null, null, null, null, null], "rewards": [2, 2, -7, 12, 15], "path": ["0", "0", "23", "24", "25", "26", "29"], "rt": [21834, 0, 517, 0, 0], "actions": ["left", "left", "left", "up", "left"], "actionTimes": [28334, 28984, 30184, 30868, 31568], "queries": {"click": {"state": {"target": ["25", "14", "3", "8", "4", "26", "29", "28", "27"], "time": [7684, 9167, 10467, 12451, 13817, 15767, 17734, 21684, 25134]}, "edge": {"target": [], "time": []}}, "mouseover": {"state": {"target": ["0", "24", "25", "23", "14", "3", "8", "4", "10", "26", "29", "28", "27"], "time": [7134, 7284, 7434, 8084, 8517, 10234, 12134, 13517, 15217, 15367, 17584, 21451, 22751]}, "edge": {"target": [], "time": []}}, "mouseout": {"state": {"target": ["22", "0", "0", "24", "25", "23", "14", "3", "8", "4", "10", "26", "29", "26", "28"], "time": [1634, 6734, 7200, 7350, 7984, 8217, 9784, 12067, 13434, 14117, 15284, 16551, 18584, 18717, 22601]}, "edge": {"target": [], "time": []}}}, "displayed_time": "32.23", "trialTime": 35734, "trial_type": "mouselab-mdp", "trial_index": 15, "time_elapsed": 766082, "internal_node_id": "0.0-6.0-1.0-6.0"}}, {"uniqueid": "w93334271:a19407467", "current_trial": 16, "dateTime": 1693580556933, "trialdata": {"revealed_states": [], "clicked_states": ["25", "14", "3", "4", "6"], "num_clicks_accrued": [0, 0, 0, 0, 0, 0, 0, 0, 0, 0, 0, 0, 0], "stateRewards": ["", -2, -4, 6, 14, -34, 49, 36, -8, -3, 32, -4, 1, -2, 1, -8, -20, -71, -57, -7, -86, -62, -16, -2, -3, -5, 11, 23, -21, 53, 5, -5, 85, 73], "withholdReward": false, "trial_id": "mdp_trial_8", "block": "test", "trialIndex": 9, "score": 56.45, "costs": -6.549999999999999, "simulationMode": [null, null, null, null, null], "rewards": [-2, -4, 6, 14, 49], "path": ["0", "0", "1", "2", "3", "4", "6"], "rt": [11717, 0, 167, 0, 833], "actions": ["up", "up", "up", "right", "right"], "actionTimes": [17567, 18267, 19117, 19833, 21334], "queries": {"click": {"state": {"target": ["25", "14", "3", "4", "6"], "time": [7083, 8583, 10133, 11683, 13417]}, "edge": {"target": [], "time": []}}, "mouseover": {"state": {"target": ["31", "25", "23", "19", "14", "3", "4", "6", "7"], "time": [6117, 6783, 7533, 7783, 8167, 9533, 11217, 13167, 14483]}, "edge": {"target": [], "time": []}}, "mouseout": {"state": {"target": ["1", "1", "1", "31", "25", "23", "19", "14", "3", "4", "6"], "time": [null, 850, 1150, 6567, 7467, 7683, 7933, 9067, 11083, 12450, 14333]}, "edge": {"target": [], "time": []}}}, "displayed_time": "22.05", "trialTime": 23350, "trial_type": "mouselab-mdp", "trial_index": 16, "time_elapsed": 794566, "internal_node_id": "0.0-6.0-1.0-7.0"}}, {"uniqueid": "w93334271:a19407467", "current_trial": 17, "dateTime": 1693580595751, "trialdata": {"revealed_states": [], "clicked_states": ["25", "14", "3", "26", "30", "4", "6", "7", "5"], "num_clicks_accrued": [0, 0, 0, 0, 0, 0, 0, 0, 0, 0, 0, 0, 0], "stateRewards": ["", 2, 3, 3, 10, 19, -21, 6, 9, 54, 68, 16, 2, 2, -6, -8, 40, -2, -75, -2, -42, 55, 59, -1, 2, 4, -14, 11, -34, -30, -6, 61, -53, 13], "withholdReward": false, "trial_id": "mdp_trial_9", "block": "test", "trialIndex": 10, "score": 23.05, "costs": -13.95, "simulationMode": [null, null, null, null, null], "rewards": [2, 3, 3, 10, 19], "path": ["0", "0", "1", "2", "3", "4", "5"], "rt": [22584, 200, 750, 0, 33], "actions": ["up", "up", "up", "right", "up"], "actionTimes": [28484, 29451, 30868, 31551, 32251], "queries": {"click": {"state": {"target": ["25", "14", "3", "26", "30", "4", "6", "7", "5"], "time": [7084, 8867, 10317, 11867, 13567, 15517, 17084, 20567, 24051]}, "edge": {"target": [], "time": []}}, "mouseover": {"state": {"target": ["28", "26", "25", "14", "7", "3", "28", "26", "25", "30", "5", "4", "6", "7", "5", "8"], "time": [6150, 6717, 6884, 7950, 9417, 10017, 11334, 11634, 12884, 13301, 14734, 15284, 16884, 18201, 22301, 25484]}, "edge": {"target": [], "time": []}}, "mouseout": {"state": {"target": ["12", "28", "26", "25", "14", "7", "3", "28", "26", "25", "30", "5", "4", "6", "7", "5", "8"], "time": [1250, 6634, 6800, 7484, 9267, 9551, 10567, 11484, 12034, 13034, 14634, 15067, 16334, 18051, 21384, 24201, 27801]}, "edge": {"target": [], "time": []}}}, "displayed_time": "32.93", "trialTime": 33768, "trial_type": "mouselab-mdp", "trial_index": 17, "time_elapsed": 833384, "internal_node_id": "0.0-6.0-1.0-8.0"}}, {"uniqueid": "w93334271:a19407467", "current_trial": 18, "dateTime": 1693580623651, "trialdata": {"revealed_states": [], "clicked_states": ["25", "14", "3", "8", "11"], "num_clicks_accrued": [0, 0, 0, 0, 0, 0, 0, 0, 0, 0, 0, 0, 0], "stateRewards": ["", -1, 1, 8, -8, -49, 62, -78, 16, 28, -81, 78, -2, -3, -1, -4, 67, 49, -2, -13, -16, -39, 83, 1, -4, 4, -5, -20, 7, 84, 7, -32, -59, 19], "withholdReward": false, "trial_id": "mdp_trial_10", "block": "test", "trialIndex": 11, "score": 95.45, "costs": -6.549999999999999, "simulationMode": [null, null, null, null, null], "rewards": [-1, 1, 8, 16, 78], "path": ["0", "0", "1", "2", "3", "8", "11"], "rt": [11434, 167, 0, 17, 600], "actions": ["up", "up", "up", "left", "left"], "actionTimes": [16934, 17817, 18517, 19184, 20451], "queries": {"click": {"state": {"target": ["25", "14", "3", "8", "11"], "time": [6750, 8300, 9550, 11250, 12700]}, "edge": {"target": [], "time": []}}, "mouseover": {"state": {"target": ["24", "25", "13", "14", "3", "8", "11", "10", "8"], "time": [6284, 6500, 7434, 7684, 9317, 10967, 12517, 13617, 16584]}, "edge": {"target": [], "time": []}}, "mouseout": {"state": {"target": ["18", "1", "0", "24", "25", "13", "14", "3", "8", "8", "11", "10", "8"], "time": [617, 767, 6200, 6367, 6900, 7600, 8767, 10767, 12117, 12400, 13300, 16500, 16667]}, "edge": {"target": [], "time": []}}}, "displayed_time": "22.02", "trialTime": 22901, "trial_type": "mouselab-mdp", "trial_index": 18, "time_elapsed": 861268, "internal_node_id": "0.0-6.0-1.0-9.0"}}, {"uniqueid": "w93334271:a19407467", "current_trial": 19, "dateTime": 1693580656952, "trialdata": {"revealed_states": [], "clicked_states": ["25", "14", "3", "15", "18", "17", "16"], "num_clicks_accrued": [0, 0, 0, 0, 0, 0, 0, 0, 0, 0, 0, 0, 0], "stateRewards": ["", -2, 2, 5, -14, -56, 64, 84, -5, 52, 39, 85, -2, 1, 7, 8, 21, 29, -78, -9, -10, -69, 10, -2, -1, -7, 15, 72, 20, 41, -2, 52, 80, 22], "withholdReward": false, "trial_id": "mdp_trial_11", "block": "test", "trialIndex": 12, "score": 32.15, "costs": -10.85, "simulationMode": [null, null, null, null, null], "rewards": [-2, 1, 7, 8, 29], "path": ["0", "0", "12", "13", "14", "15", "17"], "rt": [17450, 433, 67, 83, 17], "actions": ["right", "right", "right", "up", "right"], "actionTimes": [23083, 24183, 24983, 25734, 26350], "queries": {"click": {"state": {"target": ["25", "14", "3", "15", "18", "17", "16"], "time": [6950, 8266, 9500, 10967, 12350, 16033, 19817]}, "edge": {"target": [], "time": []}}, "mouseover": {"state": {"target": ["25", "20", "14", "18", "3", "15", "18", "17", "17", "16"], "time": [6700, 7566, 7800, 8733, 8967, 10683, 12117, 13050, 15783, 19150]}, "edge": {"target": [], "time": []}}, "mouseout": {"state": {"target": ["16", "0", "25", "20", "14", "18", "3", "15", "18", "17", "17"], "time": [616, 5883, 7250, 7716, 8650, 8883, 10367, 12050, 12883, 13367, 16500]}, "edge": {"target": [], "time": []}}}, "displayed_time": "27.05", "trialTime": 28317, "trial_type": "mouselab-mdp", "trial_index": 19, "time_elapsed": 894585, "internal_node_id": "0.0-6.0-1.0-10.0"}}, {"uniqueid": "w93334271:a19407467", "current_trial": 20, "dateTime": 1693580687603, "trialdata": {"revealed_states": [], "clicked_states": ["25", "14", "3", "15", "19", "4", "8", "11"], "num_clicks_accrued": [0, 0, 0, 0, 0, 0, 0, 0, 0, 0, 0, 0, 0], "stateRewards": ["", 2, -4, 1, -12, -59, -53, -74, 16, -88, -66, 66, 1, -2, 8, -9, -14, 22, 25, -1, -39, 47, -14, -1, -1, -2, 1, -4, 52, -26, 15, -7, 46, 43], "withholdReward": false, "trial_id": "mdp_trial_12", "block": "test", "trialIndex": 13, "score": 69.8, "costs": -11.2, "simulationMode": [null, null, null, null, null], "rewards": [2, -4, 1, 16, 66], "path": ["0", "0", "1", "2", "3", "8", "11"], "rt": [14900, 0, 0, 633, 0], "actions": ["up", "up", "up", "left", "left"], "actionTimes": [20350, 21050, 21717, 23050, 23750], "queries": {"click": {"state": {"target": ["25", "14", "3", "15", "19", "4", "8", "11"], "time": [6750, 7983, 9167, 10600, 11867, 13183, 14483, 16133]}, "edge": {"target": [], "time": []}}, "mouseover": {"state": {"target": ["0", "24", "25", "13", "14", "3", "15", "19", "4", "8", "11", "10"], "time": [6100, 6266, 6433, 7433, 7733, 8533, 10400, 11683, 12717, 14267, 15850, 17050]}, "edge": {"target": [], "time": []}}, "mouseout": {"state": {"target": ["7", "0", "24", "25", "13", "14", "3", "15", "19", "4", "8", "11", "10"], "time": [600, 6183, 6350, 7050, 7600, 8366, 10017, 11300, 12567, 13950, 15783, 16900, 19783]}, "edge": {"target": [], "time": []}}}, "displayed_time": "24.42", "trialTime": 25567, "trial_type": "mouselab-mdp", "trial_index": 20, "time_elapsed": 925236, "internal_node_id": "0.0-6.0-1.0-11.0"}}, {"uniqueid": "w93334271:a19407467", "current_trial": 21, "dateTime": 1693580715836, "trialdata": {"revealed_states": [], "clicked_states": ["25", "14", "3", "26", "29"], "num_clicks_accrued": [0, 0, 0, 0, 0, 0, 0, 0, 0, 0, 0, 0, 0], "stateRewards": ["", 1, -1, -7, -7, -22, 15, -13, 13, 26, -32, 38, -1, 1, -7, -4, 16, -62, 86, 12, -54, 56, 64, -2, -1, 6, 14, -57, 37, 62, -6, -25, 50, -70], "withholdReward": false, "trial_id": "mdp_trial_13", "block": "test", "trialIndex": 14, "score": 72.45, "costs": -6.549999999999999, "simulationMode": [null, null, null, null, null], "rewards": [-2, -1, 6, 14, 62], "path": ["0", "0", "23", "24", "25", "26", "29"], "rt": [10867, 483, 17, 17, 0], "actions": ["left", "left", "left", "up", "left"], "actionTimes": [17167, 18350, 19133, 19833, 20517], "queries": {"click": {"state": {"target": ["25", "14", "3", "26", "29"], "time": [7566, 8800, 10050, 11366, 12917]}, "edge": {"target": [], "time": []}}, "mouseover": {"state": {"target": ["24", "25", "0", "14", "7", "3", "26", "29", "28"], "time": [7200, 7350, 7950, 8250, 9266, 9583, 11133, 12767, 14967]}, "edge": {"target": [], "time": []}}, "mouseout": {"state": {"target": ["1", "12", "0", "0", "24", "25", "0", "14", "7", "3", "26", "26", "29", "28"], "time": [1200, 1316, 1500, 7116, 7283, 7883, 8116, 9183, 9433, 10750, 12283, 12600, 14817, 16567]}, "edge": {"target": [], "time": []}}}, "displayed_time": "22.22", "trialTime": 23183, "trial_type": "mouselab-mdp", "trial_index": 21, "time_elapsed": 953469, "internal_node_id": "0.0-6.0-1.0-12.0"}}, {"uniqueid": "w93334271:a19407467", "current_trial": 22, "dateTime": 1693580758954, "trialdata": {"revealed_states": [], "clicked_states": ["25", "14", "3", "15", "17", "16", "18", "19", "22", "20"], "num_clicks_accrued": [0, 0, 0, 0, 0, 0, 0, 0, 0, 0, 0, 0, 0], "stateRewards": ["", -2, -1, -1, 5, -54, -87, 35, 2, -8, 20, -22, 1, 3, 6, 13, -75, -32, -55, -3, 56, 62, -22, -1, -4, -1, -7, -51, 84, 70, 7, -15, 5, 55], "withholdReward": false, "trial_id": "mdp_trial_14", "block": "test", "trialIndex": 15, "score": 46.3, "costs": -16.7, "simulationMode": [null, null, null, null, null], "rewards": [1, 3, 6, -3, 56], "path": ["0", "0", "12", "13", "14", "19", "20"], "rt": [27334, 467, 0, 0, 0], "actions": ["right", "right", "right", "down", "right"], "actionTimes": [33017, 34168, 34851, 35534, 36218], "queries": {"click": {"state": {"target": ["25", "14", "3", "15", "17", "16", "18", "19", "22", "20"], "time": [6867, 8117, 9350, 10600, 11984, 15817, 19451, 22951, 25134, 29017]}, "edge": {"target": [], "time": []}}, "mouseover": {"state": {"target": ["23", "25", "13", "14", "3", "15", "17", "16", "18", "14", "19", "13", "22", "20"], "time": [6334, 6634, 7334, 7650, 8734, 10284, 11817, 15634, 18567, 21484, 21851, 24267, 24834, 28751]}, "edge": {"target": [], "time": []}}, "mouseout": {"state": {"target": ["0", "23", "25", "13", "14", "3", "15", "17", "16", "18", "18", "14", "19", "13", "22", "20"], "time": [5934, 6417, 7017, 7567, 8500, 9884, 11667, 12367, 15967, 19584, 21417, 21701, 23101, 24351, 25817, 30284]}, "edge": {"target": [], "time": []}}}, "displayed_time": "36.88", "trialTime": 38151, "trial_type": "mouselab-mdp", "trial_index": 22, "time_elapsed": 996587, "internal_node_id": "0.0-6.0-1.0-13.0"}}, {"uniqueid": "w93334271:a19407467", "current_trial": 23, "dateTime": 1693580793538, "trialdata": {"revealed_states": [], "clicked_states": ["25", "3", "14", "26", "30", "8", "4", "15", "19", "29"], "num_clicks_accrued": [0, 0, 0, 0, 0, 0, 0, 0, 0, 0, 0, 0, 0], "stateRewards": ["", 1, 2, -6, -13, -51, 22, -4, -12, -44, -12, 6, -2, -2, -2, -14, -46, -4, -77, -2, 36, -79, 41, 2, -4, 2, -6, -55, 59, 70, -5, 39, -19, 24], "withholdReward": false, "trial_id": "mdp_trial_15", "block": "test", "trialIndex": 16, "score": 49.7, "costs": -14.3, "simulationMode": [null, null, null, null, null], "rewards": [2, -4, 2, -6, 70], "path": ["0", "0", "23", "24", "25", "26", "29"], "rt": [18484, 367, 0, 0, 617], "actions": ["left", "left", "left", "up", "left"], "actionTimes": [24067, 25167, 25867, 26550, 27817], "queries": {"click": {"state": {"target": ["25", "3", "14", "26", "30", "8", "4", "15", "19", "29"], "time": [7050, 8650, 9900, 11383, 12617, 14383, 15667, 16967, 18250, 20033]}, "edge": {"target": [], "time": []}}, "mouseover": {"state": {"target": ["25", "2", "10", "3", "14", "28", "26", "30", "8", "3", "4", "15", "14", "19", "23", "26", "29", "26", "28"], "time": [6750, 7667, 8067, 8367, 9667, 10850, 11150, 12383, 13550, 15217, 15433, 16583, 17783, 18100, 19300, 19600, 19750, 20867, 21100]}, "edge": {"target": [], "time": []}}, "mouseout": {"state": {"target": ["0", "25", "2", "10", "3", "14", "28", "26", "30", "8", "3", "4", "15", "14", "19", "23", "26", "29", "26", "28"], "time": [6300, 7433, 7967, 8217, 9033, 10300, 11000, 12150, 12767, 15133, 15367, 16433, 17717, 17950, 18533, 19450, 19683, 20783, 21000, 22233]}, "edge": {"target": [], "time": []}}}, "displayed_time": "28.50", "trialTime": 29517, "trial_type": "mouselab-mdp", "trial_index": 23, "time_elapsed": 1031171, "internal_node_id": "0.0-6.0-1.0-14.0"}}, {"uniqueid": "w93334271:a19407467", "current_trial": 24, "dateTime": 1693580828072, "trialdata": {"revealed_states": [], "clicked_states": ["25", "14", "3", "26", "27", "29", "28", "30"], "num_clicks_accrued": [0, 0, 0, 0, 0, 0, 0, 0, 0, 0, 0, 0, 0], "stateRewards": ["", 1, -2, -2, 10, -31, -77, 35, 9, -47, 8, 48, -2, 1, -4, -3, -26, -50, 43, -11, 76, -38, 17, 1, -1, 6, 10, 15, -9, 12, -8, 85, 11, -55], "withholdReward": false, "trial_id": "mdp_trial_16", "block": "test", "trialIndex": 17, "score": 18.6, "costs": -12.4, "simulationMode": [null, null, null, null, null], "rewards": [1, -1, 6, 10, 15], "path": ["0", "0", "23", "24", "25", "26", "27"], "rt": [19000, 0, 0, 0, 800], "actions": ["left", "left", "left", "up", "up"], "actionTimes": [24484, 25184, 25934, 26617, 28084], "queries": {"click": {"state": {"target": ["25", "14", "3", "26", "27", "29", "28", "30"], "time": [6817, 8233, 9333, 10650, 12583, 16200, 19650, 23134]}, "edge": {"target": [], "time": []}}, "mouseover": {"state": {"target": ["24", "25", "13", "14", "3", "10", "26", "25", "30", "27", "29", "26", "28", "30"], "time": [6400, 6567, 7600, 7900, 8950, 10100, 10433, 11567, 11800, 12167, 13433, 16667, 16900, 21183]}, "edge": {"target": [], "time": []}}, "mouseout": {"state": {"target": ["21", "0", "24", "25", "13", "14", "3", "10", "26", "25", "30", "26", "27", "29", "26", "28"], "time": [566, 5733, 6467, 7217, 7750, 8550, 10033, 10283, 11500, 11733, 11950, 12033, 13033, 16600, 16817, 20717]}, "edge": {"target": [], "time": []}}}, "displayed_time": "28.78", "trialTime": 29467, "trial_type": "mouselab-mdp", "trial_index": 24, "time_elapsed": 1065705, "internal_node_id": "0.0-6.0-1.0-15.0"}}, {"uniqueid": "w93334271:a19407467", "current_trial": 25, "dateTime": 1693580869439, "trialdata": {"revealed_states": [], "clicked_states": ["25", "3", "14", "26", "30", "8", "4", "15", "19", "16", "18", "17", "29"], "num_clicks_accrued": [0, 0, 0, 0, 0, 0, 0, 0, 0, 0, 0, 0, 0], "stateRewards": ["", -1, -4, -1, -5, -28, -23, -15, -15, -38, 59, -87, 2, 2, -5, 9, -55, -39, -71, -6, 85, -85, -11, -1, -2, 5, -10, 1, 25, 41, -4, 69, -35, 86], "withholdReward": false, "trial_id": "mdp_trial_17", "block": "test", "trialIndex": 18, "score": 12.250000000000004, "costs": -20.749999999999996, "simulationMode": [null, null, null, null, null], "rewards": [-1, -2, 5, -10, 41], "path": ["0", "0", "23", "24", "25", "26", "29"], "rt": [27001, 0, 0, 0, 0], "actions": ["left", "left", "left", "up", "left"], "actionTimes": [32451, 33117, 33784, 34451, 35117], "queries": {"click": {"state": {"target": ["25", "3", "14", "26", "30", "8", "4", "15", "19", "16", "18", "17", "29"], "time": [6617, 8184, 9284, 10584, 11750, 13300, 14367, 15750, 16884, 18100, 21751, 25134, 28601]}, "edge": {"target": [], "time": []}}, "mouseover": {"state": {"target": ["25", "2", "3", "14", "26", "25", "30", "28", "2", "8", "4", "15", "14", "19", "16", "18", "17", "17", "27", "29"], "time": [6350, 7717, 8017, 9034, 10367, 11217, 11600, 12584, 12834, 13134, 14150, 15534, 16200, 16417, 17884, 20350, 22351, 23684, 25801, 26251]}, "edge": {"target": [], "time": []}}, "mouseout": {"state": {"target": ["0", "25", "2", "3", "14", "26", "25", "30", "28", "2", "8", "4", "15", "14", "19", "15", "16", "18", "17", "17", "27", "29"], "time": [5667, 7467, 7867, 8667, 9817, 11134, 11367, 12067, 12750, 12984, 13834, 15150, 16134, 16350, 17334, 17484, 19084, 22201, 22501, 25651, 26101, 29267]}, "edge": {"target": [], "time": []}}}, "displayed_time": "35.78", "trialTime": 36417, "trial_type": "mouselab-mdp", "trial_index": 25, "time_elapsed": 1107072, "internal_node_id": "0.0-6.0-1.0-16.0"}}, {"uniqueid": "w93334271:a19407467", "current_trial": 26, "dateTime": 1693580912290, "trialdata": {"revealed_states": [], "clicked_states": ["25", "3", "14", "26", "30", "8", "4", "29", "28", "27", "10"], "num_clicks_accrued": [0, 0, 0, 0, 0, 0, 0, 0, 0, 0, 0, 0, 0], "stateRewards": ["", -1, 4, -6, -5, -22, -38, -38, -2, -56, 88, 14, -1, -1, -7, -6, 61, -60, 21, 11, 57, 31, -30, -2, -2, 6, -9, -44, -70, -44, -15, 34, 16, -78], "withholdReward": false, "trial_id": "mdp_trial_18", "block": "test", "trialIndex": 19, "score": 65.35, "costs": -17.65, "simulationMode": [null, null, null, null, null], "rewards": [-1, 4, -6, -2, 88], "path": ["0", "0", "1", "2", "3", "8", "10"], "rt": [27284, 0, 0, 533, 0], "actions": ["up", "up", "up", "left", "down"], "actionTimes": [32734, 33418, 34101, 35301, 35984], "queries": {"click": {"state": {"target": ["25", "3", "14", "26", "30", "8", "4", "29", "28", "27", "10"], "time": [6500, 7900, 9217, 10450, 11850, 13684, 14834, 18117, 21801, 25217, 28701]}, "edge": {"target": [], "time": []}}, "mouseover": {"state": {"target": ["23", "25", "3", "14", "28", "26", "25", "30", "8", "3", "4", "1", "28", "29", "28", "27", "10", "11"], "time": [5784, 6200, 7367, 8600, 9900, 10217, 11300, 11634, 13367, 14317, 14601, 16584, 16717, 17101, 18884, 22934, 26934, 31368]}, "edge": {"target": [], "time": []}}, "mouseout": {"state": {"target": ["0", "23", "25", "3", "14", "28", "26", "25", "30", "8", "3", "4", "1", "28", "29", "28", "27", "10", "11"], "time": [934, 6050, 6800, 8200, 9684, 10067, 11217, 11484, 12617, 14217, 14451, 16151, 16651, 16901, 18734, 22784, 26784, 31301, 32284]}, "edge": {"target": [], "time": []}}}, "displayed_time": "36.65", "trialTime": 37884, "trial_type": "mouselab-mdp", "trial_index": 26, "time_elapsed": 1149923, "internal_node_id": "0.0-6.0-1.0-17.0"}}, {"uniqueid": "w93334271:a19407467", "current_trial": 27, "dateTime": 1693580962841, "trialdata": {"revealed_states": [], "clicked_states": ["25", "14", "3", "26", "29", "30", "28", "27", "19", "15", "18", "17", "16"], "num_clicks_accrued": [0, 0, 0, 0, 0, 0, 0, 0, 0, 0, 0, 0, 0], "stateRewards": ["", -2, -2, -7, -13, -10, 49, -68, -1, 84, 70, 88, 1, 4, 4, 12, -57, 25, 30, 8, -1, -77, 57, 2, 3, 2, 3, -18, -80, 23, -15, -41, 70, 11], "withholdReward": false, "trial_id": "mdp_trial_19", "block": "test", "trialIndex": 20, "score": 24.05, "costs": -21.95, "simulationMode": [null, null, null, null, null], "rewards": [1, 4, 4, 12, 25], "path": ["0", "0", "12", "13", "14", "15", "17"], "rt": [35734, 183, 0, 0, 0], "actions": ["right", "right", "right", "up", "right"], "actionTimes": [41201, 42067, 42734, 43401, 44067], "queries": {"click": {"state": {"target": ["25", "14", "3", "26", "29", "30", "28", "27", "19", "15", "18", "17", "16"], "time": [6583, 7917, 8933, 10350, 11900, 15850, 17700, 21184, 24617, 27934, 29484, 33617, 37751]}, "edge": {"target": [], "time": []}}, "mouseover": {"state": {"target": ["24", "25", "14", "3", "26", "25", "29", "30", "26", "28", "27", "1", "13", "14", "19", "15", "14", "15", "18", "17", "16"], "time": [6017, 6333, 7683, 8550, 10017, 11433, 11683, 13700, 16833, 17467, 18467, 22467, 22834, 23150, 23667, 25367, 27334, 27700, 29300, 30967, 34884]}, "edge": {"target": [], "time": []}}, "mouseout": {"state": {"target": ["24", "25", "14", "3", "26", "25", "29", "30", "26", "28", "27", "1", "13", "14", "19", "15", "19", "19", "14", "15", "18", "15", "17"], "time": [6100, 7283, 8233, 9700, 11283, 11517, 12983, 16767, 17000, 18233, 22317, 22684, 23067, 23534, 24984, 26900, 27000, 27267, 27417, 29150, 30517, 30900, 34650]}, "edge": {"target": [], "time": []}}}, "displayed_time": "44.72", "trialTime": 45567, "trial_type": "mouselab-mdp", "trial_index": 27, "time_elapsed": 1200474, "internal_node_id": "0.0-6.0-1.0-18.0"}}, {"uniqueid": "w93334271:a19407467", "current_trial": 28, "dateTime": 1693581017826, "trialdata": {"revealed_states": [], "clicked_states": ["25", "3", "14", "8", "4", "10", "11", "9", "26", "30", "31", "32", "33", "19", "15", "18"], "num_clicks_accrued": [0, 0, 0, 0, 0, 0, 0, 0, 0, 0, 0, 0, 0], "stateRewards": ["", -1, -2, 8, -6, -79, -6, 87, 9, -5, -66, -38, 2, 2, 5, -6, -82, 74, 85, -8, 67, -30, -15, 1, -2, -2, -2, 87, 64, 49, 7, 2, -38, -9], "withholdReward": false, "trial_id": "mdp_trial_20", "block": "test", "trialIndex": 21, "score": 60.8, "costs": -27.2, "simulationMode": [null, null, null, null, null], "rewards": [2, 2, 5, -6, 85], "path": ["0", "0", "12", "13", "14", "15", "18"], "rt": [39184, 367, 0, 0, 17], "actions": ["right", "right", "right", "up", "left"], "actionTimes": [44851, 45884, 46568, 47251, 47918], "queries": {"click": {"state": {"target": ["25", "3", "14", "8", "4", "10", "11", "9", "26", "30", "31", "32", "33", "19", "15", "18"], "time": [6950, 8050, 9234, 10567, 11750, 13067, 16617, 20001, 24401, 26184, 27851, 31301, 34751, 38118, 39384, 40651]}, "edge": {"target": [], "time": []}}, "mouseover": {"state": {"target": ["24", "25", "28", "3", "18", "14", "8", "4", "10", "11", "9", "26", "25", "30", "31", "32", "33", "19", "14", "15", "18", "16"], "time": [6450, 6734, 7350, 7667, 8517, 9000, 10334, 11200, 12817, 13884, 17400, 24051, 25817, 25967, 27667, 28917, 32351, 35351, 38801, 39034, 40501, 42368]}, "edge": {"target": [], "time": []}}, "mouseout": {"state": {"target": ["4", "2", "0", "24", "25", "28", "3", "18", "14", "8", "4", "10", "11", "9", "26", "25", "30", "30", "31", "32", "33", "19", "14", "15", "18", "16"], "time": [367, 700, 5917, 6584, 7267, 7517, 8450, 8684, 9534, 11034, 12134, 13367, 17234, 23684, 25734, 25901, 27017, 27584, 28767, 32201, 35201, 38268, 38951, 40351, 41768, 44368]}, "edge": {"target": [], "time": []}}}, "displayed_time": "48.58", "trialTime": 49951, "trial_type": "mouselab-mdp", "trial_index": 28, "time_elapsed": 1255459, "internal_node_id": "0.0-6.0-1.0-19.0"}}, {"uniqueid": "w93334271:a19407467", "current_trial": 29, "dateTime": 1693581054477, "trialdata": {"revealed_states": [], "clicked_states": ["28", "27", "29", "33", "32", "31"], "num_clicks_accrued": [0, 0, 0, 0, 0, 0, 0, 0, 0, 0, 0, 0, 0], "stateRewards": ["", 2, 1, -3, 7, 46, 11, -36, 16, 71, 5, 1, 2, -2, -8, -3, -4, 6, 55, 7, 68, -54, 2, 1, 1, 6, -6, 42, -4, -84, -11, -65, 63, 25], "withholdReward": false, "trial_id": "mdp_trial_21", "block": "test", "trialIndex": 22, "score": 47.1, "costs": -12.9, "simulationMode": [null, null, null, null, null], "rewards": [1, 1, 6, -11, 63], "path": ["0", "0", "23", "24", "25", "30", "32"], "rt": [21100, 100, 17, 0, 517], "actions": ["left", "left", "left", "down", "down"], "actionTimes": [26567, 27384, 28117, 28817, 30017], "queries": {"click": {"state": {"target": ["28", "27", "29", "33", "32", "31"], "time": [6684, 10250, 13500, 16851, 19917, 23367]}, "edge": {"target": [], "time": []}}, "mouseover": {"state": {"target": ["28", "27", "29", "30", "33", "32", "31"], "time": [6167, 7084, 10950, 14284, 14751, 17467, 21067]}, "edge": {"target": [], "time": []}}, "mouseout": {"state": {"target": ["18", "1", "0", "28", "27", "29", "30", "33", "32"], "time": [300, 734, 6067, 7000, 10634, 14134, 14600, 17317, 20884]}, "edge": {"target": [], "time": []}}}, "displayed_time": "30.75", "trialTime": 31568, "trial_type": "mouselab-mdp", "trial_index": 29, "time_elapsed": 1292110, "internal_node_id": "0.0-6.0-1.0-20.0"}}, {"uniqueid": "w93334271:a19407467", "current_trial": 30, "dateTime": 1693581083494, "trialdata": {"revealed_states": [], "clicked_states": ["32", "21", "16"], "num_clicks_accrued": [0, 0, 0, 0, 0, 0, 0, 0, 0, 0, 0, 0, 0], "stateRewards": ["", -1, 2, 7, 8, 75, 67, -11, 6, 52, -17, 38, -1, 4, -8, 14, 74, -37, -17, -12, 52, 55, 71, -2, -1, -5, 2, 21, 6, -88, -14, 64, -61, -47], "withholdReward": false, "trial_id": "mdp_trial_22", "block": "test", "trialIndex": 23, "score": 76.55, "costs": -6.449999999999999, "simulationMode": [null, null, null, null, null], "rewards": [-1, 4, -8, 14, 74], "path": ["0", "0", "12", "13", "14", "15", "16"], "rt": [13084, 0, 650, 0, 17], "actions": ["right", "right", "right", "up", "up"], "actionTimes": [18833, 19550, 20917, 21650, 22350], "queries": {"click": {"state": {"target": ["32", "21", "16"], "time": [7250, 10950, 14700]}, "edge": {"target": [], "time": []}}, "mouseover": {"state": {"target": ["31", "32", "21", "16", "27"], "time": [6483, 7066, 8283, 11800, 15883]}, "edge": {"target": [], "time": []}}, "mouseout": {"state": {"target": ["7", "31", "32", "21", "16"], "time": [716, 6816, 7966, 11633, 15100]}, "edge": {"target": [], "time": []}}}, "displayed_time": "23.05", "trialTime": 23967, "trial_type": "mouselab-mdp", "trial_index": 30, "time_elapsed": 1321127, "internal_node_id": "0.0-6.0-1.0-21.0"}}, {"uniqueid": "w93334271:a19407467", "current_trial": 31, "dateTime": 1693581111378, "trialdata": {"revealed_states": [], "clicked_states": ["11", "6"], "num_clicks_accrued": [0, 0, 0, 0, 0, 0, 0, 0, 0, 0, 0, 0, 0], "stateRewards": ["", -1, -1, 4, -16, -75, 81, -51, -7, -84, 73, -30, -2, 1, -3, -16, -77, 33, 14, 1, 45, 87, -66, 2, 2, -5, -7, -19, -17, 79, -3, 8, 49, 47], "withholdReward": false, "trial_id": "mdp_trial_23", "block": "test", "trialIndex": 24, "score": 62.7, "costs": -4.3, "simulationMode": [null, null, null, null, null], "rewards": [-1, -1, 4, -16, 81], "path": ["0", "0", "1", "2", "3", "4", "6"], "rt": [9017, 483, 0, 0, 0], "actions": ["up", "up", "up", "right", "right"], "actionTimes": [14800, 16017, 16817, 17534, 18250], "queries": {"click": {"state": {"target": ["11", "6"], "time": [6933, 10583]}, "edge": {"target": [], "time": []}}, "mouseover": {"state": {"target": ["11", "6", "2", "10", "2"], "time": [6617, 7950, 11467, 11767, 14400]}, "edge": {"target": [], "time": []}}, "mouseout": {"state": {"target": ["7", "3", "9", "12", "0", "11", "6", "2", "10", "2", "16"], "time": [117, 183, 633, 1117, 1317, 7400, 11283, 11600, 14333, 21284, 21667]}, "edge": {"target": [], "time": []}}}, "displayed_time": "21.95", "trialTime": 22834, "trial_type": "mouselab-mdp", "trial_index": 31, "time_elapsed": 1349011, "internal_node_id": "0.0-6.0-1.0-22.0"}}, {"uniqueid": "w93334271:a19407467", "current_trial": 32, "dateTime": 1693581191313, "trialdata": {"revealed_states": [], "clicked_states": ["9", "7", "5", "10", "11", "6", "27", "32", "29", "33", "31", "28", "18", "22", "20", "21", "17", "16"], "num_clicks_accrued": [0, 0, 0, 0, 0, 0, 0, 0, 0, 0, 0, 0, 0], "stateRewards": ["", 1, 4, -8, -5, -15, -7, 21, 13, -30, 40, -65, 1, 1, 5, -14, 35, 27, -38, -11, 36, -58, -47, -2, 4, -3, 13, -16, -49, 22, 15, -56, -44, -10], "withholdReward": false, "trial_id": "mdp_trial_24", "block": "test", "trialIndex": 25, "score": 11.300000000000011, "costs": -38.69999999999999, "simulationMode": [null, null, null, null, null], "rewards": [1, 4, -8, 13, 40], "path": ["0", "0", "1", "2", "3", "8", "10"], "rt": [64335, 400, 0, 0, 17], "actions": ["up", "up", "up", "left", "down"], "actionTimes": [70018, 71068, 71735, 72385, 73052], "queries": {"click": {"state": {"target": ["9", "7", "5", "10", "11", "6", "27", "32", "29", "33", "31", "28", "18", "22", "20", "21", "17", "16"], "time": [6750, 10217, 13700, 17517, 21334, 24651, 28001, 31351, 34817, 38284, 41718, 45018, 48501, 51934, 55201, 58951, 62651, 66601]}, "edge": {"target": [], "time": []}}, "mouseover": {"state": {"target": ["9", "3", "7", "5", "5", "16", "10", "11", "11", "8", "6", "26", "27", "26", "25", "30", "32", "29", "33", "30", "31", "24", "28", "18", "13", "22", "20", "21", "17", "17", "16"], "time": [6517, 7384, 7684, 10984, 11550, 15500, 17334, 19234, 19567, 21951, 22651, 25817, 26201, 28767, 29317, 29851, 30234, 34051, 36134, 39051, 39268, 42468, 42751, 45934, 49484, 50084, 53268, 57468, 59535, 61868, 63468]}, "edge": {"target": [], "time": []}}, "mouseout": {"state": {"target": ["16", "1", "0", "9", "3", "7", "5", "5", "16", "7", "10", "11", "11", "8", "6", "26", "27", "26", "25", "30", "32", "29", "33", "30", "31", "24", "28", "18", "13", "22", "20", "21", "17", "17", "16"], "time": [600, 1017, 5934, 7300, 7550, 10917, 11150, 13850, 15900, 16217, 19084, 19400, 21867, 22117, 25651, 25967, 28617, 29167, 29551, 30017, 33584, 35667, 38968, 39184, 42401, 42618, 45468, 49334, 49784, 52084, 56001, 59385, 61585, 63101, 74435]}, "edge": {"target": [], "time": []}}}, "displayed_time": "73.69", "trialTime": 74935, "trial_type": "mouselab-mdp", "trial_index": 32, "time_elapsed": 1428946, "internal_node_id": "0.0-6.0-1.0-23.0"}}, {"uniqueid": "w93334271:a19407467", "current_trial": 33, "dateTime": 1693581219480, "trialdata": {"revealed_states": [], "clicked_states": ["27", "21", "18"], "num_clicks_accrued": [0, 0, 0, 0, 0, 0, 0, 0, 0, 0, 0, 0, 0], "stateRewards": ["", 2, -1, 3, -12, -83, 6, -33, 9, 28, 24, -50, -2, -1, -2, -5, -87, 37, 82, 12, 80, -5, 10, -2, -3, -6, 9, 22, -1, 16, 9, 77, -62, 58], "withholdReward": false, "trial_id": "mdp_trial_25", "block": "test", "trialIndex": 26, "score": 65.55, "costs": -6.449999999999999, "simulationMode": [null, null, null, null, null], "rewards": [-2, -1, -2, -5, 82], "path": ["0", "0", "12", "13", "14", "15", "18"], "rt": [12950, 0, 0, 0, 0], "actions": ["right", "right", "right", "up", "left"], "actionTimes": [18767, 19484, 20167, 20884, 21550], "queries": {"click": {"state": {"target": ["27", "21", "18"], "time": [6800, 10667, 14400]}, "edge": {"target": [], "time": []}}, "mouseover": {"state": {"target": ["27", "20", "21", "16", "18", "5"], "time": [6600, 8267, 8667, 13467, 14134, 16100]}, "edge": {"target": [], "time": []}}, "mouseout": {"state": {"target": ["8", "12", "0", "27", "20", "21", "16", "18", "5"], "time": [567, 1000, 6050, 7950, 8434, 11517, 13984, 14550, 17984]}, "edge": {"target": [], "time": []}}}, "displayed_time": "22.57", "trialTime": 23184, "trial_type": "mouselab-mdp", "trial_index": 33, "time_elapsed": 1457113, "internal_node_id": "0.0-6.0-1.0-24.0"}}, {"uniqueid": "w93334271:a19407467", "current_trial": 34, "dateTime": 1693581246930, "trialdata": {"revealed_states": [], "clicked_states": ["29", "17"], "num_clicks_accrued": [0, 0, 0, 0, 0, 0, 0, 0, 0, 0, 0, 0, 0], "stateRewards": ["", 1, -1, 8, 4, 76, -33, -17, -3, -1, -54, -74, -2, 2, -5, 13, -51, 63, 83, 1, 84, 29, -36, 2, -1, 7, -12, -10, -44, -43, -14, 8, -69, 19], "withholdReward": false, "trial_id": "mdp_trial_26", "block": "test", "trialIndex": 27, "score": 66.7, "costs": -4.3, "simulationMode": [null, null, null, null, null], "rewards": [-2, 2, -5, 13, 63], "path": ["0", "0", "12", "13", "14", "15", "17"], "rt": [10400, 483, 0, 0, 0], "actions": ["right", "right", "right", "up", "right"], "actionTimes": [16017, 17200, 17900, 18633, 19400], "queries": {"click": {"state": {"target": ["29", "17"], "time": [7566, 11216]}, "edge": {"target": [], "time": []}}, "mouseover": {"state": {"target": ["28", "26", "25", "29", "17", "17", "22"], "time": [5916, 6366, 6850, 7383, 8666, 8966, 12616]}, "edge": {"target": [], "time": []}}, "mouseout": {"state": {"target": ["12", "0", "28", "26", "25", "29", "17", "17", "22"], "time": [433, 5850, 6283, 6450, 7100, 8033, 8816, 11916, 15017]}, "edge": {"target": [], "time": []}}}, "displayed_time": "21.63", "trialTime": 22367, "trial_type": "mouselab-mdp", "trial_index": 34, "time_elapsed": 1484563, "internal_node_id": "0.0-6.0-1.0-25.0"}}, {"uniqueid": "w93334271:a19407467", "current_trial": 35, "dateTime": 1693581302981, "trialdata": {"revealed_states": [], "clicked_states": ["10", "7", "29", "20", "22", "16", "18"], "num_clicks_accrued": [0, 0, 0, 0, 0, 0, 0, 0, 0, 0, 0, 0, 0], "stateRewards": ["", -2, 2, 3, -7, 76, 63, 21, 15, 35, -8, -44, 1, 1, -2, -12, 23, 24, 76, -9, 46, 66, -49, -2, -1, 7, 12, 40, -71, -45, -6, 38, -49, 46], "withholdReward": false, "trial_id": "mdp_trial_27", "block": "test", "trialIndex": 28, "score": 48.95, "costs": -15.05, "simulationMode": [null, null, null, null, null], "rewards": [1, 1, -2, -12, 76], "path": ["0", "0", "12", "13", "14", "15", "18"], "rt": [27801, 500, 0, 0, 0], "actions": ["right", "right", "right", "up", "left"], "actionTimes": [46201, 47401, 48101, 48834, 49517], "queries": {"click": {"state": {"target": ["10", "7", "29", "20", "22", "16", "18"], "time": [19567, 23134, 26767, 30700, 34950, 38384, 42584]}, "edge": {"target": [], "time": []}}, "mouseover": {"state": {"target": ["10", "7", "2", "29", "12", "17", "20", "20", "19", "22", "16", "19", "14", "18"], "time": [19317, 20200, 24467, 25184, 27467, 27784, 30300, 30467, 33367, 33850, 37317, 41951, 42101, 42301]}, "edge": {"target": [], "time": []}}, "mouseout": {"state": {"target": ["22", "0", "10", "7", "2", "29", "12", "17", "20", "20", "19", "22", "16", "19", "14", "18"], "time": [12567, 18650, 20034, 24400, 24634, 27317, 27617, 30167, 30384, 33300, 33517, 36584, 40251, 42034, 42217, 42751]}, "edge": {"target": [], "time": []}}}, "displayed_time": "50.20", "trialTime": 50967, "trial_type": "mouselab-mdp", "trial_index": 35, "time_elapsed": 1540614, "internal_node_id": "0.0-6.0-1.0-26.0"}}, {"uniqueid": "w93334271:a19407467", "current_trial": 36, "dateTime": 1693581330549, "trialdata": {"revealed_states": [], "clicked_states": ["29", "22", "16"], "num_clicks_accrued": [0, 0, 0, 0, 0, 0, 0, 0, 0, 0, 0, 0, 0], "stateRewards": ["", 1, 4, 5, -5, 58, -80, 75, 6, 25, -39, 46, 2, -2, 4, 2, 59, 31, -22, -12, -61, 15, 72, 1, -2, -7, 8, 77, 76, -23, -7, 71, -15, -3], "withholdReward": false, "trial_id": "mdp_trial_28", "block": "test", "trialIndex": 29, "score": 57.55, "costs": -6.449999999999999, "simulationMode": [null, null, null, null, null], "rewards": [2, -2, 4, -12, 72], "path": ["0", "0", "12", "13", "14", "19", "22"], "rt": [12100, 0, 0, 533, 0], "actions": ["right", "right", "right", "down", "left"], "actionTimes": [17951, 18651, 19351, 20567, 21184], "queries": {"click": {"state": {"target": ["29", "22", "16"], "time": [7650, 11184, 14617]}, "edge": {"target": [], "time": []}}, "mouseover": {"state": {"target": ["23", "24", "26", "29", "26", "13", "22", "17", "16"], "time": [6734, 6884, 7117, 7267, 8050, 8267, 9000, 12367, 13767]}, "edge": {"target": [], "time": []}}, "mouseout": {"state": {"target": ["18", "13", "12", "23", "24", "26", "29", "26", "13", "22", "17", "16"], "time": [750, 984, 1100, 6817, 6967, 7184, 7800, 8200, 8417, 12200, 13617, 15251]}, "edge": {"target": [], "time": []}}}, "displayed_time": "21.87", "trialTime": 22601, "trial_type": "mouselab-mdp", "trial_index": 36, "time_elapsed": 1568182, "internal_node_id": "0.0-6.0-1.0-27.0"}}, {"uniqueid": "w93334271:a19407467", "current_trial": 37, "dateTime": 1693581394767, "trialdata": {"revealed_states": [], "clicked_states": ["9", "20", "16", "29", "32", "33", "6", "10", "22", "21", "7", "5", "11"], "num_clicks_accrued": [0, 0, 0, 0, 0, 0, 0, 0, 0, 0, 0, 0, 0], "stateRewards": ["", -2, 1, -7, -8, -37, -76, -87, 11, 30, -63, 80, -1, 4, 2, -1, 42, 17, 52, -3, -75, -80, -68, 2, -3, -5, -15, -48, 82, 24, -7, 5, -22, -71], "withholdReward": false, "trial_id": "mdp_trial_29", "block": "test", "trialIndex": 30, "score": 55.05000000000001, "costs": -27.949999999999992, "simulationMode": [null, null, null, null, null], "rewards": [-2, 1, -7, 11, 80], "path": ["0", "0", "1", "2", "3", "8", "11"], "rt": [48851, 0, 0, 0, 850], "actions": ["up", "up", "up", "left", "left"], "actionTimes": [54202, 54918, 55585, 56268, 57818], "queries": {"click": {"state": {"target": ["9", "20", "16", "29", "32", "33", "6", "10", "22", "21", "7", "5", "11"], "time": [6551, 10184, 13717, 17267, 20768, 24301, 27851, 31551, 35018, 38518, 42285, 46535, 49801]}, "edge": {"target": [], "time": []}}, "mouseover": {"state": {"target": ["9", "9", "3", "20", "19", "16", "26", "31", "29", "25", "30", "32", "33", "31", "5", "6", "10", "12", "22", "21", "19", "16", "7", "5", "11", "27"], "time": [6151, 6367, 7351, 7667, 10817, 12251, 14584, 15034, 15684, 18434, 18734, 19068, 23501, 25384, 26568, 27184, 31168, 33651, 33951, 37185, 39351, 41601, 41751, 46301, 47735, 51168]}, "edge": {"target": [], "time": []}}, "mouseout": {"state": {"target": ["9", "9", "3", "20", "19", "16", "26", "31", "29", "25", "30", "32", "33", "31", "5", "6", "10", "12", "22", "21", "19", "16", "7", "5", "11"], "time": [6234, 7267, 7501, 10734, 10967, 14417, 14817, 15217, 18351, 18584, 18901, 23268, 25234, 25551, 27118, 30251, 33501, 33884, 36868, 39285, 39501, 41685, 43051, 47218, 51018]}, "edge": {"target": [], "time": []}}}, "displayed_time": "58.50", "trialTime": 59152, "trial_type": "mouselab-mdp", "trial_index": 37, "time_elapsed": 1632400, "internal_node_id": "0.0-6.0-1.0-28.0"}}, {"uniqueid": "w93334271:a19407467", "current_trial": 38, "dateTime": 1693581421451, "trialdata": {"revealed_states": [], "clicked_states": ["29", "28"], "num_clicks_accrued": [0, 0, 0, 0, 0, 0, 0, 0, 0, 0, 0, 0, 0], "stateRewards": ["", 1, -4, 6, -3, 40, 76, -51, 5, -24, -63, 44, -2, -2, 8, 1, 76, -85, -58, 10, 59, 20, 11, -2, 3, -3, 3, -82, -10, 54, -7, -57, -6, -32], "withholdReward": false, "trial_id": "mdp_trial_30", "block": "test", "trialIndex": 31, "score": 50.7, "costs": -4.3, "simulationMode": [null, null, null, null, null], "rewards": [-2, 3, -3, 3, 54], "path": ["0", "0", "23", "24", "25", "26", "29"], "rt": [8283, 417, 0, 0, 0], "actions": ["left", "left", "left", "up", "left"], "actionTimes": [14050, 15183, 15917, 16633, 17333], "queries": {"click": {"state": {"target": ["29", "28"], "time": [7400, 10867]}, "edge": {"target": [], "time": []}}, "mouseover": {"state": {"target": ["23", "26", "29", "26", "28"], "time": [6483, 6650, 7100, 8433, 8650]}, "edge": {"target": [], "time": []}}, "mouseout": {"state": {"target": ["27", "0", "0", "23", "26", "29", "26", "28"], "time": [533, 616, 5983, 6567, 6717, 8267, 8583, 12050]}, "edge": {"target": [], "time": []}}}, "displayed_time": "21.12", "trialTime": 21634, "trial_type": "mouselab-mdp", "trial_index": 38, "time_elapsed": 1659084, "internal_node_id": "0.0-6.0-1.0-29.0"}}, {"uniqueid": "w93334271:a19407467", "current_trial": 39, "dateTime": 1693581450318, "trialdata": {"revealed_states": [], "clicked_states": ["29", "20", "17"], "num_clicks_accrued": [0, 0, 0, 0, 0, 0, 0, 0, 0, 0, 0, 0, 0], "stateRewards": ["", -1, 1, -1, 2, 19, 85, -18, 2, -3, -26, 36, 2, 4, 7, -9, -18, 70, 72, -5, 35, -20, -28, 1, -2, -4, -3, -59, -11, -63, -2, -72, 59, -69], "withholdReward": false, "trial_id": "mdp_trial_31", "block": "test", "trialIndex": 32, "score": 67.55, "costs": -6.449999999999999, "simulationMode": [null, null, null, null, null], "rewards": [2, 4, 7, -9, 70], "path": ["0", "0", "12", "13", "14", "15", "17"], "rt": [12634, 500, 0, 0, 0], "actions": ["right", "right", "right", "up", "right"], "actionTimes": [19017, 20234, 20934, 21717, 22401], "queries": {"click": {"state": {"target": ["29", "20", "17"], "time": [7717, 11301, 14951]}, "edge": {"target": [], "time": []}}, "mouseover": {"state": {"target": ["26", "26", "29", "26", "18", "20", "17", "15", "18"], "time": [6634, 7284, 7450, 8184, 8484, 8950, 12001, 15901, 16734]}, "edge": {"target": [], "time": []}}, "mouseout": {"state": {"target": ["12", "22", "12", "26", "26", "29", "26", "18", "20", "17", "15"], "time": [1050, 1234, 1417, 7200, 7350, 8117, 8334, 8634, 11451, 15801, 16051]}, "edge": {"target": [], "time": []}}}, "displayed_time": "23.08", "trialTime": 23901, "trial_type": "mouselab-mdp", "trial_index": 39, "time_elapsed": 1687951, "internal_node_id": "0.0-6.0-1.0-30.0"}}, {"uniqueid": "w93334271:a19407467", "current_trial": 40, "dateTime": 1693581477652, "trialdata": {"revealed_states": [], "clicked_states": ["29", "5"], "num_clicks_accrued": [0, 0, 0, 0, 0, 0, 0, 0, 0, 0, 0, 0, 0], "stateRewards": ["", 1, 2, -3, -5, 66, -50, -47, -5, 1, 28, -27, 1, 1, -1, -6, 37, -25, 56, 1, -82, -66, -40, -1, -4, -7, 15, -61, -23, 26, 10, 14, -56, 29], "withholdReward": false, "trial_id": "mdp_trial_32", "block": "test", "trialIndex": 33, "score": 56.7, "costs": -4.3, "simulationMode": [null, null, null, null, null], "rewards": [1, 2, -3, -5, 66], "path": ["0", "0", "1", "2", "3", "4", "5"], "rt": [9850, 0, 0, 0, 0], "actions": ["up", "up", "up", "right", "up"], "actionTimes": [15534, 16234, 16934, 17651, 18334], "queries": {"click": {"state": {"target": ["29", "5"], "time": [7450, 11134]}, "edge": {"target": [], "time": []}}, "mouseover": {"state": {"target": ["27", "29", "5", "9"], "time": [6667, 7000, 8484, 12767]}, "edge": {"target": [], "time": []}}, "mouseout": {"state": {"target": ["27", "29", "5", "9"], "time": [6867, 7850, 12600, 14834]}, "edge": {"target": [], "time": []}}}, "displayed_time": "21.43", "trialTime": 22351, "trial_type": "mouselab-mdp", "trial_index": 40, "time_elapsed": 1715285, "internal_node_id": "0.0-6.0-1.0-31.0"}}, {"uniqueid": "w93334271:a19407467", "current_trial": 41, "dateTime": 1693581503919, "trialdata": {"revealed_states": [], "clicked_states": ["31"], "num_clicks_accrued": [0, 0, 0, 0, 0, 0, 0, 0, 0, 0, 0, 0, 0], "stateRewards": ["", -2, 3, -1, -9, 44, 48, -37, -3, 71, -39, 87, -1, 3, -4, 4, -21, 59, -15, -8, -1, 28, -38, 2, 4, 4, 8, -85, -72, -63, 14, 58, 63, -46], "withholdReward": false, "trial_id": "mdp_trial_33", "block": "test", "trialIndex": 34, "score": 79.85, "costs": -2.15, "simulationMode": [null, null, null, null, null], "rewards": [2, 4, 4, 14, 58], "path": ["0", "0", "23", "24", "25", "30", "31"], "rt": [5450, 0, 0, 0, 0], "actions": ["left", "left", "left", "down", "right"], "actionTimes": [11200, 11917, 12600, 13300, 14000], "queries": {"click": {"state": {"target": ["31"], "time": [6717]}, "edge": {"target": [], "time": []}}, "mouseover": {"state": {"target": ["31", "22"], "time": [6484, 8417]}, "edge": {"target": [], "time": []}}, "mouseout": {"state": {"target": ["0", "0", "31", "22"], "time": [350, 717, 7567, 10684]}, "edge": {"target": [], "time": []}}}, "displayed_time": "20.42", "trialTime": 21284, "trial_type": "mouselab-mdp", "trial_index": 41, "time_elapsed": 1741552, "internal_node_id": "0.0-6.0-1.0-32.0"}}, {"uniqueid": "w93334271:a19407467", "current_trial": 42, "dateTime": 1693581553853, "trialdata": {"revealed_states": [], "clicked_states": ["16", "27", "9", "7", "10", "33", "21", "22"], "num_clicks_accrued": [0, 0, 0, 0, 0, 0, 0, 0, 0, 0, 0, 0, 0], "stateRewards": ["", -2, 3, 3, -14, 62, 36, 49, 16, 11, 17, -84, 2, -1, 6, 2, -82, -73, 49, -6, -87, 48, 50, -1, -2, -1, -16, -11, 37, -44, 4, 55, 73, -10], "withholdReward": false, "trial_id": "mdp_trial_34", "block": "test", "trialIndex": 35, "score": 33.8, "costs": -17.2, "simulationMode": [null, null, null, null, null], "rewards": [2, -1, 6, -6, 50], "path": ["0", "0", "12", "13", "14", "19", "22"], "rt": [33834, 500, 0, 0, 0], "actions": ["right", "right", "right", "down", "left"], "actionTimes": [40034, 41234, 41917, 42617, 43284], "queries": {"click": {"state": {"target": ["16", "27", "9", "7", "10", "33", "21", "22"], "time": [7616, 11383, 14967, 18583, 23400, 28150, 31950, 35867]}, "edge": {"target": [], "time": []}}, "mouseover": {"state": {"target": ["15", "16", "16", "28", "29", "27", "5", "9", "7", "5", "10", "4", "5", "3", "10", "2", "7", "24", "30", "33", "30", "21", "22", "20"], "time": [6500, 6666, 7133, 8550, 9100, 10050, 12400, 13167, 15983, 19417, 21267, 22550, 22883, 23050, 23200, 24917, 25167, 27283, 27517, 27933, 29600, 31734, 34117, 38650]}, "edge": {"target": [], "time": []}}, "mouseout": {"state": {"target": ["12", "12", "0", "15", "16", "16", "28", "29", "27", "5", "9", "7", "5", "10", "4", "5", "3", "10", "2", "7", "24", "30", "33", "30", "21", "22", "20"], "time": [100, 1483, 6433, 6600, 6750, 8083, 8716, 9883, 12250, 12867, 15517, 18717, 21100, 22417, 22633, 22983, 23133, 24850, 25083, 26917, 27367, 27850, 29300, 29750, 32084, 38267, 39567]}, "edge": {"target": [], "time": []}}}, "displayed_time": "43.97", "trialTime": 44967, "trial_type": "mouselab-mdp", "trial_index": 42, "time_elapsed": 1791486, "internal_node_id": "0.0-6.0-1.0-33.0"}}, {"uniqueid": "w93334271:a19407467", "current_trial": 43, "dateTime": 1693581585937, "trialdata": {"revealed_states": [], "clicked_states": ["16", "31", "20", "11"], "num_clicks_accrued": [0, 0, 0, 0, 0, 0, 0, 0, 0, 0, 0, 0, 0], "stateRewards": ["", 2, -2, 7, -11, -76, -65, -23, 16, -58, 30, 81, 1, 2, 7, 14, 9, 55, -2, 6, 11, -15, 31, -1, -1, -3, 2, 15, 2, 46, 15, 18, 45, -34], "withholdReward": false, "trial_id": "mdp_trial_35", "block": "test", "trialIndex": 36, "score": 95.4, "costs": -8.6, "simulationMode": [null, null, null, null, null], "rewards": [2, -2, 7, 16, 81], "path": ["0", "0", "1", "2", "3", "8", "11"], "rt": [16284, 0, 600, 0, 17], "actions": ["up", "up", "up", "left", "left"], "actionTimes": [22251, 22951, 24251, 24951, 25667], "queries": {"click": {"state": {"target": ["16", "31", "20", "11"], "time": [7017, 10750, 14217, 17801]}, "edge": {"target": [], "time": []}}, "mouseover": {"state": {"target": ["16", "31", "33", "31", "22", "20", "22", "8", "11", "3", "4", "6"], "time": [6850, 8034, 8367, 9150, 11600, 13001, 15451, 16401, 16934, 18717, 18934, 19167]}, "edge": {"target": [], "time": []}}, "mouseout": {"state": {"target": ["1", "0", "16", "31", "33", "31", "22", "20", "22", "8", "11", "3", "4"], "time": [1067, 6217, 7650, 8200, 8750, 11134, 12684, 15301, 16217, 16684, 18634, 18867, 19101]}, "edge": {"target": [], "time": []}}}, "displayed_time": "26.37", "trialTime": 27017, "trial_type": "mouselab-mdp", "trial_index": 43, "time_elapsed": 1823553, "internal_node_id": "0.0-6.0-1.0-34.0"}}, {"uniqueid": "w93334271:a19407467", "current_trial": 44, "dateTime": 1693581620088, "trialdata": {"revealed_states": [], "clicked_states": ["10", "7", "18", "31", "28"], "num_clicks_accrued": [0, 0, 0, 0, 0, 0, 0, 0, 0, 0, 0, 0, 0], "stateRewards": ["", -1, 1, -6, -1, 80, 23, 2, -11, 73, -81, 59, 1, 3, 5, -1, -26, 28, -3, 16, -59, -13, -50, -2, -2, 2, 15, -50, 86, 17, -4, 37, 35, 44], "withholdReward": false, "trial_id": "mdp_trial_36", "block": "test", "trialIndex": 37, "score": 88.25, "costs": -10.75, "simulationMode": [null, null, null, null, null], "rewards": [-2, -2, 2, 15, 86], "path": ["0", "0", "23", "24", "25", "26", "28"], "rt": [19734, 0, 0, 0, 0], "actions": ["left", "left", "left", "up", "right"], "actionTimes": [25067, 25801, 26501, 27217, 27901], "queries": {"click": {"state": {"target": ["10", "7", "18", "31", "28"], "time": [6684, 10250, 13751, 17184, 20834]}, "edge": {"target": [], "time": []}}, "mouseover": {"state": {"target": ["10", "10", "7", "18", "31", "28", "29", "23", "0", "19", "22"], "time": [6167, 6434, 7400, 11717, 15384, 18001, 21684, 21901, 22117, 22517, 22734]}, "edge": {"target": [], "time": []}}, "mouseout": {"state": {"target": ["23", "0", "10", "10", "7", "18", "31", "28", "29", "23", "0", "19", "22"], "time": [650, 5534, 6250, 7150, 11250, 14534, 17334, 21534, 21834, 22051, 22284, 22667, 24467]}, "edge": {"target": [], "time": []}}}, "displayed_time": "28.57", "trialTime": 29184, "trial_type": "mouselab-mdp", "trial_index": 44, "time_elapsed": 1857704, "internal_node_id": "0.0-6.0-1.0-35.0"}}, {"uniqueid": "w93334271:a19407467", "current_trial": 45, "dateTime": 1693581646822, "trialdata": {"revealed_states": [], "clicked_states": ["29", "6"], "num_clicks_accrued": [0, 0, 0, 0, 0, 0, 0, 0, 0, 0, 0, 0, 0], "stateRewards": ["", -1, 3, -4, -14, 78, 67, 2, 13, -32, 28, 39, -2, 1, -4, -4, -4, -42, -86, 11, 64, -29, -32, -1, -4, 2, -7, 5, 68, -61, 2, -21, 85, 50], "withholdReward": false, "trial_id": "mdp_trial_37", "block": "test", "trialIndex": 38, "score": 46.7, "costs": -4.3, "simulationMode": [null, null, null, null, null], "rewards": [-1, 3, -4, -14, 67], "path": ["0", "0", "1", "2", "3", "4", "6"], "rt": [9317, 0, 0, 600, 0], "actions": ["up", "up", "up", "right", "right"], "actionTimes": [15050, 15767, 16467, 17750, 18450], "queries": {"click": {"state": {"target": ["29", "6"], "time": [7317, 10900]}, "edge": {"target": [], "time": []}}, "mouseover": {"state": {"target": ["28", "29", "16", "17", "6", "10"], "time": [6433, 6933, 8033, 8333, 10400, 11767]}, "edge": {"target": [], "time": []}}, "mouseout": {"state": {"target": ["21", "21", "12", "28", "29", "16", "17", "6", "10", "22"], "time": [650, 750, 983, 6517, 7633, 8183, 9767, 11367, 14600, 19817]}, "edge": {"target": [], "time": []}}}, "displayed_time": "21.17", "trialTime": 21684, "trial_type": "mouselab-mdp", "trial_index": 45, "time_elapsed": 1884455, "internal_node_id": "0.0-6.0-1.0-36.0"}}, {"uniqueid": "w93334271:a19407467", "current_trial": 46, "dateTime": 1693581672706, "trialdata": {"revealed_states": [], "clicked_states": ["16", "32"], "num_clicks_accrued": [0, 0, 0, 0, 0, 0, 0, 0, 0, 0, 0, 0, 0], "stateRewards": ["", 1, -4, -6, -1, -21, 17, -72, 10, 77, 67, -46, -1, 4, -2, 14, -66, -49, -45, -15, -52, 23, -67, 2, -2, -2, 15, -3, 45, -64, 5, -44, 83, 61], "withholdReward": false, "trial_id": "mdp_trial_38", "block": "test", "trialIndex": 39, "score": 81.7, "costs": -4.3, "simulationMode": [null, null, null, null, null], "rewards": [2, -2, -2, 5, 83], "path": ["0", "0", "23", "24", "25", "30", "32"], "rt": [9100, 0, 0, 0, 0], "actions": ["left", "left", "left", "down", "down"], "actionTimes": [14384, 15100, 15800, 16500, 17184], "queries": {"click": {"state": {"target": ["16", "32"], "time": [6634, 10334]}, "edge": {"target": [], "time": []}}, "mouseover": {"state": {"target": ["0", "16", "32", "29", "29", "30"], "time": [5617, 6434, 8284, 11500, 12450, 13934]}, "edge": {"target": [], "time": []}}, "mouseout": {"state": {"target": ["23", "0", "0", "16", "32", "29", "29"], "time": [633, 5534, 6017, 7567, 11200, 11650, 13867]}, "edge": {"target": [], "time": []}}}, "displayed_time": "20.20", "trialTime": 20851, "trial_type": "mouselab-mdp", "trial_index": 46, "time_elapsed": 1910339, "internal_node_id": "0.0-6.0-1.0-37.0"}}, {"uniqueid": "w93334271:a19407467", "current_trial": 47, "dateTime": 1693581700289, "trialdata": {"revealed_states": [], "clicked_states": ["27", "6", "9"], "num_clicks_accrued": [0, 0, 0, 0, 0, 0, 0, 0, 0, 0, 0, 0, 0], "stateRewards": ["", 2, -1, -1, -9, -81, -30, 55, -6, 78, 25, 62, 2, 4, -1, 9, -85, 1, -19, 1, -60, 12, -34, 1, 4, -1, -13, -24, -16, -83, -8, 16, 43, 9], "withholdReward": false, "trial_id": "mdp_trial_39", "block": "test", "trialIndex": 40, "score": 65.55, "costs": -6.449999999999999, "simulationMode": [null, null, null, null, null], "rewards": [2, -1, -1, -6, 78], "path": ["0", "0", "1", "2", "3", "8", "9"], "rt": [12467, 0, 683, 0, 0], "actions": ["up", "up", "up", "left", "up"], "actionTimes": [17733, 18433, 19800, 20517, 21200], "queries": {"click": {"state": {"target": ["27", "6", "9"], "time": [6633, 10200, 13617]}, "edge": {"target": [], "time": []}}, "mouseover": {"state": {"target": ["0", "27", "14", "6", "6", "11", "8", "9", "20", "19", "14", "20"], "time": [5433, 6466, 7500, 8350, 8666, 11133, 11833, 12167, 14717, 15017, 15483, 16283]}, "edge": {"target": [], "time": []}}, "mouseout": {"state": {"target": ["0", "27", "14", "6", "6", "11", "8", "9", "20", "19", "14", "20"], "time": [5600, 7333, 7733, 8516, 10750, 11300, 12000, 14250, 14933, 15333, 15950, 17217]}, "edge": {"target": [], "time": []}}}, "displayed_time": "21.88", "trialTime": 22633, "trial_type": "mouselab-mdp", "trial_index": 47, "time_elapsed": 1937922, "internal_node_id": "0.0-6.0-1.0-38.0"}}, {"uniqueid": "w93334271:a19407467", "current_trial": 48, "dateTime": 1693581728723, "trialdata": {"revealed_states": [], "clicked_states": ["27", "20", "16"], "num_clicks_accrued": [0, 0, 0, 0, 0, 0, 0, 0, 0, 0, 0, 0, 0], "stateRewards": ["", 1, 1, 1, 15, -76, 52, -32, 14, -57, 37, 49, 1, -4, -3, 6, 83, -76, 25, 9, 36, -1, -17, -1, 4, 4, -2, -22, -21, 58, -15, -57, 49, -24], "withholdReward": false, "trial_id": "mdp_trial_40", "block": "test", "trialIndex": 41, "score": 76.55, "costs": -6.449999999999999, "simulationMode": [null, null, null, null, null], "rewards": [1, -4, -3, 6, 83], "path": ["0", "0", "12", "13", "14", "15", "16"], "rt": [13184, 0, 0, 0, 0], "actions": ["right", "right", "right", "up", "up"], "actionTimes": [18617, 19317, 20017, 20734, 21417], "queries": {"click": {"state": {"target": ["27", "20", "16"], "time": [6917, 10517, 14267]}, "edge": {"target": [], "time": []}}, "mouseover": {"state": {"target": ["27", "20", "16", "10", "2", "7"], "time": [6683, 8417, 11533, 15517, 16834, 17050]}, "edge": {"target": [], "time": []}}, "mouseout": {"state": {"target": ["0", "27", "20", "16", "10", "2", "7"], "time": [6300, 7400, 10900, 14800, 16750, 17000, 18200]}, "edge": {"target": [], "time": []}}}, "displayed_time": "22.10", "trialTime": 23434, "trial_type": "mouselab-mdp", "trial_index": 48, "time_elapsed": 1966356, "internal_node_id": "0.0-6.0-1.0-39.0"}}, {"uniqueid": "w93334271:a19407467", "current_trial": 49, "dateTime": 1693581816775, "trialdata": {"rt": 88035, "response": {"Q0": "$-2 to $2", "Q1": "$-32 to $32", "Q2": "$-88 to $88", "Q3": "The cost for clicking on nodes varied between nodes.", "Q4": "Slightly motivated"}, "question_order": [0, 1, 2, 3, 4], "trial_id": "final_quiz_control", "trial_type": "survey-multi-choice", "trial_index": 49, "time_elapsed": 2054408, "internal_node_id": "0.0-6.0-2.0"}}, {"uniqueid": "w93334271:a19407467", "current_trial": 50, "dateTime": 1693581948628, "trialdata": {"rt": 131853, "response": {"Q0": "started checking central nodes (ones I must have possibly visited) until I found out the 5th nodes were giving the highest rewards. From then onwards I kept checking last nodes only until I found one above 50 (green)", "Q1": "Yes, as explained above from midgame I started focusing only on 5th nodes", "Q2": "I guess it's about concentration and logic but eventually it took some time for me to figure it out. I think I could have been faster in that"}, "trial_id": "self_report_control", "trial_type": "survey-text", "trial_index": 50, "time_elapsed": 2186261, "internal_node_id": "0.0-6.0-3.0"}}, {"uniqueid": "w93334271:a19407467", "current_trial": 51, "dateTime": 1693582020246, "trialdata": {"rt": 71618, "response": {"Q0": "Strongly disagree", "Q1": "Neither disagree nor agree", "Q2": "Neither disagree nor agree", "Q3": "Strongly agree", "Q4": "Neither disagree nor agree", "Q5": "Neither disagree nor agree", "Q6": "Neither disagree nor agree"}, "question_order": [0, 1, 2, 3, 4, 5, 6], "trial_id": "self_report_2", "trial_type": "survey-multi-choice", "trial_index": 51, "time_elapsed": 2257879, "internal_node_id": "0.0-6.0-4.0"}}, {"uniqueid": "w93334271:a19407467", "current_trial": 52, "dateTime": 1693582041580, "trialdata": {"rt": 21317, "response": {"gender": "male", "age": "28", "colorblind": "0", "effort": "0"}, "trial_type": "survey-html-form", "trial_index": 52, "time_elapsed": 2279213, "internal_node_id": "0.0-6.0-5.0"}}, {"uniqueid": "w93334271:a19407467", "current_trial": 53, "dateTime": 1693582066813, "trialdata": {"rt": 25217, "response": {"Q0": "no!", "Q1": "I didn't participate before", "Q2": "it was fun!"}, "trial_type": "survey-text", "trial_index": 53, "time_elapsed": 2304446, "internal_node_id": "0.0-6.0-6.0"}}, {"uniqueid": "w93334271:a19407467", "current_trial": 54, "dateTime": 1693582082214, "trialdata": {"rt": 15384, "stimulus": "<h1>Completion Code Instructions (1/2)</h1>\n<br><br><br><br>\nYou have reached the end of the experiment! The completion code consists of two parts: (1) a code with 2 characters (2) a code with 6 characters. On this page, you will receive the second part of the code. The first part of the completion code will be on the next page.\n<br><br>\nThe second part of your completion code is: <b>EWEK22</b>\n<br><br>\nPlease note this down. Then, press 'Next' in order to find the first part of your completion code. Once the data has been saved, you will receive this code either in this window or in the original browser window where you started the experiment.\n <br><br>\n<h2 style='color: red;'>Note: this is <strong>NOT</strong> the full completion code. Copy this down and click 'Next' to get the full completion code on the next page.</h2>", "response": 0, "trial_type": "html-button-response", "trial_index": 54, "time_elapsed": 2319847, "internal_node_id": "0.0-6.0-7.0"}}, {"uniqueid": "w93334271:a19407467", "current_trial": 55, "dateTime": 1693582083230, "trialdata": {"success": true, "trial_type": "fullscreen", "trial_index": 55, "time_elapsed": 2320863, "internal_node_id": "0.0-7.0"}}], "questiondata": {"params": {"CODE": "C6DMOQA6", "MIN_TIME": 14, "inspectCost": 1, "startTime": "Fri Sep 01 2023 14:49:21 GMT+0000 (Coordinated Universal Time)", "bonusRate": 0.002, "variance": "1_2_4_8_44", "branching": "31123"}, "final_score": 2089.95}, "eventdata": [{"eventtype": "initialized", "value": null, "timestamp": 1693579760917, "interval": 0}, {"eventtype": "window_resize", "value": [1600, 800], "timestamp": 1693579760917, "interval": 0}, {"eventtype": "focus", "value": "on", "timestamp": 1693579761051, "interval": 134}, {"eventtype": "window_resize", "value": [1600, 800], "timestamp": 1693579761234, "interval": 183}, {"eventtype": "focus", "value": "off", "timestamp": 1693579765551, "interval": 4317}, {"eventtype": "focus", "value": "on", "timestamp": 1693579766634, "interval": 1083}, {"eventtype": "window_resize", "value": [1680, 1050], "timestamp": 1693579768967, "interval": 2333}, {"eventtype": "window_resize", "value": [1600, 800], "timestamp": 1693582082630, "interval": 2313663}], "useragent": "Mozilla/5.0 (Macintosh; Intel Mac OS X 10.15; rv:109.0) Gecko/20100101 Firefox/115.0", "mode": "live", "id": "w93334271:a19407467", "status": "user data saved", "Beginhit": "2023-09-01 14:49:19.209434", "Beginexp": "2023-09-01 14:49:29.767868", "Endhit": "2023-09-01 15:28:03.836168", "psiturkStatus": 3, "browser": "<redacted>", "platform": "windows", "language": "en-US"}