{"condition": 0, "counterbalance": 0, "assignmentId": "a51711764", "workerId": "w99333353", "hitId": "h45708109", "currenttrial": 55, "bonus": 0, "data": [{"uniqueid": "w99333353:a51711764", "current_trial": 0, "dateTime": 1693580032309, "trialdata": {"success": true, "trial_type": "fullscreen", "trial_index": 0, "time_elapsed": 17022, "internal_node_id": "0.0-0.0"}}, {"uniqueid": "w99333353:a51711764", "current_trial": 1, "dateTime": 1693580060938, "trialdata": {"view_history": [{"page_index": 0, "viewing_time": 28625}], "rt": 28627, "trial_id": "exp_instructions_control", "trial_type": "instructions", "trial_index": 1, "time_elapsed": 45652, "internal_node_id": "0.0-1.0"}}, {"uniqueid": "w99333353:a51711764", "current_trial": 2, "dateTime": 1693580357111, "trialdata": {"view_history": [{"page_index": 0, "viewing_time": 112928}, {"page_index": 1, "viewing_time": 104435}, {"page_index": 2, "viewing_time": 32889}, {"page_index": 3, "viewing_time": 45920}], "rt": 296172, "trial_id": "mouselab_instructions_1_control", "trial_type": "instructions", "trial_index": 2, "time_elapsed": 341825, "internal_node_id": "0.0-2.0-1.0"}}, {"uniqueid": "w99333353:a51711764", "current_trial": 3, "dateTime": 1693580381527, "trialdata": {"revealed_states": [], "clicked_states": ["2", "1", "3", "8", "9", "5", "4"], "num_clicks_accrued": [0, 0, 0, 0, 0, 0, 0, 0, 0, 0, 0, 0, 0], "stateRewards": ["", 10, 10, 10, 10, 10, -10, 10, -10, -10, 10, -10, -10, -10, -10, 10, 10, 10, -10, 10, -10, -10, 10, -10, -10, 10, 10, 10, 10, -10, 10, 10, -10, -10], "withholdReward": false, "trial_id": "practice_1", "block": "test", "trialIndex": 0, "score": 50, "costs": -3.5, "simulationMode": [null, null, null, null, null], "rewards": [10, 10, 10, 10, 10], "path": ["0", "0", "1", "2", "3", "4", "5"], "rt": [14975, 127, 135, 108, 165], "actions": ["up", "up", "up", "right", "up"], "actionTimes": [17775, 18414, 19054, 19678, 20351], "queries": {"click": {"state": {"target": ["2", "1", "3", "8", "9", "5", "4"], "time": [4610, 6144, 7580, 8970, 10490, 11857, 13287]}, "edge": {"target": [], "time": []}}, "mouseover": {"state": {"target": ["1", "2", "3", "3", "2", "1", "7", "3", "8", "9", "5", "4", "7", "0", "0"], "time": [3548, 4034, 4064, 4214, 4414, 5363, 6562, 7162, 8511, 9860, 11042, 12342, 15455, 15638, 15987]}, "edge": {"target": [], "time": []}}, "mouseout": {"state": {"target": ["12", "7", "4", "5", "0", "1", "2", "3", "3", "2", "1", "7", "3", "8", "9", "5", "4", "7", "0"], "time": [950, 1017, 1050, 1084, 3281, 4032, 4047, 4098, 4297, 5297, 6412, 6896, 8327, 9510, 10776, 12275, 14955, 15605, 15655]}, "edge": {"target": [], "time": []}}}, "displayed_time": "20.87", "trialTime": 23999, "trial_type": "mouselab-mdp", "trial_index": 3, "time_elapsed": 366241, "internal_node_id": "0.0-2.0-2.0-0.0"}}, {"uniqueid": "w99333353:a51711764", "current_trial": 4, "dateTime": 1693580404775, "trialdata": {"revealed_states": [], "clicked_states": ["21", "20", "17", "15", "14", "13", "12"], "num_clicks_accrued": [0, 0, 0, 0, 0, 0, 0, 0, 0, 0, 0, 0, 0], "stateRewards": ["", 10, -10, 10, 10, 10, 10, 10, 10, -10, 10, -10, 10, -10, 10, -10, 10, 10, 10, -10, -10, -10, 10, -10, -10, 10, -10, 10, 10, 10, 10, 10, 10, 10], "withholdReward": false, "trial_id": "practice_2", "block": "test", "trialIndex": 1, "score": 10, "costs": -3.5, "simulationMode": [null, null, null, null, null], "rewards": [10, -10, 10, -10, 10], "path": ["0", "0", "12", "13", "14", "15", "17"], "rt": [14678, 141, 162, 122, 192], "actions": ["right", "right", "right", "up", "right"], "actionTimes": [16888, 17543, 18216, 18855, 19560], "queries": {"click": {"state": {"target": ["21", "20", "17", "15", "14", "13", "12"], "time": [3603, 5614, 7462, 9247, 10745, 12373, 14043]}, "edge": {"target": [], "time": []}}, "mouseover": {"state": {"target": ["12", "19", "21", "20", "17", "15", "14", "13", "12", "15", "15", "18", "1"], "time": [2629, 3329, 3412, 5377, 7275, 9107, 9740, 11855, 13786, 16052, 16468, 16486, 16517]}, "edge": {"target": [], "time": []}}, "mouseout": {"state": {"target": ["0", "12", "19", "21", "20", "17", "17", "15", "14", "13", "12", "15", "15", "18", "1"], "time": [1720, 3229, 3345, 4561, 5860, 7891, 8891, 9623, 11571, 13770, 15918, 16068, 16484, 16501, 16534]}, "edge": {"target": [], "time": []}}}, "displayed_time": "20.07", "trialTime": 23048, "trial_type": "mouselab-mdp", "trial_index": 4, "time_elapsed": 389489, "internal_node_id": "0.0-2.0-2.0-1.0"}}, {"uniqueid": "w99333353:a51711764", "current_trial": 5, "dateTime": 1693580437622, "trialdata": {"view_history": [{"page_index": 0, "viewing_time": 18904}, {"page_index": 1, "viewing_time": 13940}], "rt": 32844, "trial_id": "mouselab_instructions_2_control", "trial_type": "instructions", "trial_index": 5, "time_elapsed": 422336, "internal_node_id": "0.0-2.0-3.0"}}, {"uniqueid": "w99333353:a51711764", "current_trial": 6, "dateTime": 1693580490857, "trialdata": {"rt": 53231, "response": {"Q0": "The cost for clicking on nodes may vary between nodes.", "Q1": "The better I perform the higher my bonus will be.", "Q2": "No, the amount of cash at each node of the web may be different each time.", "Q3": "To get the highest total score.", "Q4": "Only before moving the spider.", "Q5": "3 seconds"}, "question_order": [0, 1, 2, 3, 4, 5], "correct": {"Q0": "The cost for clicking on nodes may vary between nodes.", "Q1": "The better I perform the higher my bonus will be.", "Q2": "No, the amount of cash at each node of the web may be different each time.", "Q3": "To get the highest total score.", "Q4": "Only before moving the spider.", "Q5": "3 seconds"}, "trial_id": "mouselab_quiz_control", "trial_type": "survey-multi-choice", "trial_index": 6, "time_elapsed": 475571, "internal_node_id": "0.0-2.0-4.0"}}, {"uniqueid": "w99333353:a51711764", "current_trial": 7, "dateTime": 1693580498556, "trialdata": {"rt": 7694, "response": {"Q0": "No"}, "question_order": [0], "trial_id": "repeat_check", "trial_type": "survey-multi-choice", "trial_index": 7, "time_elapsed": 483270, "internal_node_id": "0.0-4.0-0.0"}}, {"uniqueid": "w99333353:a51711764", "current_trial": 8, "dateTime": 1693580548262, "trialdata": {"rt": 49702, "stimulus": "\n<h1> Get ready to start the game! </h1>\n\nThank you for reading the instructions. Get ready start with the 40 rounds of this game.\n<br><br>\nIf you need to take a break, feel free to take one after the end of a round, before continuing to the next one.\n<br><br>\nRemember, the more money the spider gets, the bigger your bonus will be!\n<br><br>\n<div style='text-align: center;'>Press <code>space</code> to begin.</div>\n\n<br><br>\n(If, at any point, the <code>space</code> key does not take you to the next page, click once on the text and try again.)", "response": " ", "trial_id": "mdp_ready", "trial_type": "html-keyboard-response", "trial_index": 8, "time_elapsed": 532976, "internal_node_id": "0.0-6.0-0.0"}}, {"uniqueid": "w99333353:a51711764", "current_trial": 9, "dateTime": 1693580573271, "trialdata": {"revealed_states": [], "clicked_states": ["26", "24", "30", "23"], "num_clicks_accrued": [0, 0, 0, 0, 0, 0, 0, 0, 0, 0, 0, 0, 0], "stateRewards": ["", -1, 3, 1, -7, 56, 76, 57, 3, 11, -9, 14, 1, -2, 2, 8, -77, -3, 79, -5, 88, 24, -66, -2, -1, 7, -7, -30, 14, -76, 11, -36, 28, -6], "withholdReward": false, "trial_id": "mdp_trial_1", "block": "test", "trialIndex": 2, "score": 3.4000000000000004, "costs": -5.6, "simulationMode": [null, null, null, null, null], "rewards": [-2, -1, 7, 11, -6], "path": ["0", "0", "23", "24", "25", "30", "33"], "rt": [10852, 443, 357, 339, 321], "actions": ["left", "left", "left", "down", "left"], "actionTimes": [17271, 18231, 19094, 19942, 20774], "queries": {"click": {"state": {"target": ["26", "24", "30", "23"], "time": [7565, 9650, 12360, 14878]}, "edge": {"target": [], "time": []}}, "mouseover": {"state": {"target": ["23", "26", "25", "24", "31", "30", "31", "23", "0"], "time": [6846, 7079, 8212, 8678, 10277, 12025, 12658, 14640, 15156]}, "edge": {"target": [], "time": []}}, "mouseout": {"state": {"target": ["3", "7", "12", "0", "23", "26", "25", "24", "31", "30", "31", "23", "0"], "time": [702, 1300, 4486, 4997, 6863, 8162, 8645, 10194, 10526, 12641, 12708, 15123, 15189]}, "edge": {"target": [], "time": []}}}, "displayed_time": "21.29", "trialTime": 24791, "trial_type": "mouselab-mdp", "trial_index": 9, "time_elapsed": 557985, "internal_node_id": "0.0-6.0-1.0-0.0"}}, {"uniqueid": "w99333353:a51711764", "current_trial": 10, "dateTime": 1693580598471, "trialdata": {"revealed_states": [], "clicked_states": ["21", "20", "22", "14", "13"], "num_clicks_accrued": [0, 0, 0, 0, 0, 0, 0, 0, 0, 0, 0, 0, 0], "stateRewards": ["", 2, 2, 3, -15, 23, -14, 73, -7, -32, -20, -6, 1, 1, -5, -12, 73, 6, -84, 11, -81, -57, 13, -2, -1, -4, -8, -52, -58, 49, 13, 5, -41, -41], "withholdReward": false, "trial_id": "mdp_trial_2", "block": "test", "trialIndex": 3, "score": 14, "costs": -7, "simulationMode": [null, null, null, null, null], "rewards": [1, 1, -5, 11, 13], "path": ["0", "0", "12", "13", "14", "19", "22"], "rt": [15671, 203, 207, 130, 234], "actions": ["right", "right", "right", "down", "left"], "actionTimes": [18366, 19102, 19821, 20461, 21214], "queries": {"click": {"state": {"target": ["21", "20", "22", "14", "13"], "time": [4214, 7021, 10181, 13275, 15859]}, "edge": {"target": [], "time": []}}, "mouseover": {"state": {"target": ["12", "13", "14", "20", "21", "20", "22", "22", "14", "13"], "time": [3093, 3144, 3227, 3477, 3726, 5375, 9238, 9538, 13102, 15649]}, "edge": {"target": [], "time": []}}, "mouseout": {"state": {"target": ["22", "0", "12", "13", "14", "20", "21", "20", "22", "22", "14", "13", "14"], "time": [1278, 3044, 3127, 3193, 3443, 3560, 4826, 7340, 9372, 10421, 13618, 16099, 16149]}, "edge": {"target": [], "time": []}}}, "displayed_time": "21.73", "trialTime": 24990, "trial_type": "mouselab-mdp", "trial_index": 10, "time_elapsed": 583185, "internal_node_id": "0.0-6.0-1.0-1.0"}}, {"uniqueid": "w99333353:a51711764", "current_trial": 11, "dateTime": 1693580628439, "trialdata": {"revealed_states": [], "clicked_states": ["3", "9", "26", "25", "13", "14", "1", "10"], "num_clicks_accrued": [0, 0, 0, 0, 0, 0, 0, 0, 0, 0, 0, 0, 0], "stateRewards": ["", 2, -4, -8, -15, 71, -43, -41, 7, -17, 20, 67, -1, -1, -4, 6, 37, -24, -47, 9, 34, 57, 45, 1, 2, -4, -5, -23, 88, -5, 13, -40, 43, 44], "withholdReward": false, "trial_id": "mdp_trial_3", "block": "test", "trialIndex": 4, "score": 5.799999999999997, "costs": -11.200000000000001, "simulationMode": [null, null, null, null, null], "rewards": [2, -4, -8, 7, 20], "path": ["0", "0", "1", "2", "3", "8", "10"], "rt": [21869, 99, 140, 19, 93], "actions": ["up", "up", "up", "left", "down"], "actionTimes": [23583, 24190, 24846, 25374, 25982], "queries": {"click": {"state": {"target": ["3", "9", "26", "25", "13", "14", "1", "10"], "time": [2986, 6310, 8842, 11176, 14023, 16142, 18866, 21252]}, "edge": {"target": [], "time": []}}, "mouseover": {"state": {"target": ["1", "2", "3", "8", "9", "4", "4", "3", "28", "26", "28", "25", "31", "30", "24", "23", "0", "13", "13", "14", "12", "1", "10", "2", "7"], "time": [2074, 2274, 2590, 5605, 5971, 6687, 8221, 8252, 8469, 8685, 9219, 10717, 11799, 12199, 13198, 13514, 13549, 13598, 13847, 14380, 18378, 18560, 21075, 21829, 21857]}, "edge": {"target": [], "time": []}}, "mouseout": {"state": {"target": ["14", "13", "12", "0", "1", "2", "3", "3", "8", "9", "4", "4", "3", "28", "26", "28", "25", "31", "30", "24", "23", "0", "13", "13", "14", "13", "12", "1", "1", "10", "2", "7", "18", "15"], "time": [709, 758, 908, 1991, 2174, 2308, 3690, 5522, 5771, 6587, 7054, 8236, 8269, 8486, 9202, 9318, 11483, 11849, 13081, 13497, 13548, 13564, 13614, 14314, 16579, 18377, 18393, 19076, 20875, 21827, 21841, 21874, 28651, 28685]}, "edge": {"target": [], "time": []}}}, "displayed_time": "26.49", "trialTime": 29742, "trial_type": "mouselab-mdp", "trial_index": 11, "time_elapsed": 613152, "internal_node_id": "0.0-6.0-1.0-2.0"}}, {"uniqueid": "w99333353:a51711764", "current_trial": 12, "dateTime": 1693580653735, "trialdata": {"revealed_states": [], "clicked_states": ["2", "3", "8", "4", "7", "10"], "num_clicks_accrued": [0, 0, 0, 0, 0, 0, 0, 0, 0, 0, 0, 0, 0], "stateRewards": ["", -1, 4, -6, -5, -22, -38, -38, -2, -56, 88, 14, -1, -1, -7, -6, 61, -60, 21, 11, 57, 31, -30, -2, -2, 6, -9, -44, -70, -44, -15, 34, 16, -78], "withholdReward": false, "trial_id": "mdp_trial_4", "block": "test", "trialIndex": 5, "score": 74.6, "costs": -8.4, "simulationMode": [null, null, null, null, null], "rewards": [-1, 4, -6, -2, 88], "path": ["0", "0", "1", "2", "3", "8", "10"], "rt": [16328, 100, 94, 694, 151], "actions": ["up", "up", "up", "left", "down"], "actionTimes": [18511, 19118, 19726, 20926, 21582], "queries": {"click": {"state": {"target": ["2", "3", "8", "4", "7", "10"], "time": [3366, 6186, 8758, 11096, 13804, 16140]}, "edge": {"target": [], "time": []}}, "mouseover": {"state": {"target": ["1", "2", "3", "4", "6", "8", "4", "7", "2", "10", "2"], "time": [2929, 3096, 5810, 6410, 6776, 8541, 10806, 13187, 15868, 15935, 16468]}, "edge": {"target": [], "time": []}}, "mouseout": {"state": {"target": ["17", "15", "13", "12", "0", "1", "2", "2", "3", "4", "6", "8", "3", "4", "7", "2", "10", "2", "0"], "time": [764, 930, 1030, 1097, 1163, 2962, 3995, 5577, 6377, 6559, 8224, 8957, 9024, 11339, 15851, 15901, 16451, 16501, 22945]}, "edge": {"target": [], "time": []}}}, "displayed_time": "22.10", "trialTime": 25086, "trial_type": "mouselab-mdp", "trial_index": 12, "time_elapsed": 638448, "internal_node_id": "0.0-6.0-1.0-3.0"}}, {"uniqueid": "w99333353:a51711764", "current_trial": 13, "dateTime": 1693580672694, "trialdata": {"revealed_states": [], "clicked_states": ["28", "31", "30"], "num_clicks_accrued": [0, 0, 0, 0, 0, 0, 0, 0, 0, 0, 0, 0, 0], "stateRewards": ["", -1, 2, -6, 6, -82, -19, -39, -16, -83, 11, -33, -2, -2, 4, -6, -82, -1, -19, -6, -10, -67, -41, -2, 1, -7, 16, -23, -78, -52, 14, 31, -71, 74], "withholdReward": false, "trial_id": "mdp_trial_5", "block": "test", "trialIndex": 6, "score": 32.8, "costs": -4.199999999999999, "simulationMode": [null, null, null, null, null], "rewards": [-2, 1, -7, 14, 31], "path": ["0", "0", "23", "24", "25", "30", "31"], "rt": [9954, 94, 134, 125, 148], "actions": ["left", "left", "left", "down", "right"], "actionTimes": [12180, 12787, 13428, 14067, 14723], "queries": {"click": {"state": {"target": ["28", "31", "30"], "time": [3369, 6073, 10035]}, "edge": {"target": [], "time": []}}, "mouseover": {"state": {"target": ["28", "28", "28", "24", "31", "25", "30"], "time": [2567, 2750, 3234, 5698, 5798, 8712, 9511]}, "edge": {"target": [], "time": []}}, "mouseout": {"state": {"target": ["0", "28", "28", "28", "28", "28", "24", "31", "31", "25", "30", "31"], "time": [2518, 2601, 2784, 4033, 5531, 5681, 5764, 6464, 8429, 9062, 10278, 10327]}, "edge": {"target": [], "time": []}}}, "displayed_time": "16.23", "trialTime": 18739, "trial_type": "mouselab-mdp", "trial_index": 13, "time_elapsed": 657408, "internal_node_id": "0.0-6.0-1.0-4.0"}}, {"uniqueid": "w99333353:a51711764", "current_trial": 14, "dateTime": 1693580691415, "trialdata": {"revealed_states": [], "clicked_states": ["17", "14"], "num_clicks_accrued": [0, 0, 0, 0, 0, 0, 0, 0, 0, 0, 0, 0, 0], "stateRewards": ["", -1, 3, -5, -2, -13, -9, -34, -7, -81, 32, 35, -2, -2, 1, -14, -32, 81, 7, 4, 82, 56, -8, -1, 3, -8, 6, -24, -24, -53, 2, 38, 61, 54], "withholdReward": false, "trial_id": "mdp_trial_6", "block": "test", "trialIndex": 7, "score": 61.2, "costs": -2.8, "simulationMode": [null, null, null, null, null], "rewards": [-2, -2, 1, -14, 81], "path": ["0", "0", "12", "13", "14", "15", "17"], "rt": [6633, 113, 203, 287, 287], "actions": ["right", "right", "right", "up", "right"], "actionTimes": [9000, 9623, 10343, 11143, 11943], "queries": {"click": {"state": {"target": ["17", "14"], "time": [4023, 6732]}, "edge": {"target": [], "time": []}}, "mouseover": {"state": {"target": ["12", "13", "15", "17", "14"], "time": [2695, 2761, 3277, 3760, 6475]}, "edge": {"target": [], "time": []}}, "mouseout": {"state": {"target": ["12", "0", "12", "13", "15", "17", "14", "20", "21"], "time": [1678, 2061, 2728, 2778, 3394, 4343, 7058, 17032, 17066]}, "edge": {"target": [], "time": []}}}, "displayed_time": "16.37", "trialTime": 18503, "trial_type": "mouselab-mdp", "trial_index": 14, "time_elapsed": 676128, "internal_node_id": "0.0-6.0-1.0-5.0"}}, {"uniqueid": "w99333353:a51711764", "current_trial": 15, "dateTime": 1693580711670, "trialdata": {"revealed_states": [], "clicked_states": ["5", "7", "2"], "num_clicks_accrued": [0, 0, 0, 0, 0, 0, 0, 0, 0, 0, 0, 0, 0], "stateRewards": ["", -2, 2, 2, -6, 9, 37, 50, -13, -7, -18, -75, -2, -4, 4, 7, 23, -57, -66, -7, -81, -48, -76, 1, 1, -8, 1, 51, -2, 70, 14, 59, 71, -37], "withholdReward": false, "trial_id": "mdp_trial_7", "block": "test", "trialIndex": 8, "score": 41.8, "costs": -4.199999999999999, "simulationMode": [null, null, null, null, null], "rewards": [-2, 2, 2, -6, 50], "path": ["0", "0", "1", "2", "3", "4", "7"], "rt": [8982, 135, 95, 87, 64], "actions": ["up", "up", "up", "right", "down"], "actionTimes": [13403, 14058, 14666, 15258, 15834], "queries": {"click": {"state": {"target": ["5", "7", "2"], "time": [5488, 8039, 10732]}, "edge": {"target": [], "time": []}}, "mouseover": {"state": {"target": ["1", "2", "4", "5", "6", "7", "2", "10", "2", "2", "3"], "time": [4745, 4764, 4995, 5295, 6111, 7593, 8758, 9008, 10307, 10590, 12984]}, "edge": {"target": [], "time": []}}, "mouseout": {"state": {"target": ["1", "2", "4", "5", "6", "7", "2", "10", "2", "2", "7", "2", "3", "4", "6", "12"], "time": [4762, 4778, 5145, 6061, 7460, 8326, 8775, 10240, 10490, 11007, 11023, 12821, 13554, 13604, 13856, 19016]}, "edge": {"target": [], "time": []}}}, "displayed_time": "18.42", "trialTime": 19994, "trial_type": "mouselab-mdp", "trial_index": 15, "time_elapsed": 696384, "internal_node_id": "0.0-6.0-1.0-6.0"}}, {"uniqueid": "w99333353:a51711764", "current_trial": 16, "dateTime": 1693580730950, "trialdata": {"revealed_states": [], "clicked_states": ["28", "27", "31", "32"], "num_clicks_accrued": [0, 0, 0, 0, 0, 0, 0, 0, 0, 0, 0, 0, 0], "stateRewards": ["", 1, 1, -3, 7, 49, 78, 26, -5, 26, 48, -43, -1, -3, 2, -5, 4, -1, -60, 10, -35, 51, 81, -2, 1, -7, -5, -39, -86, -54, 4, -3, 74, 77], "withholdReward": false, "trial_id": "mdp_trial_8", "block": "test", "trialIndex": 9, "score": 64.4, "costs": -5.6, "simulationMode": [null, null, null, null, null], "rewards": [-2, 1, -7, 4, 74], "path": ["0", "0", "23", "24", "25", "30", "32"], "rt": [10975, 185, 142, 181, 249], "actions": ["left", "left", "left", "down", "down"], "actionTimes": [13550, 14253, 14909, 15597, 16365], "queries": {"click": {"state": {"target": ["28", "27", "31", "32"], "time": [3635, 5991, 8306, 10597]}, "edge": {"target": [], "time": []}}, "mouseover": {"state": {"target": ["23", "28", "27", "31", "30", "32", "31", "30", "25"], "time": [3009, 3275, 5656, 8058, 10336, 10469, 12817, 13167, 13317]}, "edge": {"target": [], "time": []}}, "mouseout": {"state": {"target": ["12", "23", "28", "27", "31", "31", "30", "32", "31", "30", "25", "24"], "time": [2059, 3025, 3958, 6323, 8571, 10269, 10369, 10657, 12950, 13184, 13866, 13933]}, "edge": {"target": [], "time": []}}}, "displayed_time": "16.88", "trialTime": 19037, "trial_type": "mouselab-mdp", "trial_index": 16, "time_elapsed": 715664, "internal_node_id": "0.0-6.0-1.0-7.0"}}, {"uniqueid": "w99333353:a51711764", "current_trial": 17, "dateTime": 1693580752711, "trialdata": {"revealed_states": [], "clicked_states": ["22", "21"], "num_clicks_accrued": [0, 0, 0, 0, 0, 0, 0, 0, 0, 0, 0, 0, 0], "stateRewards": ["", 2, -4, 1, -12, -59, -53, -74, 16, -88, -66, 66, 1, -2, 8, -9, -14, 22, 25, -1, -39, 47, -14, -1, -1, -2, 1, -4, 52, -26, 15, -7, 46, 43], "withholdReward": false, "trial_id": "mdp_trial_9", "block": "test", "trialIndex": 10, "score": 50.2, "costs": -2.8, "simulationMode": [null, null, null, null, null], "rewards": [1, -2, 8, -1, 47], "path": ["0", "0", "12", "13", "14", "19", "21"], "rt": [5814, 131, 121, 64, 154], "actions": ["right", "right", "right", "down", "down"], "actionTimes": [11181, 11820, 12460, 13036, 13708], "queries": {"click": {"state": {"target": ["22", "21"], "time": [6578, 8825]}, "edge": {"target": [], "time": []}}, "mouseover": {"state": {"target": ["12", "13", "20", "19", "22", "19", "21"], "time": [5426, 5459, 6159, 6192, 6376, 6958, 8640]}, "edge": {"target": [], "time": []}}, "mouseout": {"state": {"target": ["21", "0", "12", "13", "20", "19", "22", "19", "21", "20", "19", "22"], "time": [4276, 4976, 5443, 5476, 6175, 6242, 6908, 7008, 9240, 15569, 20313, 20347]}, "edge": {"target": [], "time": []}}}, "displayed_time": "19.37", "trialTime": 21516, "trial_type": "mouselab-mdp", "trial_index": 17, "time_elapsed": 737424, "internal_node_id": "0.0-6.0-1.0-8.0"}}, {"uniqueid": "w99333353:a51711764", "current_trial": 18, "dateTime": 1693580772999, "trialdata": {"revealed_states": [], "clicked_states": ["7", "10", "6", "5"], "num_clicks_accrued": [0, 0, 0, 0, 0, 0, 0, 0, 0, 0, 0, 0, 0], "stateRewards": ["", -2, -1, 3, -3, 71, -58, -21, 7, -10, -75, -37, 2, 4, -1, -12, -79, -29, -48, 3, -41, -10, -30, -1, -2, 1, -15, 13, 66, 22, -1, -42, -86, -55], "withholdReward": false, "trial_id": "mdp_trial_10", "block": "test", "trialIndex": 11, "score": 62.4, "costs": -5.6, "simulationMode": [null, null, null, null, null], "rewards": [-2, -1, 3, -3, 71], "path": ["0", "0", "1", "2", "3", "4", "5"], "rt": [10959, 124, 82, 43, 149], "actions": ["up", "up", "up", "right", "up"], "actionTimes": [13681, 14320, 14912, 15472, 16144], "queries": {"click": {"state": {"target": ["7", "10", "6", "5"], "time": [3760, 6161, 9111, 11582]}, "edge": {"target": [], "time": []}}, "mouseover": {"state": {"target": ["7", "2", "10", "2", "6", "5", "5"], "time": [3620, 5868, 5935, 6418, 8749, 11147, 11363]}, "edge": {"target": [], "time": []}}, "mouseout": {"state": {"target": ["22", "12", "7", "2", "10", "2", "7", "6", "5", "5"], "time": [522, 2321, 3986, 5901, 6401, 6435, 6468, 11113, 11180, 11946]}, "edge": {"target": [], "time": []}}}, "displayed_time": "16.72", "trialTime": 20032, "trial_type": "mouselab-mdp", "trial_index": 18, "time_elapsed": 757712, "internal_node_id": "0.0-6.0-1.0-9.0"}}, {"uniqueid": "w99333353:a51711764", "current_trial": 19, "dateTime": 1693580807335, "trialdata": {"revealed_states": [], "clicked_states": ["27", "28"], "num_clicks_accrued": [0, 0, 0, 0, 0, 0, 0, 0, 0, 0, 0, 0, 0], "stateRewards": ["", -2, -3, 4, 1, 33, -53, 15, 9, -12, 61, -6, -2, 4, 6, -11, 47, -43, -7, -11, 46, 23, -28, -1, -1, 3, -10, 11, 76, -76, 10, 18, -38, 87], "withholdReward": false, "trial_id": "mdp_trial_11", "block": "test", "trialIndex": 12, "score": 64.2, "costs": -2.8, "simulationMode": [null, null, null, null, null], "rewards": [-1, -1, 3, -10, 76], "path": ["0", "0", "23", "24", "25", "26", "28"], "rt": [4832, 32, 89, 176, 67], "actions": ["left", "left", "left", "up", "right"], "actionTimes": [12503, 13046, 13670, 14358, 14934], "queries": {"click": {"state": {"target": ["27", "28"], "time": [8584, 10565]}, "edge": {"target": [], "time": []}}, "mouseover": {"state": {"target": ["28", "27", "1", "12", "13", "20", "19", "12", "0", "23", "26", "28"], "time": [8134, 8417, 9016, 9049, 9068, 9149, 9300, 9416, 9449, 9632, 9699, 9932]}, "edge": {"target": [], "time": []}}, "mouseout": {"state": {"target": ["13", "0", "12", "28", "27", "1", "12", "13", "20", "19", "12", "0", "23", "26", "28", "23", "30", "33"], "time": [2488, 5569, 5885, 8167, 8833, 9033, 9066, 9083, 9266, 9316, 9433, 9482, 9649, 9867, 11015, 18692, 18808, 19674]}, "edge": {"target": [], "time": []}}}, "displayed_time": "21.67", "trialTime": 34087, "trial_type": "mouselab-mdp", "trial_index": 19, "time_elapsed": 792049, "internal_node_id": "0.0-6.0-1.0-10.0"}}, {"uniqueid": "w99333353:a51711764", "current_trial": 20, "dateTime": 1693580843814, "trialdata": {"revealed_states": [], "clicked_states": ["28"], "num_clicks_accrued": [0, 0, 0, 0, 0, 0, 0, 0, 0, 0, 0, 0, 0], "stateRewards": ["", 2, -1, -1, 7, 11, -40, -22, -2, 69, 37, 8, -2, 4, -8, -12, -2, -72, -3, -12, 17, 63, 12, 1, 3, -7, 6, 25, 61, 61, -9, 28, -17, 27], "withholdReward": false, "trial_id": "mdp_trial_12", "block": "test", "trialIndex": 13, "score": 62.6, "costs": -1.4, "simulationMode": [null, null, null, null, null], "rewards": [1, 3, -7, 6, 61], "path": ["0", "0", "23", "24", "25", "26", "28"], "rt": [3565, 82, 139, 66, 203], "actions": ["left", "left", "left", "up", "right"], "actionTimes": [5436, 6027, 6683, 7259, 7979], "queries": {"click": {"state": {"target": ["28"], "time": [3197]}, "edge": {"target": [], "time": []}}, "mouseover": {"state": {"target": ["23", "24", "25", "28", "12", "22", "22", "0", "23", "24"], "time": [2445, 2512, 2912, 3078, 3929, 3994, 4144, 5027, 5053, 5259]}, "edge": {"target": [], "time": []}}, "mouseout": {"state": {"target": ["21", "22", "12", "0", "23", "24", "25", "28", "12", "22", "22", "0", "23", "24", "21"], "time": [913, 946, 1013, 2345, 2479, 2695, 2928, 3645, 3963, 4011, 4194, 5050, 5060, 5709, 17433]}, "edge": {"target": [], "time": []}}}, "displayed_time": "15.87", "trialTime": 36219, "trial_type": "mouselab-mdp", "trial_index": 20, "time_elapsed": 828528, "internal_node_id": "0.0-6.0-1.0-11.0"}}, {"uniqueid": "w99333353:a51711764", "current_trial": 21, "dateTime": 1693580862311, "trialdata": {"revealed_states": [], "clicked_states": ["22"], "num_clicks_accrued": [0, 0, 0, 0, 0, 0, 0, 0, 0, 0, 0, 0, 0], "stateRewards": ["", 1, -4, -4, 8, 1, -79, 68, -10, -79, 8, -74, -1, -3, -6, 14, 43, 23, 9, 5, -51, 63, 61, -2, 4, 6, -10, 69, -32, 57, 15, -80, -80, -77], "withholdReward": false, "trial_id": "mdp_trial_13", "block": "test", "trialIndex": 14, "score": 54.6, "costs": -1.4, "simulationMode": [null, null, null, null, null], "rewards": [-1, -3, -6, 5, 61], "path": ["0", "0", "12", "13", "14", "19", "22"], "rt": [4233, 79, 104, 32, 122], "actions": ["right", "right", "right", "down", "left"], "actionTimes": [6182, 6773, 7397, 7941, 8597], "queries": {"click": {"state": {"target": ["22"], "time": [4003]}, "edge": {"target": [], "time": []}}, "mouseover": {"state": {"target": ["12", "13", "14", "19", "22", "19", "21"], "time": [2829, 2895, 2928, 3361, 3761, 4261, 4360]}, "edge": {"target": [], "time": []}}, "mouseout": {"state": {"target": ["0", "12", "13", "14", "19", "22", "19", "21"], "time": [1312, 2862, 2912, 3045, 3494, 4211, 4277, 6043]}, "edge": {"target": [], "time": []}}}, "displayed_time": "15.95", "trialTime": 18213, "trial_type": "mouselab-mdp", "trial_index": 21, "time_elapsed": 847024, "internal_node_id": "0.0-6.0-1.0-12.0"}}, {"uniqueid": "w99333353:a51711764", "current_trial": 22, "dateTime": 1693580881174, "trialdata": {"revealed_states": [], "clicked_states": ["5", "7", "10"], "num_clicks_accrued": [0, 0, 0, 0, 0, 0, 0, 0, 0, 0, 0, 0, 0], "stateRewards": ["", -1, -3, -7, -7, -76, 30, -49, 11, -70, 56, 2, 1, 4, -3, -14, -59, -83, -25, -9, -21, -67, -73, -2, 4, 4, -9, -11, -32, 60, 9, -87, 22, -64], "withholdReward": false, "trial_id": "mdp_trial_14", "block": "test", "trialIndex": 15, "score": -39.2, "costs": -4.199999999999999, "simulationMode": [null, null, null, null, null], "rewards": [-2, 4, 4, -9, -32], "path": ["0", "0", "23", "24", "25", "26", "28"], "rt": [7778, 596, 39, 114, 73], "actions": ["left", "left", "left", "up", "right"], "actionTimes": [10834, 11954, 12529, 13169, 13761], "queries": {"click": {"state": {"target": ["5", "7", "10"], "time": [4200, 6495, 8725]}, "edge": {"target": [], "time": []}}, "mouseover": {"state": {"target": ["1", "2", "3", "4", "5", "7", "1", "10"], "time": [3412, 3612, 3812, 3895, 4062, 6343, 7059, 8541]}, "edge": {"target": [], "time": []}}, "mouseout": {"state": {"target": ["21", "1", "1", "2", "3", "4", "5", "7", "1", "10", "0"], "time": [1147, 2296, 3429, 3728, 3828, 3978, 4478, 6709, 7076, 9024, 15135]}, "edge": {"target": [], "time": []}}}, "displayed_time": "17.06", "trialTime": 18577, "trial_type": "mouselab-mdp", "trial_index": 22, "time_elapsed": 865888, "internal_node_id": "0.0-6.0-1.0-13.0"}}, {"uniqueid": "w99333353:a51711764", "current_trial": 23, "dateTime": 1693580990391, "trialdata": {"revealed_states": [], "clicked_states": ["10", "7", "5"], "num_clicks_accrued": [0, 0, 0, 0, 0, 0, 0, 0, 0, 0, 0, 0, 0], "stateRewards": ["", 2, 3, 8, 14, 69, -27, 17, 2, -71, -65, -10, 2, -3, 7, 8, 65, -10, 65, -12, 73, -12, 13, -2, -2, 6, 10, -79, -69, -18, 10, -85, 67, 74], "withholdReward": false, "trial_id": "mdp_trial_15", "block": "test", "trialIndex": 16, "score": 91.8, "costs": -4.199999999999999, "simulationMode": [null, null, null, null, null], "rewards": [2, 3, 8, 14, 69], "path": ["0", "0", "1", "2", "3", "4", "5"], "rt": [7791, 83, 91, 85, 77], "actions": ["up", "up", "up", "right", "up"], "actionTimes": [10422, 11013, 11621, 12213, 12805], "queries": {"click": {"state": {"target": ["10", "7", "5"], "time": [3357, 5701, 8285]}, "edge": {"target": [], "time": []}}, "mouseover": {"state": {"target": ["1", "10", "2", "23", "22", "13", "18", "7", "16", "6", "5", "6"], "time": [2919, 3186, 3685, 4135, 4801, 5267, 5367, 5517, 6000, 8048, 8098, 9014]}, "edge": {"target": [], "time": []}}, "mouseout": {"state": {"target": ["0", "1", "10", "2", "23", "22", "13", "18", "7", "7", "16", "6", "5", "6", "6", "15", "22", "19"], "time": [1803, 2986, 3652, 3718, 4201, 5250, 5350, 5384, 5761, 5950, 7915, 8065, 8531, 19540, 105465, 105797, 106797, 106813]}, "edge": {"target": [], "time": []}}}, "displayed_time": "16.63", "trialTime": 108949, "trial_type": "mouselab-mdp", "trial_index": 23, "time_elapsed": 975104, "internal_node_id": "0.0-6.0-1.0-14.0"}}, {"uniqueid": "w99333353:a51711764", "current_trial": 24, "dateTime": 1693581009863, "trialdata": {"revealed_states": [], "clicked_states": ["27", "28", "31"], "num_clicks_accrued": [0, 0, 0, 0, 0, 0, 0, 0, 0, 0, 0, 0, 0], "stateRewards": ["", -2, 3, -1, -9, 44, 48, -37, -3, 71, -39, 87, -1, 3, -4, 4, -21, 59, -15, -8, -1, 28, -38, 2, 4, 4, 8, -85, -72, -63, 14, 58, 63, -46], "withholdReward": false, "trial_id": "mdp_trial_16", "block": "test", "trialIndex": 17, "score": 77.8, "costs": -4.199999999999999, "simulationMode": [null, null, null, null, null], "rewards": [2, 4, 4, 14, 58], "path": ["0", "0", "23", "24", "25", "30", "31"], "rt": [8630, 61, 73, 80, 89], "actions": ["left", "left", "left", "down", "right"], "actionTimes": [9937, 10512, 11088, 11680, 12288], "queries": {"click": {"state": {"target": ["27", "28", "31"], "time": [2764, 4914, 7180]}, "edge": {"target": [], "time": []}}, "mouseover": {"state": {"target": ["27", "28", "23", "31", "31"], "time": [2588, 4654, 5304, 5386, 6052]}, "edge": {"target": [], "time": []}}, "mouseout": {"state": {"target": ["13", "12", "0", "27", "28", "23", "31", "31"], "time": [540, 790, 2122, 3005, 5154, 5370, 5453, 7402]}, "edge": {"target": [], "time": []}}}, "displayed_time": "15.31", "trialTime": 19185, "trial_type": "mouselab-mdp", "trial_index": 24, "time_elapsed": 994577, "internal_node_id": "0.0-6.0-1.0-15.0"}}, {"uniqueid": "w99333353:a51711764", "current_trial": 25, "dateTime": 1693581028055, "trialdata": {"revealed_states": [], "clicked_states": ["21"], "num_clicks_accrued": [0, 0, 0, 0, 0, 0, 0, 0, 0, 0, 0, 0, 0], "stateRewards": ["", 1, -1, -7, -7, -22, 15, -13, 13, 26, -32, 38, -1, 1, -7, -4, 16, -62, 86, 12, -54, 56, 64, -2, -1, 6, 14, -57, 37, 62, -6, -25, 50, -70], "withholdReward": false, "trial_id": "mdp_trial_17", "block": "test", "trialIndex": 18, "score": 59.6, "costs": -1.4, "simulationMode": [null, null, null, null, null], "rewards": [-1, 1, -7, 12, 56], "path": ["0", "0", "12", "13", "14", "19", "21"], "rt": [3749, 10, 22, 17, 107], "actions": ["right", "right", "right", "down", "down"], "actionTimes": [4852, 5379, 5923, 6451, 7075], "queries": {"click": {"state": {"target": ["21"], "time": [2517]}, "edge": {"target": [], "time": []}}, "mouseover": {"state": {"target": ["12", "22", "21"], "time": [1870, 1953, 2270]}, "edge": {"target": [], "time": []}}, "mouseout": {"state": {"target": ["0", "12", "22", "21"], "time": [704, 1920, 2103, 2786]}, "edge": {"target": [], "time": []}}}, "displayed_time": "15.12", "trialTime": 17908, "trial_type": "mouselab-mdp", "trial_index": 25, "time_elapsed": 1012769, "internal_node_id": "0.0-6.0-1.0-16.0"}}, {"uniqueid": "w99333353:a51711764", "current_trial": 26, "dateTime": 1693581053591, "trialdata": {"revealed_states": [], "clicked_states": ["16", "18", "17", "20", "31", "33", "32"], "num_clicks_accrued": [0, 0, 0, 0, 0, 0, 0, 0, 0, 0, 0, 0, 0], "stateRewards": ["", -2, 2, -5, 1, 42, -63, -58, -6, 2, 16, 81, -2, 4, 7, -10, 33, 3, -33, -2, -52, -84, -27, 2, -3, -3, 15, -74, -14, -5, -5, -84, 79, -31], "withholdReward": false, "trial_id": "mdp_trial_18", "block": "test", "trialIndex": 19, "score": 60.2, "costs": -9.8, "simulationMode": [null, null, null, null, null], "rewards": [2, -3, -3, -5, 79], "path": ["0", "0", "23", "24", "25", "30", "32"], "rt": [17963, 462, 152, 3, 169], "actions": ["left", "left", "left", "down", "down"], "actionTimes": [19595, 20585, 21258, 21774, 22473], "queries": {"click": {"state": {"target": ["16", "18", "17", "20", "31", "33", "32"], "time": [2527, 5299, 7459, 9757, 12153, 14998, 17327]}, "edge": {"target": [], "time": []}}, "mouseover": {"state": {"target": ["12", "18", "15", "16", "15", "18", "18", "17", "20", "19", "22", "31", "33", "33", "32", "31", "24", "28"], "time": [1770, 1986, 2220, 2303, 4934, 5011, 5200, 7215, 9596, 11645, 11695, 12111, 14426, 14759, 16840, 17723, 17790, 18073]}, "edge": {"target": [], "time": []}}, "mouseout": {"state": {"target": ["21", "12", "0", "12", "18", "15", "16", "16", "15", "18", "18", "17", "20", "19", "22", "31", "33", "33", "32", "31", "24", "28", "0"], "time": [803, 1203, 1670, 1786, 2020, 2286, 2593, 2919, 4984, 5034, 5767, 9463, 11628, 11678, 11711, 14093, 14459, 15625, 17641, 17740, 17873, 19588, 21020]}, "edge": {"target": [], "time": []}}}, "displayed_time": "22.99", "trialTime": 25226, "trial_type": "mouselab-mdp", "trial_index": 26, "time_elapsed": 1038304, "internal_node_id": "0.0-6.0-1.0-17.0"}}, {"uniqueid": "w99333353:a51711764", "current_trial": 27, "dateTime": 1693581071079, "trialdata": {"revealed_states": [], "clicked_states": ["10", "7", "6"], "num_clicks_accrued": [0, 0, 0, 0, 0, 0, 0, 0, 0, 0, 0, 0, 0], "stateRewards": ["", -1, 2, 7, 8, 75, 67, -11, 6, 52, -17, 38, -1, 4, -8, 14, 74, -37, -17, -12, 52, 55, 71, -2, -1, -5, 2, 21, 6, -88, -14, 64, -61, -47], "withholdReward": false, "trial_id": "mdp_trial_19", "block": "test", "trialIndex": 20, "score": 78.8, "costs": -4.199999999999999, "simulationMode": [null, null, null, null, null], "rewards": [-1, 2, 7, 8, 67], "path": ["0", "0", "1", "2", "3", "4", "6"], "rt": [7746, 110, 135, 2, 39], "actions": ["up", "up", "up", "right", "right"], "actionTimes": [9246, 9870, 10510, 11028, 11598], "queries": {"click": {"state": {"target": ["10", "7", "6"], "time": [2477, 4715, 6973]}, "edge": {"target": [], "time": []}}, "mouseover": {"state": {"target": ["1", "10", "2", "7", "6"], "time": [1798, 2114, 2832, 4562, 6794]}, "edge": {"target": [], "time": []}}, "mouseout": {"state": {"target": ["21", "22", "0", "1", "10", "2", "7", "6"], "time": [748, 982, 1507, 1815, 2798, 2869, 6661, 7577]}, "edge": {"target": [], "time": []}}}, "displayed_time": "15.50", "trialTime": 17214, "trial_type": "mouselab-mdp", "trial_index": 27, "time_elapsed": 1055792, "internal_node_id": "0.0-6.0-1.0-18.0"}}, {"uniqueid": "w99333353:a51711764", "current_trial": 28, "dateTime": 1693581088951, "trialdata": {"revealed_states": [], "clicked_states": ["27", "28", "29", "31"], "num_clicks_accrued": [0, 0, 0, 0, 0, 0, 0, 0, 0, 0, 0, 0, 0], "stateRewards": ["", -1, -3, -5, -14, -13, -47, 79, 8, -60, -64, 41, -1, 2, 3, 13, -46, 61, -79, -11, -64, -65, 23, 1, -2, 6, -14, 46, 32, 21, 7, 75, -66, 15], "withholdReward": false, "trial_id": "mdp_trial_20", "block": "test", "trialIndex": 21, "score": 81.4, "costs": -5.6, "simulationMode": [null, null, null, null, null], "rewards": [1, -2, 6, 7, 75], "path": ["0", "0", "23", "24", "25", "30", "31"], "rt": [10313, 119, 95, 71, 80], "actions": ["left", "left", "left", "down", "right"], "actionTimes": [11886, 12509, 13117, 13693, 14285], "queries": {"click": {"state": {"target": ["27", "28", "29", "31"], "time": [2256, 4562, 7376, 9714]}, "edge": {"target": [], "time": []}}, "mouseover": {"state": {"target": ["27", "1", "28", "26", "29", "29", "25", "31"], "time": [2047, 3629, 3945, 6659, 6693, 7243, 8708, 9424]}, "edge": {"target": [], "time": []}}, "mouseout": {"state": {"target": ["16", "12", "27", "1", "28", "26", "29", "29", "25", "31"], "time": [747, 1014, 2480, 3712, 6611, 6676, 6743, 7775, 9307, 14819]}, "edge": {"target": [], "time": []}}}, "displayed_time": "15.57", "trialTime": 17532, "trial_type": "mouselab-mdp", "trial_index": 28, "time_elapsed": 1073664, "internal_node_id": "0.0-6.0-1.0-19.0"}}, {"uniqueid": "w99333353:a51711764", "current_trial": 29, "dateTime": 1693581110921, "trialdata": {"revealed_states": [], "clicked_states": ["7", "10", "6", "5", "28", "31"], "num_clicks_accrued": [0, 0, 0, 0, 0, 0, 0, 0, 0, 0, 0, 0, 0], "stateRewards": ["", 1, 1, 5, 6, -29, -7, 3, -16, 9, -46, 65, -1, 4, -1, -16, -63, -77, -87, 8, 80, -50, 43, -1, -1, -5, 5, -38, -71, -62, 9, 81, -50, -52], "withholdReward": false, "trial_id": "mdp_trial_21", "block": "test", "trialIndex": 22, "score": 74.6, "costs": -8.4, "simulationMode": [null, null, null, null, null], "rewards": [-1, -1, -5, 9, 81], "path": ["0", "0", "23", "24", "25", "30", "31"], "rt": [15298, 84, 30, 87, 96], "actions": ["left", "left", "left", "down", "right"], "actionTimes": [16971, 17563, 18123, 18747, 19355], "queries": {"click": {"state": {"target": ["7", "10", "6", "5", "28", "31"], "time": [3064, 5189, 7170, 9461, 12579, 14686]}, "edge": {"target": [], "time": []}}, "mouseover": {"state": {"target": ["12", "7", "2", "10", "2", "6", "5", "7", "28", "24", "28", "31", "32"], "time": [2005, 2921, 4820, 5036, 5369, 5719, 9368, 11530, 11680, 12130, 12480, 14361, 16460]}, "edge": {"target": [], "time": []}}, "mouseout": {"state": {"target": ["0", "12", "7", "2", "10", "2", "7", "6", "5", "6", "7", "28", "24", "28", "31", "31", "32"], "time": [1990, 2138, 3655, 4853, 5352, 5419, 5536, 7534, 9649, 11414, 11547, 11780, 12380, 12846, 14861, 15761, 16859]}, "edge": {"target": [], "time": []}}}, "displayed_time": "19.88", "trialTime": 21677, "trial_type": "mouselab-mdp", "trial_index": 29, "time_elapsed": 1095635, "internal_node_id": "0.0-6.0-1.0-20.0"}}, {"uniqueid": "w99333353:a51711764", "current_trial": 30, "dateTime": 1693581133479, "trialdata": {"revealed_states": [], "clicked_states": ["29"], "num_clicks_accrued": [0, 0, 0, 0, 0, 0, 0, 0, 0, 0, 0, 0, 0], "stateRewards": ["", 2, -4, 7, 3, 23, -42, 4, 7, -81, -33, 7, -2, -4, 5, -1, 50, -57, -14, -13, -14, 44, 55, -2, -2, 5, -2, 33, 1, 57, -13, -7, 58, 87], "withholdReward": false, "trial_id": "mdp_trial_22", "block": "test", "trialIndex": 23, "score": 54.6, "costs": -1.4, "simulationMode": [null, null, null, null, null], "rewards": [-2, -2, 5, -2, 57], "path": ["0", "0", "23", "24", "25", "26", "29"], "rt": [3502, 16, 141, 67, 189], "actions": ["left", "left", "left", "up", "left"], "actionTimes": [5294, 5822, 6494, 7070, 7774], "queries": {"click": {"state": {"target": ["29"], "time": [2794]}, "edge": {"target": [], "time": []}}, "mouseover": {"state": {"target": ["12", "24", "26", "29", "26", "23", "26", "27"], "time": [1972, 2354, 2521, 2688, 3005, 3071, 3854, 4037]}, "edge": {"target": [], "time": []}}, "mouseout": {"state": {"target": ["0", "12", "24", "26", "29", "26", "23", "26", "27", "28", "25"], "time": [1488, 2155, 2421, 2638, 2988, 3021, 3804, 3937, 5486, 9998, 15460]}, "edge": {"target": [], "time": []}}}, "displayed_time": "15.79", "trialTime": 22270, "trial_type": "mouselab-mdp", "trial_index": 30, "time_elapsed": 1118193, "internal_node_id": "0.0-6.0-1.0-21.0"}}, {"uniqueid": "w99333353:a51711764", "current_trial": 31, "dateTime": 1693581173207, "trialdata": {"revealed_states": [], "clicked_states": ["7"], "num_clicks_accrued": [0, 0, 0, 0, 0, 0, 0, 0, 0, 0, 0, 0, 0], "stateRewards": ["", 2, -3, -8, 14, -7, -51, 73, 2, 36, 36, -43, -1, 3, -4, 1, 6, 87, -65, 15, 61, -42, -83, -1, 3, -2, -7, 30, -48, 35, 13, 26, 60, 78], "withholdReward": false, "trial_id": "mdp_trial_23", "block": "test", "trialIndex": 24, "score": 76.6, "costs": -1.4, "simulationMode": [null, null, null, null, null], "rewards": [2, -3, -8, 14, 73], "path": ["0", "0", "1", "2", "3", "4", "7"], "rt": [3515, 210, 54, 65, 105], "actions": ["up", "up", "up", "right", "down"], "actionTimes": [5576, 6295, 6855, 7447, 8071], "queries": {"click": {"state": {"target": ["7"], "time": [3221]}, "edge": {"target": [], "time": []}}, "mouseover": {"state": {"target": ["7", "18"], "time": [3052, 3934]}, "edge": {"target": [], "time": []}}, "mouseout": {"state": {"target": ["0", "7", "18", "17"], "time": [1769, 3668, 4234, 21070]}, "edge": {"target": [], "time": []}}}, "displayed_time": "16.06", "trialTime": 39415, "trial_type": "mouselab-mdp", "trial_index": 31, "time_elapsed": 1157921, "internal_node_id": "0.0-6.0-1.0-22.0"}}, {"uniqueid": "w99333353:a51711764", "current_trial": 32, "dateTime": 1693581203943, "trialdata": {"revealed_states": [], "clicked_states": ["5", "7", "10", "28", "29", "27", "31", "32", "33"], "num_clicks_accrued": [0, 0, 0, 0, 0, 0, 0, 0, 0, 0, 0, 0, 0], "stateRewards": ["", 2, -2, 7, -11, -76, -65, -23, 16, -58, 30, 81, 1, 2, 7, 14, 9, 55, -2, 6, 11, -15, 31, -1, -1, -3, 2, 15, 2, 46, 15, 18, 45, -34], "withholdReward": false, "trial_id": "mdp_trial_24", "block": "test", "trialIndex": 25, "score": 42.4, "costs": -12.600000000000001, "simulationMode": [null, null, null, null, null], "rewards": [-1, -1, -3, 15, 45], "path": ["0", "0", "23", "24", "25", "30", "32"], "rt": [20450, 395, 136, 111, 182], "actions": ["left", "left", "left", "down", "down"], "actionTimes": [22770, 23681, 24337, 24961, 25649], "queries": {"click": {"state": {"target": ["5", "7", "10", "28", "29", "27", "31", "32", "33"], "time": [3560, 5854, 7757, 9753, 12818, 14831, 16733, 18696, 20809]}, "edge": {"target": [], "time": []}}, "mouseover": {"state": {"target": ["6", "5", "4", "7", "2", "10", "1", "28", "26", "27", "29", "29", "26", "27", "24", "31", "31", "32", "33", "33", "30"], "time": [3183, 3433, 5515, 5598, 6581, 6664, 8096, 8629, 10327, 10428, 12359, 12678, 13075, 13575, 15373, 15540, 15723, 17288, 19570, 19986, 21118]}, "edge": {"target": [], "time": []}}, "mouseout": {"state": {"target": ["14", "13", "13", "12", "0", "6", "5", "4", "7", "2", "10", "1", "28", "26", "27", "29", "29", "26", "27", "24", "31", "31", "32", "33", "33", "30"], "time": [735, 785, 1802, 1867, 2591, 3250, 5498, 5581, 6414, 6631, 8063, 8130, 10294, 10366, 11759, 12376, 13042, 13092, 15123, 15473, 15557, 17060, 19503, 19608, 21102, 21168]}, "edge": {"target": [], "time": []}}}, "displayed_time": "26.17", "trialTime": 30417, "trial_type": "mouselab-mdp", "trial_index": 32, "time_elapsed": 1188657, "internal_node_id": "0.0-6.0-1.0-23.0"}}, {"uniqueid": "w99333353:a51711764", "current_trial": 33, "dateTime": 1693581224423, "trialdata": {"revealed_states": [], "clicked_states": ["21", "22"], "num_clicks_accrued": [0, 0, 0, 0, 0, 0, 0, 0, 0, 0, 0, 0, 0], "stateRewards": ["", -1, 2, 5, -6, 13, -64, -47, 8, -79, -80, -33, 1, 2, -2, -16, 56, -71, -10, 3, 29, 44, 85, -1, 4, 5, 4, -36, -56, 19, 8, 52, -13, -2], "withholdReward": false, "trial_id": "mdp_trial_25", "block": "test", "trialIndex": 26, "score": 86.2, "costs": -2.8, "simulationMode": [null, null, null, null, null], "rewards": [1, 2, -2, 3, 85], "path": ["0", "0", "12", "13", "14", "19", "22"], "rt": [5016, 99, 124, 100, 140], "actions": ["right", "right", "right", "down", "left"], "actionTimes": [9013, 9621, 10261, 10869, 11525], "queries": {"click": {"state": {"target": ["21", "22"], "time": [4700, 7032]}, "edge": {"target": [], "time": []}}, "mouseover": {"state": {"target": ["12", "13", "22", "21", "22"], "time": [4074, 4124, 4291, 4407, 6905]}, "edge": {"target": [], "time": []}}, "mouseout": {"state": {"target": ["19", "22", "0", "0", "12", "13", "22", "21", "21", "22", "21"], "time": [2791, 2824, 3041, 4057, 4107, 4274, 4323, 5007, 5223, 7471, 7587]}, "edge": {"target": [], "time": []}}}, "displayed_time": "18.00", "trialTime": 20181, "trial_type": "mouselab-mdp", "trial_index": 33, "time_elapsed": 1209137, "internal_node_id": "0.0-6.0-1.0-24.0"}}, {"uniqueid": "w99333353:a51711764", "current_trial": 34, "dateTime": 1693581247400, "trialdata": {"revealed_states": [], "clicked_states": ["9", "10", "7"], "num_clicks_accrued": [0, 0, 0, 0, 0, 0, 0, 0, 0, 0, 0, 0, 0], "stateRewards": ["", 1, 4, 5, -5, 58, -80, 75, 6, 25, -39, 46, 2, -2, 4, 2, 59, 31, -22, -12, -61, 15, 72, 1, -2, -7, 8, 77, 76, -23, -7, 71, -15, -3], "withholdReward": false, "trial_id": "mdp_trial_26", "block": "test", "trialIndex": 27, "score": 75.8, "costs": -4.199999999999999, "simulationMode": [null, null, null, null, null], "rewards": [1, 4, 5, -5, 75], "path": ["0", "0", "1", "2", "3", "4", "7"], "rt": [7581, 86, 94, 39, 81], "actions": ["up", "up", "up", "right", "down"], "actionTimes": [9288, 9879, 10503, 11047, 11639], "queries": {"click": {"state": {"target": ["9", "10", "7"], "time": [2933, 5136, 7041]}, "edge": {"target": [], "time": []}}, "mouseover": {"state": {"target": ["1", "2", "9", "1", "10", "7", "18"], "time": [2264, 2330, 2797, 4545, 4978, 5811, 7859]}, "edge": {"target": [], "time": []}}, "mouseout": {"state": {"target": ["0", "1", "2", "9", "1", "10", "7", "18", "7"], "time": [1181, 2281, 2447, 3213, 4879, 5361, 7343, 9491, 9541]}, "edge": {"target": [], "time": []}}}, "displayed_time": "15.71", "trialTime": 22663, "trial_type": "mouselab-mdp", "trial_index": 34, "time_elapsed": 1232113, "internal_node_id": "0.0-6.0-1.0-25.0"}}, {"uniqueid": "w99333353:a51711764", "current_trial": 35, "dateTime": 1693581266471, "trialdata": {"revealed_states": [], "clicked_states": ["28", "31"], "num_clicks_accrued": [0, 0, 0, 0, 0, 0, 0, 0, 0, 0, 0, 0, 0], "stateRewards": ["", 1, -3, -4, -11, -56, 61, -47, -16, -28, -9, 69, -2, -3, -4, -8, 40, -86, 59, -4, 80, 27, 54, -1, 3, -1, 8, 67, 23, 50, 6, 83, -43, -29], "withholdReward": false, "trial_id": "mdp_trial_27", "block": "test", "trialIndex": 28, "score": 87.2, "costs": -2.8, "simulationMode": [null, null, null, null, null], "rewards": [-1, 3, -1, 6, 83], "path": ["0", "0", "23", "24", "25", "30", "31"], "rt": [6447, 196, 73, 66, 107], "actions": ["left", "left", "left", "down", "right"], "actionTimes": [9107, 9827, 10419, 10995, 11635], "queries": {"click": {"state": {"target": ["28", "31"], "time": [4594, 7022]}, "edge": {"target": [], "time": []}}, "mouseover": {"state": {"target": ["23", "24", "26", "28", "31", "30", "25", "29", "27"], "time": [3766, 3816, 4083, 4415, 6880, 7680, 7713, 7747, 8978]}, "edge": {"target": [], "time": []}}, "mouseout": {"state": {"target": ["23", "24", "26", "28", "31", "30", "25", "29", "27", "24"], "time": [3799, 3833, 4249, 6630, 7496, 7696, 7729, 7779, 8995, 9478]}, "edge": {"target": [], "time": []}}}, "displayed_time": "16.66", "trialTime": 18675, "trial_type": "mouselab-mdp", "trial_index": 35, "time_elapsed": 1251185, "internal_node_id": "0.0-6.0-1.0-26.0"}}, {"uniqueid": "w99333353:a51711764", "current_trial": 36, "dateTime": 1693581287064, "trialdata": {"revealed_states": [], "clicked_states": ["10", "7"], "num_clicks_accrued": [0, 0, 0, 0, 0, 0, 0, 0, 0, 0, 0, 0, 0], "stateRewards": ["", -2, 4, -3, -13, 63, -36, 62, 11, 78, 34, -51, 2, -2, 8, -6, -40, -18, 31, 9, 64, 39, 79, 1, 4, -4, 15, -12, 76, 73, -10, -77, 86, -4], "withholdReward": false, "trial_id": "mdp_trial_28", "block": "test", "trialIndex": 29, "score": 45.2, "costs": -2.8, "simulationMode": [null, null, null, null, null], "rewards": [-2, 4, -3, -13, 62], "path": ["0", "0", "1", "2", "3", "4", "7"], "rt": [5024, 74, 83, 43, 117], "actions": ["up", "up", "up", "right", "down"], "actionTimes": [9206, 9797, 10389, 10949, 11589], "queries": {"click": {"state": {"target": ["10", "7"], "time": [4934, 7020]}, "edge": {"target": [], "time": []}}, "mouseover": {"state": {"target": ["1", "2", "8", "10", "2", "7", "6"], "time": [4277, 4359, 4726, 4859, 5265, 6524, 8656]}, "edge": {"target": [], "time": []}}, "mouseout": {"state": {"target": ["22", "12", "13", "1", "2", "8", "10", "2", "7", "6", "16", "18", "22"], "time": [762, 2477, 2860, 4309, 4526, 4792, 5017, 5392, 7373, 9571, 18747, 18797, 19147]}, "edge": {"target": [], "time": []}}}, "displayed_time": "18.18", "trialTime": 20277, "trial_type": "mouselab-mdp", "trial_index": 36, "time_elapsed": 1271777, "internal_node_id": "0.0-6.0-1.0-27.0"}}, {"uniqueid": "w99333353:a51711764", "current_trial": 37, "dateTime": 1693581305303, "trialdata": {"revealed_states": [], "clicked_states": ["31", "32"], "num_clicks_accrued": [0, 0, 0, 0, 0, 0, 0, 0, 0, 0, 0, 0, 0], "stateRewards": ["", 2, -1, -4, -13, 74, 77, 3, 2, -43, -2, -11, 2, 3, 7, 11, -26, -29, -33, -3, -3, -13, -3, 1, 3, -7, 14, -59, 33, 9, -5, 34, 79, 68], "withholdReward": false, "trial_id": "mdp_trial_29", "block": "test", "trialIndex": 30, "score": 68.2, "costs": -2.8, "simulationMode": [null, null, null, null, null], "rewards": [1, 3, -7, -5, 79], "path": ["0", "0", "23", "24", "25", "30", "32"], "rt": [6428, 41, 115, 75, 116], "actions": ["left", "left", "left", "down", "down"], "actionTimes": [8220, 8779, 9419, 10011, 10635], "queries": {"click": {"state": {"target": ["31", "32"], "time": [4142, 6186]}, "edge": {"target": [], "time": []}}, "mouseover": {"state": {"target": ["12", "0", "23", "24", "25", "28", "24", "31", "31", "32", "33", "33"], "time": [2274, 2541, 2574, 2608, 2641, 2941, 3190, 3224, 3796, 5072, 6521, 6837]}, "edge": {"target": [], "time": []}}, "mouseout": {"state": {"target": ["12", "0", "12", "0", "23", "24", "25", "28", "24", "31", "31", "31", "32", "33", "33", "30"], "time": [1258, 2208, 2524, 2558, 2591, 2624, 2708, 3174, 3207, 3291, 4589, 4873, 6455, 6554, 8519, 8586]}, "edge": {"target": [], "time": []}}}, "displayed_time": "15.79", "trialTime": 17915, "trial_type": "mouselab-mdp", "trial_index": 37, "time_elapsed": 1290017, "internal_node_id": "0.0-6.0-1.0-28.0"}}, {"uniqueid": "w99333353:a51711764", "current_trial": 38, "dateTime": 1693581324631, "trialdata": {"revealed_states": [], "clicked_states": ["32", "31", "22", "21"], "num_clicks_accrued": [0, 0, 0, 0, 0, 0, 0, 0, 0, 0, 0, 0, 0], "stateRewards": ["", -1, 2, -2, 13, -56, -28, 10, 14, 53, -80, -29, 1, -3, -3, -14, 14, 9, -40, -9, 18, 18, 48, 1, 1, 1, -9, 64, -39, -9, 7, -52, -78, 7], "withholdReward": false, "trial_id": "mdp_trial_30", "block": "test", "trialIndex": 31, "score": 28.4, "costs": -5.6, "simulationMode": [null, null, null, null, null], "rewards": [1, -3, -3, -9, 48], "path": ["0", "0", "12", "13", "14", "19", "22"], "rt": [10172, 33, 157, 18, 172], "actions": ["right", "right", "right", "down", "left"], "actionTimes": [13457, 14000, 14672, 15200, 15904], "queries": {"click": {"state": {"target": ["32", "31", "22", "21"], "time": [4015, 6185, 8620, 10777]}, "edge": {"target": [], "time": []}}, "mouseover": {"state": {"target": ["23", "31", "32", "31", "22", "19", "21", "20"], "time": [3607, 3689, 3922, 5971, 8419, 8968, 9185, 11250]}, "edge": {"target": [], "time": []}}, "mouseout": {"state": {"target": ["0", "23", "31", "32", "31", "22", "19", "21", "20"], "time": [3590, 3639, 3706, 4088, 6427, 8902, 9051, 11067, 16580]}, "edge": {"target": [], "time": []}}}, "displayed_time": "17.29", "trialTime": 19008, "trial_type": "mouselab-mdp", "trial_index": 38, "time_elapsed": 1309345, "internal_node_id": "0.0-6.0-1.0-29.0"}}, {"uniqueid": "w99333353:a51711764", "current_trial": 39, "dateTime": 1693581346903, "trialdata": {"revealed_states": [], "clicked_states": ["16", "5", "7", "10", "28", "27"], "num_clicks_accrued": [0, 0, 0, 0, 0, 0, 0, 0, 0, 0, 0, 0, 0], "stateRewards": ["", 1, 2, 8, -2, 23, -69, -18, -16, 54, -21, 71, -1, -4, 7, 11, 43, -6, 88, 6, -55, 72, 43, 1, -3, -2, -1, 68, -31, -54, 4, -8, 25, -2], "withholdReward": false, "trial_id": "mdp_trial_31", "block": "test", "trialIndex": 32, "score": 54.6, "costs": -8.4, "simulationMode": [null, null, null, null, null], "rewards": [1, -3, -2, -1, 68], "path": ["0", "0", "23", "24", "25", "26", "27"], "rt": [14317, 53, 159, 101, 173], "actions": ["left", "left", "left", "up", "up"], "actionTimes": [16495, 17054, 17742, 18350, 19038], "queries": {"click": {"state": {"target": ["16", "5", "7", "10", "28", "27"], "time": [3013, 6283, 8503, 10441, 12333, 14231]}, "edge": {"target": [], "time": []}}, "mouseover": {"state": {"target": ["18", "16", "18", "4", "5", "6", "7", "10", "28", "27", "26", "29"], "time": [2344, 2893, 5441, 5958, 6041, 6890, 7474, 9438, 11218, 12819, 14650, 15000]}, "edge": {"target": [], "time": []}}, "mouseout": {"state": {"target": ["20", "21", "19", "13", "0", "18", "16", "18", "4", "5", "6", "7", "7", "10", "28", "27", "26"], "time": [1028, 1361, 1394, 1427, 2198, 2577, 3260, 5458, 5974, 6574, 6940, 8573, 9139, 10820, 12411, 14617, 14917]}, "edge": {"target": [], "time": []}}}, "displayed_time": "19.55", "trialTime": 21950, "trial_type": "mouselab-mdp", "trial_index": 39, "time_elapsed": 1331617, "internal_node_id": "0.0-6.0-1.0-30.0"}}, {"uniqueid": "w99333353:a51711764", "current_trial": 40, "dateTime": 1693581363351, "trialdata": {"revealed_states": [], "clicked_states": ["29", "28", "31", "32"], "num_clicks_accrued": [0, 0, 0, 0, 0, 0, 0, 0, 0, 0, 0, 0, 0], "stateRewards": ["", -2, -1, -4, -15, -14, -67, 32, -3, -59, 63, 31, 2, -1, -7, -15, 71, -66, -27, -3, -54, -39, 72, 2, 1, 1, -13, 77, -40, 35, -9, 35, 75, 57], "withholdReward": false, "trial_id": "mdp_trial_32", "block": "test", "trialIndex": 33, "score": 64.4, "costs": -5.6, "simulationMode": [null, null, null, null, null], "rewards": [2, 1, 1, -9, 75], "path": ["0", "0", "23", "24", "25", "30", "32"], "rt": [8741, 92, 70, 95, 88], "actions": ["left", "left", "left", "down", "down"], "actionTimes": [9973, 10581, 11158, 11764, 12357], "queries": {"click": {"state": {"target": ["29", "28", "31", "32"], "time": [1878, 3859, 5794, 7779]}, "edge": {"target": [], "time": []}}, "mouseover": {"state": {"target": ["23", "24", "25", "29", "26", "28", "24", "24", "31", "32", "33"], "time": [1443, 1493, 1543, 1643, 2109, 2626, 4275, 4574, 4774, 6506, 8421]}, "edge": {"target": [], "time": []}}, "mouseout": {"state": {"target": ["29", "26", "28", "1", "18", "15", "18", "23", "24", "25", "29", "26", "28", "24", "24", "31", "31", "32", "32", "33", "25", "0", "19"], "time": [361, 427, 477, 527, 593, 727, 776, 1460, 1526, 1593, 2093, 2126, 4241, 4441, 4724, 6073, 6356, 8004, 8154, 14665, 14699, 15198, 15265]}, "edge": {"target": [], "time": []}}}, "displayed_time": "15.23", "trialTime": 16149, "trial_type": "mouselab-mdp", "trial_index": 40, "time_elapsed": 1348065, "internal_node_id": "0.0-6.0-1.0-31.0"}}, {"uniqueid": "w99333353:a51711764", "current_trial": 41, "dateTime": 1693581380759, "trialdata": {"revealed_states": [], "clicked_states": ["29", "28", "27", "31"], "num_clicks_accrued": [0, 0, 0, 0, 0, 0, 0, 0, 0, 0, 0, 0, 0], "stateRewards": ["", 1, 3, -2, 15, 51, 15, -19, 11, 67, -45, -73, 2, 4, -2, -13, 36, 9, -28, 10, -30, 31, 16, 1, 2, -1, -16, 14, -22, 36, -1, 88, -5, 45], "withholdReward": false, "trial_id": "mdp_trial_33", "block": "test", "trialIndex": 34, "score": 83.4, "costs": -5.6, "simulationMode": [null, null, null, null, null], "rewards": [1, 2, -1, -1, 88], "path": ["0", "0", "23", "24", "25", "30", "31"], "rt": [9027, 162, 88, 17, 75], "actions": ["left", "left", "left", "down", "right"], "actionTimes": [10978, 11649, 12257, 12785, 13377], "queries": {"click": {"state": {"target": ["29", "28", "27", "31"], "time": [2686, 4735, 6782, 8752]}, "edge": {"target": [], "time": []}}, "mouseover": {"state": {"target": ["28", "26", "29", "26", "28", "0", "0", "23", "27", "24", "31", "22"], "time": [2060, 2093, 2526, 2926, 4410, 5207, 5324, 5441, 6109, 7289, 7489, 9703]}, "edge": {"target": [], "time": []}}, "mouseout": {"state": {"target": ["19", "12", "0", "23", "31", "24", "0", "28", "26", "29", "26", "28", "0", "0", "23", "28", "27", "27", "28", "24", "31", "31", "22", "31", "22"], "time": [444, 594, 694, 744, 1310, 1393, 2010, 2077, 2160, 2910, 2943, 5074, 5307, 5357, 5758, 5907, 6835, 7139, 7206, 7305, 8793, 9121, 10237, 15698, 15831]}, "edge": {"target": [], "time": []}}}, "displayed_time": "15.95", "trialTime": 17105, "trial_type": "mouselab-mdp", "trial_index": 41, "time_elapsed": 1365473, "internal_node_id": "0.0-6.0-1.0-32.0"}}, {"uniqueid": "w99333353:a51711764", "current_trial": 42, "dateTime": 1693581397655, "trialdata": {"revealed_states": [], "clicked_states": ["33", "32", "27", "28"], "num_clicks_accrued": [0, 0, 0, 0, 0, 0, 0, 0, 0, 0, 0, 0, 0], "stateRewards": ["", -1, -3, -6, -2, -7, 80, -45, -3, -38, -72, 76, 2, 1, 7, 4, -62, 14, -74, 14, -87, -21, -88, -2, 1, -7, -10, 66, 56, -76, 10, -29, -72, -70], "withholdReward": false, "trial_id": "mdp_trial_34", "block": "test", "trialIndex": 35, "score": 42.4, "costs": -5.6, "simulationMode": [null, null, null, null, null], "rewards": [-2, 1, -7, -10, 66], "path": ["0", "0", "23", "24", "25", "26", "27"], "rt": [9332, 504, 145, 86, 112], "actions": ["left", "left", "left", "up", "up"], "actionTimes": [10542, 11565, 12221, 12813, 13437], "queries": {"click": {"state": {"target": ["33", "32", "27", "28"], "time": [2178, 4430, 6617, 8529]}, "edge": {"target": [], "time": []}}, "mouseover": {"state": {"target": ["0", "23", "30", "33", "30", "31", "30", "32", "24", "26", "27", "28"], "time": [1434, 1583, 1733, 2033, 2982, 3075, 4064, 4231, 4964, 6313, 6413, 7046]}, "edge": {"target": [], "time": []}}, "mouseout": {"state": {"target": ["22", "0", "0", "23", "30", "33", "30", "31", "30", "32", "24", "26", "27", "28", "23"], "time": [501, 967, 1567, 1600, 1905, 2240, 3049, 4031, 4181, 4497, 6225, 6379, 6846, 8827, 15638]}, "edge": {"target": [], "time": []}}}, "displayed_time": "15.21", "trialTime": 16589, "trial_type": "mouselab-mdp", "trial_index": 42, "time_elapsed": 1382369, "internal_node_id": "0.0-6.0-1.0-33.0"}}, {"uniqueid": "w99333353:a51711764", "current_trial": 43, "dateTime": 1693581415271, "trialdata": {"revealed_states": [], "clicked_states": [], "num_clicks_accrued": [0, 0, 0, 0, 0, 0, 0, 0, 0, 0, 0, 0, 0], "stateRewards": ["", -2, -1, -3, -1, -78, -6, 2, -1, 22, -88, 32, 2, 2, -7, -8, -51, -17, 54, 2, -44, 54, 75, 2, -2, -8, -15, -29, 12, -67, 15, -1, -47, -47], "withholdReward": false, "trial_id": "mdp_trial_35", "block": "test", "trialIndex": 36, "score": -40, "costs": 0, "simulationMode": [null, null, null, null, null], "rewards": [2, -2, -8, 15, -47], "path": ["0", "0", "23", "24", "25", "30", "33"], "rt": [812, 391, 114, 265, 108], "actions": ["left", "left", "left", "down", "left"], "actionTimes": [2316, 3212, 3836, 4620, 5246], "queries": {"click": {"state": {"target": [], "time": []}, "edge": {"target": [], "time": []}}, "mouseover": {"state": {"target": [], "time": []}, "edge": {"target": [], "time": []}}, "mouseout": {"state": {"target": ["0", "0", "23", "31", "30"], "time": [888, 4485, 4735, 4935, 5185]}, "edge": {"target": [], "time": []}}}, "displayed_time": "15.51", "trialTime": 17324, "trial_type": "mouselab-mdp", "trial_index": 43, "time_elapsed": 1399985, "internal_node_id": "0.0-6.0-1.0-34.0"}}, {"uniqueid": "w99333353:a51711764", "current_trial": 44, "dateTime": 1693581436631, "trialdata": {"revealed_states": [], "clicked_states": ["32", "33", "31", "28", "27", "29", "10"], "num_clicks_accrued": [0, 0, 0, 0, 0, 0, 0, 0, 0, 0, 0, 0, 0], "stateRewards": ["", -2, 1, -7, 9, 8, 25, 61, -7, -17, 69, -81, 1, 4, -4, -11, 16, 67, 44, 3, 6, -45, -54, -2, 3, 6, -11, -15, 32, -47, 3, -39, -6, -88], "withholdReward": false, "trial_id": "mdp_trial_36", "block": "test", "trialIndex": 37, "score": 44.2, "costs": -9.8, "simulationMode": [null, null, null, null, null], "rewards": [-2, 1, -7, -7, 69], "path": ["0", "0", "1", "2", "3", "8", "10"], "rt": [14876, 113, 73, 4, 45], "actions": ["up", "up", "up", "left", "down"], "actionTimes": [16588, 17211, 17819, 18332, 18907], "queries": {"click": {"state": {"target": ["32", "33", "31", "28", "27", "29", "10"], "time": [2470, 4884, 6778, 8660, 10559, 12464, 14382]}, "edge": {"target": [], "time": []}}, "mouseover": {"state": {"target": ["0", "32", "31", "30", "33", "30", "31", "12", "13", "12", "28", "1", "18", "18", "10", "27", "29", "26", "2", "10", "10", "1", "1", "7"], "time": [1923, 2356, 3023, 4388, 4421, 5187, 5420, 7219, 7386, 7586, 7952, 9001, 9201, 9318, 9617, 9867, 11116, 12748, 13198, 13231, 13481, 14813, 15112, 15378]}, "edge": {"target": [], "time": []}}, "mouseout": {"state": {"target": ["0", "12", "13", "0", "0", "0", "0", "32", "31", "30", "33", "30", "31", "12", "13", "12", "28", "1", "18", "18", "10", "27", "29", "26", "28", "2", "10", "10", "1", "1", "7", "4", "6"], "time": [257, 307, 424, 557, 1381, 1473, 1957, 2756, 4355, 4405, 5154, 5254, 7119, 7369, 7519, 7602, 8724, 9101, 9234, 9351, 9634, 10817, 12731, 12764, 12815, 13214, 13264, 14696, 14896, 15129, 16894, 16911, 17127]}, "edge": {"target": [], "time": []}}}, "displayed_time": "19.43", "trialTime": 21035, "trial_type": "mouselab-mdp", "trial_index": 44, "time_elapsed": 1421345, "internal_node_id": "0.0-6.0-1.0-35.0"}}, {"uniqueid": "w99333353:a51711764", "current_trial": 45, "dateTime": 1693581456695, "trialdata": {"revealed_states": [], "clicked_states": ["17", "18", "32", "31", "33", "27"], "num_clicks_accrued": [0, 0, 0, 0, 0, 0, 0, 0, 0, 0, 0, 0, 0], "stateRewards": ["", -2, -4, -8, 8, 63, -50, -19, -7, -17, -31, 31, 1, 3, -5, 12, -35, -63, -29, -4, -17, -75, -79, -2, -3, -2, 8, -3, -85, 10, -2, -82, -82, 56], "withholdReward": false, "trial_id": "mdp_trial_37", "block": "test", "trialIndex": 38, "score": 38.6, "costs": -8.4, "simulationMode": [null, null, null, null, null], "rewards": [-2, -3, -2, -2, 56], "path": ["0", "0", "23", "24", "25", "30", "33"], "rt": [12468, 28, 70, 800, 44], "actions": ["left", "left", "left", "down", "left"], "actionTimes": [14999, 15542, 16118, 17430, 17990], "queries": {"click": {"state": {"target": ["17", "18", "32", "31", "33", "27"], "time": [3147, 5429, 7365, 9241, 11074, 13083]}, "edge": {"target": [], "time": []}}, "mouseover": {"state": {"target": ["12", "15", "17", "15", "18", "18", "12", "32", "31", "33", "33", "30", "24", "25", "26", "27", "29"], "time": [2806, 2872, 2906, 3822, 3872, 5237, 5720, 6137, 7752, 9916, 10200, 11399, 11550, 11715, 11865, 12181, 13980]}, "edge": {"target": [], "time": []}}, "mouseout": {"state": {"target": ["12", "15", "17", "15", "18", "18", "12", "32", "31", "33", "33", "30", "24", "25", "26", "27", "29", "26", "28", "2"], "time": [2822, 2889, 3805, 3855, 3922, 5670, 5737, 7652, 9667, 10066, 11372, 11432, 11648, 11815, 11887, 13447, 18592, 18659, 18692, 18959]}, "edge": {"target": [], "time": []}}}, "displayed_time": "18.51", "trialTime": 19734, "trial_type": "mouselab-mdp", "trial_index": 45, "time_elapsed": 1441409, "internal_node_id": "0.0-6.0-1.0-36.0"}}, {"uniqueid": "w99333353:a51711764", "current_trial": 46, "dateTime": 1693581475495, "trialdata": {"revealed_states": [], "clicked_states": ["29", "32", "31"], "num_clicks_accrued": [0, 0, 0, 0, 0, 0, 0, 0, 0, 0, 0, 0, 0], "stateRewards": ["", -2, 3, 8, -9, 59, 41, -50, -1, 82, 66, 33, 2, -2, 7, 8, 1, -38, 12, -16, 24, -37, 67, 1, 4, -2, 5, 35, -83, 28, 8, -27, 69, -64], "withholdReward": false, "trial_id": "mdp_trial_38", "block": "test", "trialIndex": 39, "score": 75.8, "costs": -4.199999999999999, "simulationMode": [null, null, null, null, null], "rewards": [1, 4, -2, 8, 69], "path": ["0", "0", "23", "24", "25", "30", "32"], "rt": [6813, 60, 69, 383, 107], "actions": ["left", "left", "left", "down", "down"], "actionTimes": [9209, 9784, 10376, 11272, 11896], "queries": {"click": {"state": {"target": ["29", "32", "31"], "time": [3213, 5219, 7289]}, "edge": {"target": [], "time": []}}, "mouseover": {"state": {"target": ["26", "29", "24", "30", "32", "31"], "time": [2894, 3077, 3543, 3727, 4010, 5925]}, "edge": {"target": [], "time": []}}, "mouseout": {"state": {"target": ["1", "1", "0", "26", "29", "24", "30", "32", "31"], "time": [196, 962, 1928, 3044, 3460, 3661, 3827, 5542, 7773]}, "edge": {"target": [], "time": []}}}, "displayed_time": "16.40", "trialTime": 18456, "trial_type": "mouselab-mdp", "trial_index": 46, "time_elapsed": 1460209, "internal_node_id": "0.0-6.0-1.0-37.0"}}, {"uniqueid": "w99333353:a51711764", "current_trial": 47, "dateTime": 1693581495591, "trialdata": {"revealed_states": [], "clicked_states": ["21", "20", "16", "18", "17", "22"], "num_clicks_accrued": [0, 0, 0, 0, 0, 0, 0, 0, 0, 0, 0, 0, 0], "stateRewards": ["", -1, 3, 2, 9, 41, 4, -46, -12, -54, -87, -25, 2, 3, -1, 11, -77, 12, -33, -9, -32, 35, 72, 1, 3, -7, 4, 37, 65, -73, 6, 77, -43, 8], "withholdReward": false, "trial_id": "mdp_trial_39", "block": "test", "trialIndex": 40, "score": 58.6, "costs": -8.4, "simulationMode": [null, null, null, null, null], "rewards": [2, 3, -1, -9, 72], "path": ["0", "0", "12", "13", "14", "19", "22"], "rt": [14017, 146, 72, 66, 90], "actions": ["right", "right", "right", "down", "left"], "actionTimes": [15216, 15871, 16463, 17039, 17647], "queries": {"click": {"state": {"target": ["21", "20", "16", "18", "17", "22"], "time": [1892, 4458, 6810, 8819, 10750, 12725]}, "edge": {"target": [], "time": []}}, "mouseover": {"state": {"target": ["12", "13", "19", "21", "20", "22", "15", "16", "16", "17", "15", "18", "15", "17", "14", "19", "22", "31"], "time": [1536, 1569, 1619, 1735, 4333, 5349, 6381, 6415, 6714, 7114, 7248, 7297, 9113, 9296, 11261, 11377, 11527, 13309]}, "edge": {"target": [], "time": []}}, "mouseout": {"state": {"target": ["0", "12", "13", "19", "21", "20", "22", "15", "16", "16", "17", "15", "18", "15", "17", "17", "14", "19", "22", "31"], "time": [1520, 1552, 1586, 1685, 2119, 4849, 6348, 6398, 6548, 7064, 7231, 7264, 9079, 9146, 11044, 11227, 11327, 11411, 12976, 14874]}, "edge": {"target": [], "time": []}}}, "displayed_time": "18.16", "trialTime": 19775, "trial_type": "mouselab-mdp", "trial_index": 47, "time_elapsed": 1480305, "internal_node_id": "0.0-6.0-1.0-38.0"}}, {"uniqueid": "w99333353:a51711764", "current_trial": 48, "dateTime": 1693581511607, "trialdata": {"revealed_states": [], "clicked_states": ["9", "10", "7", "27"], "num_clicks_accrued": [0, 0, 0, 0, 0, 0, 0, 0, 0, 0, 0, 0, 0], "stateRewards": ["", -1, 4, -8, 12, 14, 69, -8, 5, -72, -14, 56, -1, -1, -1, 9, 67, 19, 11, -9, -88, -58, 3, 2, -4, -8, 4, 62, 77, -74, 5, -31, 65, 88], "withholdReward": false, "trial_id": "mdp_trial_40", "block": "test", "trialIndex": 41, "score": 50.4, "costs": -5.6, "simulationMode": [null, null, null, null, null], "rewards": [2, -4, -8, 4, 62], "path": ["0", "0", "23", "24", "25", "26", "27"], "rt": [9053, 78, 136, 94, 119], "actions": ["left", "left", "left", "up", "up"], "actionTimes": [10260, 10865, 11505, 12113, 12737], "queries": {"click": {"state": {"target": ["9", "10", "7", "27"], "time": [1863, 4145, 6044, 7987]}, "edge": {"target": [], "time": []}}, "mouseover": {"state": {"target": ["10", "8", "9", "8", "10", "2", "7", "27", "28"], "time": [1460, 1643, 1709, 3758, 3874, 4474, 4557, 7055, 8460]}, "edge": {"target": [], "time": []}}, "mouseout": {"state": {"target": ["12", "10", "8", "9", "8", "10", "2", "7", "7", "27", "28", "1"], "time": [793, 1476, 1660, 3724, 3791, 4457, 4524, 6375, 6572, 8308, 10219, 13982]}, "edge": {"target": [], "time": []}}}, "displayed_time": "15.21", "trialTime": 15649, "trial_type": "mouselab-mdp", "trial_index": 48, "time_elapsed": 1496321, "internal_node_id": "0.0-6.0-1.0-39.0"}}, {"uniqueid": "w99333353:a51711764", "current_trial": 49, "dateTime": 1693581570423, "trialdata": {"rt": 58813, "response": {"Q0": "$-16 to 16", "Q1": "$-32 to $32", "Q2": "$-88 to $88", "Q3": "The cost was always $1.4.", "Q4": "Slightly motivated"}, "question_order": [0, 1, 2, 3, 4], "trial_id": "final_quiz_control", "trial_type": "survey-multi-choice", "trial_index": 49, "time_elapsed": 1555137, "internal_node_id": "0.0-6.0-2.0"}}, {"uniqueid": "w99333353:a51711764", "current_trial": 50, "dateTime": 1693581782663, "trialdata": {"rt": 212232, "response": {"Q0": "I just inspected the end nodes until I found one over 50. It always came out positive when doing so.", "Q1": "Yes, I started of clicking closer points until I realized the bigger numbers were at the 5th node. I then switched to just inspecting the final nodes.", "Q2": "Not difficult once you figure out the value range. Maybe a little over 5 games."}, "trial_id": "self_report_control", "trial_type": "survey-text", "trial_index": 50, "time_elapsed": 1767377, "internal_node_id": "0.0-6.0-3.0"}}, {"uniqueid": "w99333353:a51711764", "current_trial": 51, "dateTime": 1693581799814, "trialdata": {"rt": 17147, "response": {"gender": "male", "age": "39", "colorblind": "0", "effort": "0"}, "trial_type": "survey-html-form", "trial_index": 51, "time_elapsed": 1784528, "internal_node_id": "0.0-6.0-4.0"}}, {"uniqueid": "w99333353:a51711764", "current_trial": 52, "dateTime": 1693581922799, "trialdata": {"rt": 122982, "response": {"Q0": "It was well explained. Practice game helped a lot.", "Q1": "Never participated in this game before. First timer here.", "Q2": "A couple times I did move before inspecting by mistake. Those ones did not go well lol."}, "trial_type": "survey-text", "trial_index": 52, "time_elapsed": 1907513, "internal_node_id": "0.0-6.0-5.0"}}, {"uniqueid": "w99333353:a51711764", "current_trial": 53, "dateTime": 1693581959856, "trialdata": {"rt": 37053, "stimulus": "<h1>Completion Code Instructions (1/2)</h1>\n<br><br><br><br>\nYou have reached the end of the experiment! The completion code consists of two parts: (1) a code with 2 characters (2) a code with 6 characters. On this page, you will receive the second part of the code. The first part of the completion code will be on the next page.\n<br><br>\nThe second part of your completion code is: <b>EWEK22</b>\n<br><br>\nPlease note this down. Then, press 'Next' in order to find the first part of your completion code. Once the data has been saved, you will receive this code either in this window or in the original browser window where you started the experiment.\n <br><br>\n<h2 style='color: red;'>Note: this is <strong>NOT</strong> the full completion code. Copy this down and click 'Next' to get the full completion code on the next page.</h2>", "response": 0, "trial_type": "html-button-response", "trial_index": 53, "time_elapsed": 1944570, "internal_node_id": "0.0-6.0-6.0"}}, {"uniqueid": "w99333353:a51711764", "current_trial": 54, "dateTime": 1693581960861, "trialdata": {"success": true, "trial_type": "fullscreen", "trial_index": 54, "time_elapsed": 1945575, "internal_node_id": "0.0-7.0"}}], "questiondata": {"params": {"CODE": "C6DMOQA6", "MIN_TIME": 14, "inspectCost": 1, "startTime": "Fri Sep 01 2023 16:53:34 GMT+0200 (Central European Summer Time)", "bonusRate": 0.002, "variance": "1_2_4_8_44", "branching": "31123"}, "final_score": 2114}, "eventdata": [{"eventtype": "initialized", "value": null, "timestamp": 1693580014216, "interval": 0}, {"eventtype": "window_resize", "value": [1024, 767], "timestamp": 1693580014216, "interval": 0}, {"eventtype": "window_resize", "value": [1024, 767], "timestamp": 1693580014530, "interval": 314}, {"eventtype": "focus", "value": "off", "timestamp": 1693580021858, "interval": 7328}, {"eventtype": "focus", "value": "on", "timestamp": 1693580031236, "interval": 9378}, {"eventtype": "window_resize", "value": [1920, 1080], "timestamp": 1693580031526, "interval": 290}, {"eventtype": "window_resize", "value": [1024, 767], "timestamp": 1693581960089, "interval": 1928563}], "useragent": "Mozilla/5.0 (Windows NT 10.0; Win64; x64) AppleWebKit/537.36 (KHTML, like Gecko) Chrome/116.0.0.0 Safari/537.36", "mode": "live", "id": "w99333353:a51711764", "status": "user data saved", "Beginhit": "2023-09-01 14:53:32.340836", "Beginexp": "2023-09-01 14:53:51.570211", "Endhit": "2023-09-01 15:26:00.501017", "psiturkStatus": 3, "browser": "<redacted>", "platform": "windows", "language": "en-US"}