{"condition": 0, "counterbalance": 0, "assignmentId": "a18270537", "workerId": "w68639087", "hitId": "h22173815", "currenttrial": 67, "bonus": 0, "data": [{"uniqueid": "w68639087:a18270537", "current_trial": 0, "dateTime": 1691142134360, "trialdata": {"success": true, "trial_type": "fullscreen", "trial_index": 0, "time_elapsed": 4541, "internal_node_id": "0.0-0.0"}}, {"uniqueid": "w68639087:a18270537", "current_trial": 1, "dateTime": 1691142158324, "trialdata": {"view_history": [{"page_index": 0, "viewing_time": 23950}], "rt": 23953, "trial_id": "exp_instructions_control", "trial_type": "instructions", "trial_index": 1, "time_elapsed": 28506, "internal_node_id": "0.0-1.0"}}, {"uniqueid": "w68639087:a18270537", "current_trial": 2, "dateTime": 1691142162662, "trialdata": {"success": true, "trial_type": "fullscreen", "trial_index": 2, "time_elapsed": 32844, "internal_node_id": "0.0-2.0-0.0"}}, {"uniqueid": "w68639087:a18270537", "current_trial": 3, "dateTime": 1691142407704, "trialdata": {"view_history": [{"page_index": 0, "viewing_time": 95185}, {"page_index": 1, "viewing_time": 82967}, {"page_index": 2, "viewing_time": 30352}, {"page_index": 3, "viewing_time": 36532}], "rt": 245037, "trial_id": "mouselab_instructions_1_control", "trial_type": "instructions", "trial_index": 3, "time_elapsed": 277885, "internal_node_id": "0.0-2.0-1.0"}}, {"uniqueid": "w68639087:a18270537", "current_trial": 4, "dateTime": 1691142483898, "trialdata": {"revealed_states": [], "clicked_states": ["12", "14", "15", "17"], "num_clicks_accrued": [0, 0, 0, 0, 0, 0, 0, 0, 0, 0, 0, 0, 0], "stateRewards": ["", -10, -10, -10, -10, -10, 10, -10, 10, 10, -10, -10, 10, -10, -10, -10, -10, 10, -10, -10, -10, -10, -10, -10, 10, -10, -10, 10, -10, 10, -10, 10, 10, -10], "withholdReward": false, "trial_id": "practice_1", "block": "test", "trialIndex": 0, "score": -28.5, "costs": -2, "simulationMode": [null, null, null, null, null], "rewards": [10, -10, -10, -10, -10], "path": ["0", "0", "12", "13", "14", "19", "21"], "rt": [48346, 3260, 1504, 401, 344], "actions": ["right", "right", "right", "down", "down"], "actionTimes": [51186, 55007, 57054, 57974, 58879], "queries": {"click": {"state": {"target": ["12", "14", "15", "17"], "time": [8790, 14698, 21378, 23443]}, "edge": {"target": [], "time": []}}, "mouseover": {"state": {"target": ["12", "12", "0", "0", "13", "14", "13", "15", "15", "17", "15", "15", "14", "19", "21", "19", "22", "12", "0", "12", "13", "1", "1", "13", "19", "14", "15", "17", "14", "13", "12", "13", "14", "23"], "time": [7547, 8163, 12559, 13100, 14083, 14348, 16642, 19901, 20830, 23110, 28713, 29614, 29794, 29993, 30343, 30825, 31328, 31609, 31740, 32520, 32853, 33669, 34450, 41841, 42449, 43632, 43828, 44011, 44926, 45125, 45859, 46672, 47270, 48986]}, "edge": {"target": [], "time": []}}, "mouseout": {"state": {"target": ["0", "12", "12", "12", "0", "0", "13", "14", "13", "15", "15", "17", "15", "15", "14", "19", "21", "19", "22", "12", "0", "12", "13", "1", "1", "13", "19", "14", "15", "17", "14", "13", "12", "13", "14", "23", "0", "21", "21", "0"], "time": [6884, 7804, 10906, 12554, 12586, 13852, 14247, 16559, 19302, 20367, 22844, 25685, 28848, 29679, 29893, 30194, 30675, 31293, 31358, 31675, 31823, 32754, 33103, 34019, 36250, 41933, 43580, 43680, 43860, 44627, 45042, 45775, 46621, 47188, 48019, 49099, 62625, 63918, 71432, 72646]}, "edge": {"target": [], "time": []}}}, "displayed_time": "59.41", "trialTime": 75223, "trial_type": "mouselab-mdp", "trial_index": 4, "time_elapsed": 354079, "internal_node_id": "0.0-2.0-2.0-0.0"}}, {"uniqueid": "w68639087:a18270537", "current_trial": 5, "dateTime": 1691142499074, "trialdata": {"revealed_states": [], "clicked_states": [], "num_clicks_accrued": [0, 0, 0, 0, 0, 0, 0, 0, 0, 0, 0, 0, 0], "stateRewards": ["", -10, 10, 10, -10, 10, 10, -10, 10, -10, 10, 10, 10, -10, -10, 10, -10, -10, -10, 10, 10, 10, -10, -10, 10, -10, -10, -10, -10, 10, 10, 10, -10, 10], "withholdReward": false, "trial_id": "practice_2", "block": "test", "trialIndex": 1, "score": 13.5, "costs": 0, "simulationMode": [null, null, null, null, null], "rewards": [-10, 10, 10, -10, 10], "path": ["0", "0", "1", "2", "3", "4", "5"], "rt": [1896, 1298, 1376, 486, 422], "actions": ["up", "up", "up", "right", "up"], "actionTimes": [4689, 6541, 8469, 9518, 10493], "queries": {"click": {"state": {"target": [], "time": []}, "edge": {"target": [], "time": []}}, "mouseover": {"state": {"target": ["0"], "time": [3287]}, "edge": {"target": [], "time": []}}, "mouseout": {"state": {"target": ["23", "10", "1", "0", "0", "0", "22", "19", "21"], "time": [376, 1375, 1755, 2942, 3303, 12287, 12399, 12467, 13149]}, "edge": {"target": [], "time": []}}}, "displayed_time": "11.03", "trialTime": 14573, "trial_type": "mouselab-mdp", "trial_index": 5, "time_elapsed": 369255, "internal_node_id": "0.0-2.0-2.0-1.0"}}, {"uniqueid": "w68639087:a18270537", "current_trial": 6, "dateTime": 1691142544643, "trialdata": {"view_history": [{"page_index": 0, "viewing_time": 34886}, {"page_index": 1, "viewing_time": 10676}], "rt": 45563, "trial_id": "mouselab_instructions_2_control", "trial_type": "instructions", "trial_index": 6, "time_elapsed": 414824, "internal_node_id": "0.0-2.0-3.0"}}, {"uniqueid": "w68639087:a18270537", "current_trial": 7, "dateTime": 1691142593284, "trialdata": {"rt": 48629, "response": {"Q0": "The cost for clicking on nodes may vary between nodes.", "Q1": "The better I perform the higher my bonus will be.", "Q2": "No, the amount of cash at each node of the web may be different each time.", "Q3": "To get the highest total score.", "Q4": "Any time during the round.", "Q5": "3 seconds"}, "question_order": [0, 1, 2, 3, 4, 5], "correct": {"Q0": "The cost for clicking on nodes may vary between nodes.", "Q1": "The better I perform the higher my bonus will be.", "Q2": "No, the amount of cash at each node of the web may be different each time.", "Q3": "To get the highest total score.", "Q4": "Only before moving the spider.", "Q5": "3 seconds"}, "trial_id": "mouselab_quiz_control", "trial_type": "survey-multi-choice", "trial_index": 7, "time_elapsed": 463466, "internal_node_id": "0.0-2.0-4.0"}}, {"uniqueid": "w68639087:a18270537", "current_trial": 8, "dateTime": 1691142601182, "trialdata": {"success": true, "trial_type": "fullscreen", "trial_index": 8, "time_elapsed": 471364, "internal_node_id": "0.0-2.1-0.1"}}, {"uniqueid": "w68639087:a18270537", "current_trial": 9, "dateTime": 1691142639229, "trialdata": {"view_history": [{"page_index": 0, "viewing_time": 9450}, {"page_index": 1, "viewing_time": 7624}, {"page_index": 2, "viewing_time": 16220}, {"page_index": 3, "viewing_time": 4748}], "rt": 38042, "trial_id": "mouselab_instructions_1_control", "trial_type": "instructions", "trial_index": 9, "time_elapsed": 509411, "internal_node_id": "0.0-2.1-1.1"}}, {"uniqueid": "w68639087:a18270537", "current_trial": 10, "dateTime": 1691142663106, "trialdata": {"revealed_states": [], "clicked_states": ["1", "23"], "num_clicks_accrued": [0, 0, 0, 0, 0, 0, 0, 0, 0, 0, 0, 0, 0], "stateRewards": ["", -10, -10, -10, -10, -10, 10, -10, 10, 10, -10, -10, 10, -10, -10, -10, -10, 10, -10, -10, -10, -10, -10, -10, 10, -10, -10, 10, -10, 10, -10, 10, 10, -10], "withholdReward": false, "trial_id": "practice_1", "block": "test", "trialIndex": 2, "score": -7.5, "costs": -1, "simulationMode": [null, null, null, null, null], "rewards": [-10, 10, -10, -10, 10], "path": ["0", "0", "23", "24", "25", "26", "29"], "rt": [9601, 500, 126, 137, 34], "actions": ["left", "left", "left", "up", "left"], "actionTimes": [13712, 14733, 15413, 16109, 16701], "queries": {"click": {"state": {"target": ["1", "23"], "time": [5957, 9827]}, "edge": {"target": [], "time": []}}, "mouseover": {"state": {"target": ["1", "23"], "time": [5479, 9535]}, "edge": {"target": [], "time": []}}, "mouseout": {"state": {"target": ["0", "1", "23", "0"], "time": [1358, 9221, 12330, 19218]}, "edge": {"target": [], "time": []}}}, "displayed_time": "17.28", "trialTime": 23229, "trial_type": "mouselab-mdp", "trial_index": 10, "time_elapsed": 533286, "internal_node_id": "0.0-2.1-2.1-0.1"}}, {"uniqueid": "w68639087:a18270537", "current_trial": 11, "dateTime": 1691142676481, "trialdata": {"revealed_states": [], "clicked_states": ["1"], "num_clicks_accrued": [0, 0, 0, 0, 0, 0, 0, 0, 0, 0, 0, 0, 0], "stateRewards": ["", -10, 10, 10, -10, 10, 10, -10, 10, -10, 10, 10, 10, -10, -10, 10, -10, -10, -10, 10, 10, 10, -10, -10, 10, -10, -10, -10, -10, 10, 10, 10, -10, 10], "withholdReward": false, "trial_id": "practice_2", "block": "test", "trialIndex": 3, "score": 13, "costs": -0.5, "simulationMode": [null, null, null, null, null, null], "rewards": [10, -10, -10, 10, 10], "path": ["0", "0", "12", "13", "14", "19", "21"], "rt": [1765, 1819, 760, 628, 397, 351], "actions": ["up", "right", "right", "right", "down", "down"], "actionTimes": [4201, 6026, 7322, 8474, 9402, 10290], "queries": {"click": {"state": {"target": ["1"], "time": [3482]}, "edge": {"target": [], "time": []}}, "mouseover": {"state": {"target": ["1"], "time": [3017]}, "edge": {"target": [], "time": []}}, "mouseout": {"state": {"target": ["0"], "time": [2834]}, "edge": {"target": [], "time": []}}}, "displayed_time": "10.82", "trialTime": 12626, "trial_type": "mouselab-mdp", "trial_index": 11, "time_elapsed": 546662, "internal_node_id": "0.0-2.1-2.1-1.1"}}, {"uniqueid": "w68639087:a18270537", "current_trial": 12, "dateTime": 1691142713901, "trialdata": {"view_history": [{"page_index": 0, "viewing_time": 35717}, {"page_index": 1, "viewing_time": 1696}], "rt": 37414, "trial_id": "mouselab_instructions_2_control", "trial_type": "instructions", "trial_index": 12, "time_elapsed": 584083, "internal_node_id": "0.0-2.1-3.1"}}, {"uniqueid": "w68639087:a18270537", "current_trial": 13, "dateTime": 1691142745303, "trialdata": {"rt": 31395, "response": {"Q0": "The cost for clicking on nodes may vary between nodes.", "Q1": "The better I perform the higher my bonus will be.", "Q2": "No, the structure of the web will be different each time.", "Q3": "To get the highest total score.", "Q4": "Any time during the round.", "Q5": "3 seconds"}, "question_order": [0, 1, 2, 3, 4, 5], "correct": {"Q0": "The cost for clicking on nodes may vary between nodes.", "Q1": "The better I perform the higher my bonus will be.", "Q2": "No, the amount of cash at each node of the web may be different each time.", "Q3": "To get the highest total score.", "Q4": "Only before moving the spider.", "Q5": "3 seconds"}, "trial_id": "mouselab_quiz_control", "trial_type": "survey-multi-choice", "trial_index": 13, "time_elapsed": 615485, "internal_node_id": "0.0-2.1-4.1"}}, {"uniqueid": "w68639087:a18270537", "current_trial": 14, "dateTime": 1691142751878, "trialdata": {"success": true, "trial_type": "fullscreen", "trial_index": 14, "time_elapsed": 622060, "internal_node_id": "0.0-2.2-0.2"}}, {"uniqueid": "w68639087:a18270537", "current_trial": 15, "dateTime": 1691142852588, "trialdata": {"view_history": [{"page_index": 0, "viewing_time": 43462}, {"page_index": 1, "viewing_time": 48820}, {"page_index": 2, "viewing_time": 7232}, {"page_index": 3, "viewing_time": 1192}], "rt": 100706, "trial_id": "mouselab_instructions_1_control", "trial_type": "instructions", "trial_index": 15, "time_elapsed": 722770, "internal_node_id": "0.0-2.2-1.2"}}, {"uniqueid": "w68639087:a18270537", "current_trial": 16, "dateTime": 1691142861999, "trialdata": {"revealed_states": [], "clicked_states": [], "num_clicks_accrued": [0, 0, 0, 0, 0, 0, 0, 0, 0, 0, 0, 0, 0], "stateRewards": ["", -10, -10, -10, -10, -10, 10, -10, 10, 10, -10, -10, 10, -10, -10, -10, -10, 10, -10, -10, -10, -10, -10, -10, 10, -10, -10, 10, -10, 10, -10, 10, 10, -10], "withholdReward": false, "trial_id": "practice_1", "block": "test", "trialIndex": 4, "score": -26.5, "costs": 0, "simulationMode": [null, null, null, null, null], "rewards": [10, -10, -10, -10, -10], "path": ["0", "0", "12", "13", "14", "19", "21"], "rt": [2267, 24, 114, 180, 139], "actions": ["right", "right", "right", "down", "down"], "actionTimes": [3725, 4298, 4969, 5689, 6362], "queries": {"click": {"state": {"target": [], "time": []}, "edge": {"target": [], "time": []}}, "mouseover": {"state": {"target": ["12"], "time": [1479]}, "edge": {"target": [], "time": []}}, "mouseout": {"state": {"target": ["0"], "time": [877]}, "edge": {"target": [], "time": []}}}, "displayed_time": "6.93", "trialTime": 8658, "trial_type": "mouselab-mdp", "trial_index": 16, "time_elapsed": 732180, "internal_node_id": "0.0-2.2-2.2-0.2"}}, {"uniqueid": "w68639087:a18270537", "current_trial": 17, "dateTime": 1691142872551, "trialdata": {"revealed_states": [], "clicked_states": [], "num_clicks_accrued": [0, 0, 0, 0, 0, 0, 0, 0, 0, 0, 0, 0, 0], "stateRewards": ["", -10, 10, 10, -10, 10, 10, -10, 10, -10, 10, 10, 10, -10, -10, 10, -10, -10, -10, 10, 10, 10, -10, -10, 10, -10, -10, -10, -10, 10, 10, 10, -10, 10], "withholdReward": false, "trial_id": "practice_2", "block": "test", "trialIndex": 5, "score": -6.5, "costs": 0, "simulationMode": [null, null, null, null, null], "rewards": [10, -10, -10, 10, -10], "path": ["0", "0", "12", "13", "14", "15", "16"], "rt": [448, 62, 4, 4, 101], "actions": ["right", "right", "right", "up", "up"], "actionTimes": [2957, 3546, 4113, 4699, 5347], "queries": {"click": {"state": {"target": [], "time": []}, "edge": {"target": [], "time": []}}, "mouseover": {"state": {"target": [], "time": []}, "edge": {"target": [], "time": []}}, "mouseout": {"state": {"target": ["12", "0"], "time": [1573, 7812]}, "edge": {"target": [], "time": []}}}, "displayed_time": "5.90", "trialTime": 9795, "trial_type": "mouselab-mdp", "trial_index": 17, "time_elapsed": 742731, "internal_node_id": "0.0-2.2-2.2-1.2"}}, {"uniqueid": "w68639087:a18270537", "current_trial": 18, "dateTime": 1691142879640, "trialdata": {"view_history": [{"page_index": 0, "viewing_time": 5778}, {"page_index": 1, "viewing_time": 1303}], "rt": 7083, "trial_id": "mouselab_instructions_2_control", "trial_type": "instructions", "trial_index": 18, "time_elapsed": 749822, "internal_node_id": "0.0-2.2-3.2"}}, {"uniqueid": "w68639087:a18270537", "current_trial": 19, "dateTime": 1691142904633, "trialdata": {"rt": 24986, "response": {"Q0": "The cost for clicking on nodes may vary between nodes.", "Q1": "The better I perform the higher my bonus will be.", "Q2": "No, the amount of cash at each node of the web may be different each time.", "Q3": "To get the highest total score.", "Q4": "Only before moving the spider.", "Q5": "3 seconds"}, "question_order": [0, 1, 2, 3, 4, 5], "correct": {"Q0": "The cost for clicking on nodes may vary between nodes.", "Q1": "The better I perform the higher my bonus will be.", "Q2": "No, the amount of cash at each node of the web may be different each time.", "Q3": "To get the highest total score.", "Q4": "Only before moving the spider.", "Q5": "3 seconds"}, "trial_id": "mouselab_quiz_control", "trial_type": "survey-multi-choice", "trial_index": 19, "time_elapsed": 774815, "internal_node_id": "0.0-2.2-4.2"}}, {"uniqueid": "w68639087:a18270537", "current_trial": 20, "dateTime": 1691142924214, "trialdata": {"rt": 19565, "stimulus": "\n<h1> Get ready to start the game! </h1>\n\nThank you for reading the instructions. Get ready start with the 40 rounds of this game.\n<br><br>\nIf you need to take a break, feel free to take one after the end of a round, before continuing to the next one.\n<br><br>\nRemember, the more money the spider gets, the bigger your bonus will be!\n<br><br>\n<div style='text-align: center;'>Press <code>space</code> to begin.</div>\n\n<br><br>\n(If, at any point, the <code>space</code> key does not take you to the next page, click once on the text and try again.)", "response": " ", "trial_id": "mdp_ready", "trial_type": "html-keyboard-response", "trial_index": 20, "time_elapsed": 794396, "internal_node_id": "0.0-4.0-0.0"}}, {"uniqueid": "w68639087:a18270537", "current_trial": 21, "dateTime": 1691142947118, "trialdata": {"revealed_states": [], "clicked_states": ["23"], "num_clicks_accrued": [0, 0, 0, 0, 0, 0, 0, 0, 0, 0, 0, 0, 0], "stateRewards": ["", -1, 3, -4, -14, 78, 67, 2, 13, -32, 28, 39, -2, 1, -4, -4, -4, -42, -86, 11, 64, -29, -32, -1, -4, 2, -7, 5, 68, -61, 2, -21, 85, 50], "withholdReward": false, "trial_id": "mdp_trial_1", "block": "test", "trialIndex": 6, "score": 37.6, "costs": -1.4, "simulationMode": [null, null, null, null, null], "rewards": [-1, 3, -4, 13, 28], "path": ["0", "0", "1", "2", "3", "8", "10"], "rt": [5929, 1452, 1285, 425, 259], "actions": ["up", "up", "up", "left", "down"], "actionTimes": [9795, 11808, 13648, 14616, 15432], "queries": {"click": {"state": {"target": ["23"], "time": [6096]}, "edge": {"target": [], "time": []}}, "mouseover": {"state": {"target": ["23"], "time": [5773]}, "edge": {"target": [], "time": []}}, "mouseout": {"state": {"target": ["0", "23"], "time": [3065, 7706]}, "edge": {"target": [], "time": []}}}, "displayed_time": "17.87", "trialTime": 22016, "trial_type": "mouselab-mdp", "trial_index": 21, "time_elapsed": 817299, "internal_node_id": "0.0-4.0-1.0-0.0"}}, {"uniqueid": "w68639087:a18270537", "current_trial": 22, "dateTime": 1691142967871, "trialdata": {"revealed_states": [], "clicked_states": ["1"], "num_clicks_accrued": [0, 0, 0, 0, 0, 0, 0, 0, 0, 0, 0, 0, 0], "stateRewards": ["", 2, -3, 5, 11, -79, 54, 11, -9, -78, 33, 22, -2, -1, 2, 14, 43, 34, 1, 10, 49, -65, 39, -1, 1, -1, 3, -16, -2, 11, 2, 12, 48, -65], "withholdReward": false, "trial_id": "mdp_trial_2", "block": "test", "trialIndex": 7, "score": 56.6, "costs": -1.4, "simulationMode": [null, null, null, null, null], "rewards": [-2, -1, 2, 10, 49], "path": ["0", "0", "12", "13", "14", "19", "20"], "rt": [4007, 751, 702, 197, 535], "actions": ["right", "right", "right", "down", "right"], "actionTimes": [6526, 7846, 9077, 9838, 10941], "queries": {"click": {"state": {"target": ["1"], "time": [4422]}, "edge": {"target": [], "time": []}}, "mouseover": {"state": {"target": ["1"], "time": [4206]}, "edge": {"target": [], "time": []}}, "mouseout": {"state": {"target": ["0", "1", "23"], "time": [3723, 13318, 13798]}, "edge": {"target": [], "time": []}}}, "displayed_time": "16.52", "trialTime": 19919, "trial_type": "mouselab-mdp", "trial_index": 22, "time_elapsed": 838052, "internal_node_id": "0.0-4.0-1.0-1.0"}}, {"uniqueid": "w68639087:a18270537", "current_trial": 23, "dateTime": 1691142990847, "trialdata": {"revealed_states": [], "clicked_states": ["23"], "num_clicks_accrued": [0, 0, 0, 0, 0, 0, 0, 0, 0, 0, 0, 0, 0], "stateRewards": ["", -1, -3, -7, -7, -76, 30, -49, 11, -70, 56, 2, 1, 4, -3, -14, -59, -83, -25, -9, -21, -67, -73, -2, 4, 4, -9, -11, -32, 60, 9, -87, 22, -64], "withholdReward": false, "trial_id": "mdp_trial_3", "block": "test", "trialIndex": 8, "score": -96.4, "costs": -1.4, "simulationMode": [null, null, null, null, null], "rewards": [1, 4, -3, -14, -83], "path": ["0", "0", "12", "13", "14", "15", "17"], "rt": [4978, 354, 508, 429, 311], "actions": ["right", "right", "right", "up", "right"], "actionTimes": [6903, 7815, 8886, 9871, 10710], "queries": {"click": {"state": {"target": ["23"], "time": [4680]}, "edge": {"target": [], "time": []}}, "mouseover": {"state": {"target": ["0", "12", "23"], "time": [3202, 3616, 4481]}, "edge": {"target": [], "time": []}}, "mouseout": {"state": {"target": ["0", "0", "12", "23"], "time": [1155, 3450, 4098, 13377]}, "edge": {"target": [], "time": []}}}, "displayed_time": "15.93", "trialTime": 22103, "trial_type": "mouselab-mdp", "trial_index": 23, "time_elapsed": 861028, "internal_node_id": "0.0-4.0-1.0-2.0"}}, {"uniqueid": "w68639087:a18270537", "current_trial": 24, "dateTime": 1691143018373, "trialdata": {"revealed_states": [], "clicked_states": [], "num_clicks_accrued": [0, 0, 0, 0, 0, 0, 0, 0, 0, 0, 0, 0, 0], "stateRewards": ["", -1, -2, -8, 8, -27, -82, 19, -14, -62, 4, 1, -2, 2, 6, 10, 73, -51, -2, 2, 73, -48, 54, -1, 2, -4, 11, -25, 47, 86, 15, 33, 43, -42], "withholdReward": false, "trial_id": "mdp_trial_4", "block": "test", "trialIndex": 9, "score": -21, "costs": 0, "simulationMode": [null, null, null, null, null], "rewards": [-1, -2, -8, -14, 4], "path": ["0", "0", "1", "2", "3", "8", "10"], "rt": [1491, 134, 194, 71, 172], "actions": ["up", "up", "up", "left", "down"], "actionTimes": [7517, 8205, 8925, 9544, 10261], "queries": {"click": {"state": {"target": [], "time": []}, "edge": {"target": [], "time": []}}, "mouseover": {"state": {"target": [], "time": []}, "edge": {"target": [], "time": []}}, "mouseout": {"state": {"target": ["23"], "time": [5119]}, "edge": {"target": [], "time": []}}}, "displayed_time": "20.04", "trialTime": 26614, "trial_type": "mouselab-mdp", "trial_index": 24, "time_elapsed": 888554, "internal_node_id": "0.0-4.0-1.0-3.0"}}, {"uniqueid": "w68639087:a18270537", "current_trial": 25, "dateTime": 1691143038952, "trialdata": {"revealed_states": [], "clicked_states": [], "num_clicks_accrued": [0, 0, 0, 0, 0, 0, 0, 0, 0, 0, 0, 0, 0], "stateRewards": ["", 2, 4, 7, 7, -79, -2, -21, -5, -53, 47, -21, 1, -3, -1, 7, 83, 7, 84, -7, 80, -37, 69, 2, -4, 5, 2, 4, -20, -30, 7, 71, 44, -81], "withholdReward": false, "trial_id": "mdp_trial_5", "block": "test", "trialIndex": 10, "score": 70, "costs": 0, "simulationMode": [null, null, null, null, null], "rewards": [1, -3, -1, -7, 80], "path": ["0", "0", "12", "13", "14", "19", "20"], "rt": [2127, 181, 131, 55, 104], "actions": ["right", "right", "right", "down", "right"], "actionTimes": [4676, 5387, 6060, 6682, 7347], "queries": {"click": {"state": {"target": [], "time": []}, "edge": {"target": [], "time": []}}, "mouseover": {"state": {"target": [], "time": []}, "edge": {"target": [], "time": []}}, "mouseout": {"state": {"target": ["0", "0", "0"], "time": [316, 1430, 1809]}, "edge": {"target": [], "time": []}}}, "displayed_time": "16.55", "trialTime": 19716, "trial_type": "mouselab-mdp", "trial_index": 25, "time_elapsed": 909132, "internal_node_id": "0.0-4.0-1.0-4.0"}}, {"uniqueid": "w68639087:a18270537", "current_trial": 26, "dateTime": 1691143057600, "trialdata": {"revealed_states": [], "clicked_states": [], "num_clicks_accrued": [0, 0, 0, 0, 0, 0, 0, 0, 0, 0, 0, 0, 0], "stateRewards": ["", -1, 4, -3, 3, 57, -61, 5, -11, 23, -1, 34, -2, -4, -1, -13, 27, 38, -36, 4, -45, 21, 88, 1, -2, -1, 1, -69, -5, -78, -12, -9, 38, -54], "withholdReward": false, "trial_id": "mdp_trial_6", "block": "test", "trialIndex": 11, "score": -48, "costs": 0, "simulationMode": [null, null, null, null, null], "rewards": [-2, -4, -1, 4, -45], "path": ["0", "0", "12", "13", "14", "19", "20"], "rt": [2616, 155, 147, 2167, 354], "actions": ["right", "right", "right", "down", "right"], "actionTimes": [4204, 4923, 5611, 8355, 9252], "queries": {"click": {"state": {"target": [], "time": []}, "edge": {"target": [], "time": []}}, "mouseover": {"state": {"target": [], "time": []}, "edge": {"target": [], "time": []}}, "mouseout": {"state": {"target": ["0", "0", "12", "1", "1"], "time": [732, 11439, 12625, 12696, 13845]}, "edge": {"target": [], "time": []}}}, "displayed_time": "15.59", "trialTime": 17723, "trial_type": "mouselab-mdp", "trial_index": 26, "time_elapsed": 927779, "internal_node_id": "0.0-4.0-1.0-5.0"}}, {"uniqueid": "w68639087:a18270537", "current_trial": 27, "dateTime": 1691143078553, "trialdata": {"revealed_states": [], "clicked_states": [], "num_clicks_accrued": [0, 0, 0, 0, 0, 0, 0, 0, 0, 0, 0, 0, 0], "stateRewards": ["", 1, 1, 1, -3, -7, -1, -41, -10, 20, -72, -63, 1, -4, -2, 2, -66, 30, -84, -2, 49, 23, 71, -1, -4, 4, -12, 67, 5, 18, -16, 88, 56, -5], "withholdReward": false, "trial_id": "mdp_trial_7", "block": "test", "trialIndex": 12, "score": 39, "costs": 0, "simulationMode": [null, null, null, null, null], "rewards": [-1, -4, 4, -16, 56], "path": ["0", "0", "23", "24", "25", "30", "32"], "rt": [1298, 148, 234, 545, 299], "actions": ["left", "left", "left", "down", "down"], "actionTimes": [4424, 5120, 5920, 7000, 7840], "queries": {"click": {"state": {"target": [], "time": []}, "edge": {"target": [], "time": []}}, "mouseover": {"state": {"target": [], "time": []}, "edge": {"target": [], "time": []}}, "mouseout": {"state": {"target": ["0", "12"], "time": [10562, 10594]}, "edge": {"target": [], "time": []}}}, "displayed_time": "17.13", "trialTime": 19992, "trial_type": "mouselab-mdp", "trial_index": 27, "time_elapsed": 948734, "internal_node_id": "0.0-4.0-1.0-6.0"}}, {"uniqueid": "w68639087:a18270537", "current_trial": 28, "dateTime": 1691143100676, "trialdata": {"revealed_states": [], "clicked_states": ["25"], "num_clicks_accrued": [0, 0, 0, 0, 0, 0, 0, 0, 0, 0, 0, 0, 0], "stateRewards": ["", 1, -1, 8, -3, 38, 85, -20, -4, 8, 23, 73, 2, -4, 6, -13, 44, 7, -28, -11, -77, 45, -69, 1, -1, -7, -11, 75, -51, -87, 7, 36, -53, -26], "withholdReward": false, "trial_id": "mdp_trial_8", "block": "test", "trialIndex": 13, "score": 41.6, "costs": -1.4, "simulationMode": [null, null, null, null, null], "rewards": [1, -1, 8, -3, 38], "path": ["0", "0", "1", "2", "3", "4", "5"], "rt": [11916, 186, 250, 74, 224], "actions": ["up", "up", "up", "right", "up"], "actionTimes": [14864, 15622, 16439, 17078, 17838], "queries": {"click": {"state": {"target": ["25"], "time": [4560]}, "edge": {"target": [], "time": []}}, "mouseover": {"state": {"target": ["23", "24", "25", "23", "12", "13", "14", "22"], "time": [3875, 3990, 4306, 8897, 8961, 9045, 9529, 11393]}, "edge": {"target": [], "time": []}}, "mouseout": {"state": {"target": ["12", "0", "23", "24", "25", "23", "12", "13", "14", "22"], "time": [1897, 3825, 3926, 4224, 8847, 8914, 8996, 9108, 11293, 11409]}, "edge": {"target": [], "time": []}}}, "displayed_time": "18.39", "trialTime": 21183, "trial_type": "mouselab-mdp", "trial_index": 28, "time_elapsed": 970857, "internal_node_id": "0.0-4.0-1.0-7.0"}}, {"uniqueid": "w68639087:a18270537", "current_trial": 29, "dateTime": 1691143119773, "trialdata": {"revealed_states": [], "clicked_states": ["13", "15"], "num_clicks_accrued": [0, 0, 0, 0, 0, 0, 0, 0, 0, 0, 0, 0, 0], "stateRewards": ["", -1, 3, 2, 9, 41, 4, -46, -12, -54, -87, -25, 2, 3, -1, 11, -77, 12, -33, -9, -32, 35, 72, 1, 3, -7, 4, 37, 65, -73, 6, 77, -43, 8], "withholdReward": false, "trial_id": "mdp_trial_9", "block": "test", "trialIndex": 14, "score": -64.8, "costs": -2.8, "simulationMode": [null, null, null, null, null], "rewards": [2, 3, -1, 11, -77], "path": ["0", "0", "12", "13", "14", "15", "16"], "rt": [6836, 145, 238, 104, 243], "actions": ["right", "right", "right", "up", "up"], "actionTimes": [8674, 9353, 10130, 10769, 11553], "queries": {"click": {"state": {"target": ["13", "15"], "time": [2612, 4508]}, "edge": {"target": [], "time": []}}, "mouseover": {"state": {"target": ["13", "13", "15"], "time": [1884, 2402, 3268]}, "edge": {"target": [], "time": []}}, "mouseout": {"state": {"target": ["0", "13", "13", "15"], "time": [1867, 2021, 2785, 5096]}, "edge": {"target": [], "time": []}}}, "displayed_time": "15.84", "trialTime": 17905, "trial_type": "mouselab-mdp", "trial_index": 29, "time_elapsed": 989954, "internal_node_id": "0.0-4.0-1.0-8.0"}}, {"uniqueid": "w68639087:a18270537", "current_trial": 30, "dateTime": 1691143149462, "trialdata": {"revealed_states": [], "clicked_states": ["12", "16"], "num_clicks_accrued": [0, 0, 0, 0, 0, 0, 0, 0, 0, 0, 0, 0, 0], "stateRewards": ["", -1, 3, -5, -2, -13, -9, -34, -7, -81, 32, 35, -2, -2, 1, -14, -32, 81, 7, 4, 82, 56, -8, -1, 3, -8, 6, -24, -24, -53, 2, 38, 61, 54], "withholdReward": false, "trial_id": "mdp_trial_10", "block": "test", "trialIndex": 15, "score": 61.2, "costs": -2.8, "simulationMode": [null, null, null, null, null], "rewards": [-2, -2, 1, -14, 81], "path": ["0", "0", "12", "13", "14", "15", "17"], "rt": [12709, 186, 191, 188, 5457], "actions": ["right", "right", "right", "up", "right"], "actionTimes": [15521, 16255, 16975, 17735, 23727], "queries": {"click": {"state": {"target": ["12", "16"], "time": [3760, 8281]}, "edge": {"target": [], "time": []}}, "mouseover": {"state": {"target": ["12", "15", "16", "16", "17"], "time": [3390, 4378, 5031, 8018, 11603]}, "edge": {"target": [], "time": []}}, "mouseout": {"state": {"target": ["13", "12", "0", "12", "15", "16", "16", "17", "14"], "time": [1810, 1922, 3356, 3953, 4820, 6646, 8738, 11819, 21532]}, "edge": {"target": [], "time": []}}}, "displayed_time": "24.25", "trialTime": 28160, "trial_type": "mouselab-mdp", "trial_index": 30, "time_elapsed": 1019643, "internal_node_id": "0.0-4.0-1.0-9.0"}}, {"uniqueid": "w68639087:a18270537", "current_trial": 31, "dateTime": 1691143172909, "trialdata": {"revealed_states": [], "clicked_states": ["17", "21", "20", "22"], "num_clicks_accrued": [0, 0, 0, 0, 0, 0, 0, 0, 0, 0, 0, 0, 0], "stateRewards": ["", 2, 4, -6, -13, -75, -81, 30, 7, 5, 59, -65, -1, -1, 7, 14, -38, 36, -41, 1, -54, -5, 64, 2, -1, 5, 6, -19, 79, 11, 16, -33, -50, 58], "withholdReward": false, "trial_id": "mdp_trial_11", "block": "test", "trialIndex": 16, "score": 64.4, "costs": -5.6, "simulationMode": [null, null, null, null, null], "rewards": [-1, -1, 7, 1, 64], "path": ["0", "0", "12", "13", "14", "19", "22"], "rt": [13351, 304, 144, 19, 1005], "actions": ["right", "right", "right", "down", "left"], "actionTimes": [15085, 15923, 16611, 17163, 18715], "queries": {"click": {"state": {"target": ["17", "21", "20", "22"], "time": [2401, 4389, 6889, 10086]}, "edge": {"target": [], "time": []}}, "mouseover": {"state": {"target": ["17", "20", "21", "20", "14", "13", "22", "13", "15"], "time": [1761, 2973, 3494, 4826, 9434, 9630, 9849, 12459, 12892]}, "edge": {"target": [], "time": []}}, "mouseout": {"state": {"target": ["0", "17", "20", "21", "20", "20", "14", "13", "22", "13", "15"], "time": [651, 2477, 3413, 4599, 7388, 9332, 9549, 9682, 10106, 12477, 13023]}, "edge": {"target": [], "time": []}}}, "displayed_time": "19.25", "trialTime": 22483, "trial_type": "mouselab-mdp", "trial_index": 31, "time_elapsed": 1043090, "internal_node_id": "0.0-4.0-1.0-10.0"}}, {"uniqueid": "w68639087:a18270537", "current_trial": 32, "dateTime": 1691143200060, "trialdata": {"revealed_states": [], "clicked_states": ["9", "11", "10", "5", "7", "6"], "num_clicks_accrued": [0, 0, 0, 0, 0, 0, 0, 0, 0, 0, 0, 0, 0], "stateRewards": ["", 1, 2, -3, 6, -88, 74, -45, 7, -46, 40, -77, 1, -4, 4, 3, 22, -25, -59, 8, -83, 19, -60, -1, -1, -1, -8, 26, -29, 64, -7, -88, -51, -55], "withholdReward": false, "trial_id": "mdp_trial_12", "block": "test", "trialIndex": 17, "score": 38.6, "costs": -8.4, "simulationMode": [null, null, null, null, null], "rewards": [1, 2, -3, 7, 40], "path": ["0", "0", "1", "2", "3", "8", "10"], "rt": [15588, 783, 262, 74, 417], "actions": ["up", "up", "up", "left", "down"], "actionTimes": [18632, 19936, 20768, 21384, 22352], "queries": {"click": {"state": {"target": ["9", "11", "10", "5", "7", "6"], "time": [3842, 6261, 8310, 10713, 12829, 15578]}, "edge": {"target": [], "time": []}}, "mouseover": {"state": {"target": ["3", "9", "11", "11", "10", "3", "5", "4", "7", "6"], "time": [3166, 3545, 4181, 5334, 6806, 8883, 9380, 11421, 11694, 15218]}, "edge": {"target": [], "time": []}}, "mouseout": {"state": {"target": ["20", "19", "22", "0", "3", "9", "11", "11", "10", "3", "5", "4", "7", "6"], "time": [1067, 1832, 1864, 3076, 3397, 4052, 4903, 6675, 8716, 8996, 11383, 11535, 14953, 17111]}, "edge": {"target": [], "time": []}}}, "displayed_time": "22.89", "trialTime": 26256, "trial_type": "mouselab-mdp", "trial_index": 32, "time_elapsed": 1070241, "internal_node_id": "0.0-4.0-1.0-11.0"}}, {"uniqueid": "w68639087:a18270537", "current_trial": 33, "dateTime": 1691143226300, "trialdata": {"revealed_states": [], "clicked_states": ["28", "27", "29", "33", "32", "31"], "num_clicks_accrued": [0, 0, 0, 0, 0, 0, 0, 0, 0, 0, 0, 0, 0], "stateRewards": ["", -1, 2, -6, 6, 43, 78, 78, -2, 55, -29, -17, -2, -4, 1, -15, 13, 7, -79, 8, -28, -68, 36, -1, -3, 3, -16, 84, -18, 87, 10, 32, 13, -81], "withholdReward": false, "trial_id": "mdp_trial_13", "block": "test", "trialIndex": 18, "score": 61.6, "costs": -8.4, "simulationMode": [null, null, null, null, null], "rewards": [-1, -3, 3, -16, 87], "path": ["0", "0", "23", "24", "25", "26", "29"], "rt": [14920, 355, 220, 160, 72], "actions": ["left", "left", "left", "up", "left"], "actionTimes": [16869, 17772, 18541, 19237, 19844], "queries": {"click": {"state": {"target": ["28", "27", "29", "33", "32", "31"], "time": [3382, 5012, 6975, 9747, 11856, 13815]}, "edge": {"target": [], "time": []}}, "mouseover": {"state": {"target": ["23", "24", "26", "28", "27", "29", "33", "33", "32", "31"], "time": [2550, 2698, 2932, 3165, 3982, 6136, 7734, 8137, 10715, 12272]}, "edge": {"target": [], "time": []}}, "mouseout": {"state": {"target": ["0", "23", "24", "26", "28", "27", "29", "33", "33", "32", "31"], "time": [2517, 2631, 2831, 3079, 3402, 5670, 7498, 7810, 10480, 12146, 14486]}, "edge": {"target": [], "time": []}}}, "displayed_time": "20.38", "trialTime": 25261, "trial_type": "mouselab-mdp", "trial_index": 33, "time_elapsed": 1096481, "internal_node_id": "0.0-4.0-1.0-12.0"}}, {"uniqueid": "w68639087:a18270537", "current_trial": 34, "dateTime": 1691143246893, "trialdata": {"revealed_states": [], "clicked_states": ["17", "20", "18", "21"], "num_clicks_accrued": [0, 0, 0, 0, 0, 0, 0, 0, 0, 0, 0, 0, 0], "stateRewards": ["", 1, 2, 3, 16, 63, -25, 16, -4, -14, 82, -66, -1, -3, -3, -11, -14, 19, 46, 3, -34, -82, 66, -2, -3, 4, -5, -63, 77, -37, -1, -45, -41, 84], "withholdReward": false, "trial_id": "mdp_trial_14", "block": "test", "trialIndex": 19, "score": 22.4, "costs": -5.6, "simulationMode": [null, null, null, null, null], "rewards": [-1, -3, -3, -11, 46], "path": ["0", "0", "12", "13", "14", "15", "18"], "rt": [11679, 67, 103, 89, 17], "actions": ["right", "right", "right", "up", "left"], "actionTimes": [13383, 13982, 14638, 15293, 15869], "queries": {"click": {"state": {"target": ["17", "20", "18", "21"], "time": [2873, 4591, 7737, 10199]}, "edge": {"target": [], "time": []}}, "mouseover": {"state": {"target": ["12", "15", "17", "17", "20", "14", "18", "18", "13", "22", "21"], "time": [2225, 2289, 2435, 2603, 3509, 6916, 7006, 7514, 9147, 9403, 9875]}, "edge": {"target": [], "time": []}}, "mouseout": {"state": {"target": ["0", "12", "15", "17", "17", "20", "14", "18", "18", "13", "22", "21"], "time": [2192, 2260, 2381, 2496, 3135, 6883, 6934, 7096, 9111, 9270, 9707, 12318]}, "edge": {"target": [], "time": []}}}, "displayed_time": "16.42", "trialTime": 19606, "trial_type": "mouselab-mdp", "trial_index": 34, "time_elapsed": 1117073, "internal_node_id": "0.0-4.0-1.0-13.0"}}, {"uniqueid": "w68639087:a18270537", "current_trial": 35, "dateTime": 1691143268109, "trialdata": {"revealed_states": [], "clicked_states": ["9", "11"], "num_clicks_accrued": [0, 0, 0, 0, 0, 0, 0, 0, 0, 0, 0, 0, 0], "stateRewards": ["", 1, -3, -4, -11, -56, 61, -47, -16, -28, -9, 69, -2, -3, -4, -8, 40, -86, 59, -4, 80, 27, 54, -1, 3, -1, 8, 67, 23, 50, 6, 83, -43, -29], "withholdReward": false, "trial_id": "mdp_trial_15", "block": "test", "trialIndex": 20, "score": 44.2, "costs": -2.8, "simulationMode": [null, null, null, null, null], "rewards": [1, -3, -4, -16, 69], "path": ["0", "0", "1", "2", "3", "8", "11"], "rt": [7571, 536, 228, 119, 177], "actions": ["up", "up", "up", "left", "left"], "actionTimes": [9786, 10889, 11657, 12321, 13033], "queries": {"click": {"state": {"target": ["9", "11"], "time": [3639, 6678]}, "edge": {"target": [], "time": []}}, "mouseover": {"state": {"target": ["1", "8", "9", "3", "8", "11", "7"], "time": [2845, 3043, 3360, 3975, 6203, 6435, 7344]}, "edge": {"target": [], "time": []}}, "mouseout": {"state": {"target": ["19", "22", "13", "12", "0", "1", "8", "9", "3", "8", "11", "7"], "time": [864, 880, 1108, 1296, 2764, 2892, 3226, 3924, 4059, 6268, 7227, 7379]}, "edge": {"target": [], "time": []}}}, "displayed_time": "16.22", "trialTime": 20290, "trial_type": "mouselab-mdp", "trial_index": 35, "time_elapsed": 1138289, "internal_node_id": "0.0-4.0-1.0-14.0"}}, {"uniqueid": "w68639087:a18270537", "current_trial": 36, "dateTime": 1691143289444, "trialdata": {"revealed_states": [], "clicked_states": ["31"], "num_clicks_accrued": [0, 0, 0, 0, 0, 0, 0, 0, 0, 0, 0, 0, 0], "stateRewards": ["", 2, 3, -3, 12, -43, 81, -82, -15, 58, -7, -75, -1, -1, 3, -5, 50, -25, -8, 4, 66, 65, -66, 2, -4, 2, -1, -10, 10, 37, 11, 88, -37, 8], "withholdReward": false, "trial_id": "mdp_trial_16", "block": "test", "trialIndex": 21, "score": 97.6, "costs": -1.4, "simulationMode": [null, null, null, null, null], "rewards": [2, -4, 2, 11, 88], "path": ["0", "0", "23", "24", "25", "30", "31"], "rt": [5900, 136, 79, 899, 276], "actions": ["left", "left", "left", "down", "right"], "actionTimes": [8631, 9293, 9909, 11341, 12158], "queries": {"click": {"state": {"target": ["31"], "time": [4114]}, "edge": {"target": [], "time": []}}, "mouseover": {"state": {"target": ["23", "31", "30"], "time": [3574, 3924, 7306]}, "edge": {"target": [], "time": []}}, "mouseout": {"state": {"target": ["13", "12", "23", "31", "31", "30"], "time": [1647, 1826, 3706, 4477, 6669, 7415]}, "edge": {"target": [], "time": []}}}, "displayed_time": "16.73", "trialTime": 20374, "trial_type": "mouselab-mdp", "trial_index": 36, "time_elapsed": 1159625, "internal_node_id": "0.0-4.0-1.0-15.0"}}, {"uniqueid": "w68639087:a18270537", "current_trial": 37, "dateTime": 1691143316620, "trialdata": {"revealed_states": [], "clicked_states": ["21", "18", "22", "20", "17"], "num_clicks_accrued": [0, 0, 0, 0, 0, 0, 0, 0, 0, 0, 0, 0, 0], "stateRewards": ["", 2, 3, -1, 6, 44, -4, -59, -14, -3, 64, 16, 1, -3, 3, 6, 3, 49, 19, 3, -49, -14, -86, 1, 2, -3, -8, -33, 14, 32, -13, -77, -47, -67], "withholdReward": false, "trial_id": "mdp_trial_17", "block": "test", "trialIndex": 22, "score": 49, "costs": -7, "simulationMode": [null, null, null, null, null], "rewards": [1, -3, 3, 6, 49], "path": ["0", "0", "12", "13", "14", "15", "17"], "rt": [16761, 30, 527, 68, 242], "actions": ["right", "right", "right", "up", "right"], "actionTimes": [19708, 20283, 21347, 21951, 22747], "queries": {"click": {"state": {"target": ["21", "18", "22", "20", "17"], "time": [4128, 7288, 10280, 13396, 16112]}, "edge": {"target": [], "time": []}}, "mouseover": {"state": {"target": ["22", "21", "13", "18", "13", "22", "19", "20", "17", "15"], "time": [3554, 3871, 6763, 7065, 9792, 10021, 12800, 13116, 15926, 18486]}, "edge": {"target": [], "time": []}}, "mouseout": {"state": {"target": ["0", "22", "21", "13", "18", "13", "22", "22", "19", "20", "17", "15"], "time": [3489, 3652, 6466, 6948, 9757, 9905, 12334, 12766, 12819, 15494, 18453, 18538]}, "edge": {"target": [], "time": []}}}, "displayed_time": "23.31", "trialTime": 26179, "trial_type": "mouselab-mdp", "trial_index": 37, "time_elapsed": 1186800, "internal_node_id": "0.0-4.0-1.0-16.0"}}, {"uniqueid": "w68639087:a18270537", "current_trial": 38, "dateTime": 1691143352539, "trialdata": {"revealed_states": [], "clicked_states": ["1", "5", "9", "10", "7", "6"], "num_clicks_accrued": [0, 0, 0, 0, 0, 0, 0, 0, 0, 0, 0, 0, 0], "stateRewards": ["", 1, -3, 4, 13, -72, 52, 5, 5, -58, 5, 14, 2, 1, 3, -14, -86, -4, 73, 6, -58, -50, 49, 2, -3, -4, 2, 33, -41, 42, -11, 81, 45, 53], "withholdReward": false, "trial_id": "mdp_trial_18", "block": "test", "trialIndex": 23, "score": 58.6, "costs": -8.4, "simulationMode": [null, null, null, null, null], "rewards": [1, -3, 4, 13, 52], "path": ["0", "0", "1", "2", "3", "4", "6"], "rt": [17875, 119, 54, 172, 94], "actions": ["up", "up", "up", "right", "right"], "actionTimes": [20228, 20883, 21483, 22203, 22827], "queries": {"click": {"state": {"target": ["1", "5", "9", "10", "7", "6"], "time": [3438, 6593, 9472, 12172, 14393, 17003]}, "edge": {"target": [], "time": []}}, "mouseover": {"state": {"target": ["1", "7", "4", "5", "9", "8", "10", "2", "7", "6", "4", "3"], "time": [3215, 6007, 6257, 6390, 9216, 11642, 11926, 14004, 14138, 16782, 19177, 19408]}, "edge": {"target": [], "time": []}}, "mouseout": {"state": {"target": ["12", "0", "1", "7", "4", "5", "9", "9", "8", "10", "2", "7", "6", "4", "3", "4", "6"], "time": [968, 1615, 4576, 6025, 6288, 8882, 9546, 11594, 11810, 13971, 14034, 16405, 19141, 19243, 32631, 32661, 32776]}, "edge": {"target": [], "time": []}}}, "displayed_time": "23.38", "trialTime": 34803, "trial_type": "mouselab-mdp", "trial_index": 38, "time_elapsed": 1222720, "internal_node_id": "0.0-4.0-1.0-17.0"}}, {"uniqueid": "w68639087:a18270537", "current_trial": 39, "dateTime": 1691143372985, "trialdata": {"revealed_states": [], "clicked_states": ["12", "17", "18"], "num_clicks_accrued": [0, 0, 0, 0, 0, 0, 0, 0, 0, 0, 0, 0, 0], "stateRewards": ["", -2, 1, 6, -2, -10, -78, -69, 14, -15, 7, -1, 1, -1, -2, 13, 77, 32, 87, 5, -74, 30, -26, 1, 3, 4, 12, 39, 54, -43, 2, 10, 23, 13], "withholdReward": false, "trial_id": "mdp_trial_19", "block": "test", "trialIndex": 24, "score": 83.8, "costs": -4.199999999999999, "simulationMode": [null, null, null, null, null], "rewards": [1, -1, -2, 13, 77], "path": ["0", "0", "12", "13", "14", "15", "16"], "rt": [10307, 87, 40, 36, 142], "actions": ["right", "right", "right", "up", "up"], "actionTimes": [12300, 12940, 13525, 14131, 14851], "queries": {"click": {"state": {"target": ["12", "17", "18"], "time": [2642, 5957, 9022]}, "edge": {"target": [], "time": []}}, "mouseover": {"state": {"target": ["12", "13", "15", "17", "14", "15", "18"], "time": [2440, 5071, 5452, 5668, 8393, 8626, 8776]}, "edge": {"target": [], "time": []}}, "mouseout": {"state": {"target": ["18", "0", "12", "12", "13", "15", "17", "17", "14", "15", "18"], "time": [893, 2292, 2664, 3403, 5167, 5584, 6001, 7726, 8544, 8708, 11287]}, "edge": {"target": [], "time": []}}}, "displayed_time": "15.99", "trialTime": 19027, "trial_type": "mouselab-mdp", "trial_index": 39, "time_elapsed": 1243166, "internal_node_id": "0.0-4.0-1.0-18.0"}}, {"uniqueid": "w68639087:a18270537", "current_trial": 40, "dateTime": 1691143394884, "trialdata": {"revealed_states": [], "clicked_states": ["23", "31", "33", "32"], "num_clicks_accrued": [0, 0, 0, 0, 0, 0, 0, 0, 0, 0, 0, 0, 0], "stateRewards": ["", 2, -1, -4, -13, 74, 77, 3, 2, -43, -2, -11, 2, 3, 7, 11, -26, -29, -33, -3, -3, -13, -3, 1, 3, -7, 14, -59, 33, 9, -5, 34, 79, 68], "withholdReward": false, "trial_id": "mdp_trial_20", "block": "test", "trialIndex": 25, "score": 65.4, "costs": -5.6, "simulationMode": [null, null, null, null, null], "rewards": [1, 3, -7, -5, 79], "path": ["0", "0", "23", "24", "25", "30", "32"], "rt": [11448, 183, 95, 79, 39], "actions": ["left", "left", "left", "down", "down"], "actionTimes": [14190, 14917, 15557, 16189, 16750], "queries": {"click": {"state": {"target": ["23", "31", "33", "32"], "time": [3725, 6371, 8850, 11783]}, "edge": {"target": [], "time": []}}, "mouseover": {"state": {"target": ["23", "31", "30", "33", "32"], "time": [3533, 6097, 8440, 8655, 11385]}, "edge": {"target": [], "time": []}}, "mouseout": {"state": {"target": ["12", "0", "23", "31", "30", "33", "32"], "time": [1739, 3369, 4090, 8173, 8554, 11000, 12398]}, "edge": {"target": [], "time": []}}}, "displayed_time": "17.32", "trialTime": 20734, "trial_type": "mouselab-mdp", "trial_index": 40, "time_elapsed": 1265064, "internal_node_id": "0.0-4.0-1.0-19.0"}}, {"uniqueid": "w68639087:a18270537", "current_trial": 41, "dateTime": 1691143414843, "trialdata": {"revealed_states": [], "clicked_states": ["12", "1", "23"], "num_clicks_accrued": [0, 0, 0, 0, 0, 0, 0, 0, 0, 0, 0, 0, 0], "stateRewards": ["", -2, 4, -5, -12, 85, -24, -18, -15, -78, -22, 26, -1, -1, 2, 14, -45, 52, -23, 7, -33, 24, -6, -2, -4, 5, -7, -16, 36, -39, 5, 71, -87, -23], "withholdReward": false, "trial_id": "mdp_trial_21", "block": "test", "trialIndex": 26, "score": -30.2, "costs": -4.199999999999999, "simulationMode": [null, null, null, null, null], "rewards": [-1, -1, 2, 7, -33], "path": ["0", "0", "12", "13", "14", "19", "20"], "rt": [9399, 277, 89, 982, 272], "actions": ["right", "right", "right", "down", "right"], "actionTimes": [11833, 12671, 13327, 14847, 15671], "queries": {"click": {"state": {"target": ["12", "1", "23"], "time": [3325, 6038, 8689]}, "edge": {"target": [], "time": []}}, "mouseover": {"state": {"target": ["12", "0", "1", "23"], "time": [2998, 5578, 5791, 8486]}, "edge": {"target": [], "time": []}}, "mouseout": {"state": {"target": ["0", "12", "0", "1", "23"], "time": [2930, 4413, 5596, 7018, 9754]}, "edge": {"target": [], "time": []}}}, "displayed_time": "16.44", "trialTime": 19024, "trial_type": "mouselab-mdp", "trial_index": 41, "time_elapsed": 1285024, "internal_node_id": "0.0-4.0-1.0-20.0"}}, {"uniqueid": "w68639087:a18270537", "current_trial": 42, "dateTime": 1691143435560, "trialdata": {"revealed_states": [], "clicked_states": ["12", "17", "21"], "num_clicks_accrued": [0, 0, 0, 0, 0, 0, 0, 0, 0, 0, 0, 0, 0], "stateRewards": ["", 1, 2, -3, -6, 50, -7, 7, -7, -80, 21, -1, 2, 2, 4, -1, 33, 84, 1, 14, -53, 81, 6, -2, -2, -3, -9, -87, -38, -59, -5, -74, -3, -71], "withholdReward": false, "trial_id": "mdp_trial_22", "block": "test", "trialIndex": 27, "score": 86.8, "costs": -4.199999999999999, "simulationMode": [null, null, null, null, null], "rewards": [2, 2, 4, -1, 84], "path": ["0", "0", "12", "13", "14", "15", "17"], "rt": [8575, 67, 180, 255, 1554], "actions": ["right", "right", "right", "up", "right"], "actionTimes": [10403, 11023, 11739, 12538, 14634], "queries": {"click": {"state": {"target": ["12", "17", "21"], "time": [2567, 5498, 8055]}, "edge": {"target": [], "time": []}}, "mouseover": {"state": {"target": ["12", "1", "14", "17", "20", "21"], "time": [1995, 3440, 4867, 5264, 6706, 7491]}, "edge": {"target": [], "time": []}}, "mouseout": {"state": {"target": ["31", "31", "0", "12", "1", "14", "17", "20", "21", "17"], "time": [159, 725, 873, 3170, 4802, 4899, 6556, 7278, 8512, 18008]}, "edge": {"target": [], "time": []}}}, "displayed_time": "15.83", "trialTime": 19130, "trial_type": "mouselab-mdp", "trial_index": 42, "time_elapsed": 1305742, "internal_node_id": "0.0-4.0-1.0-21.0"}}, {"uniqueid": "w68639087:a18270537", "current_trial": 43, "dateTime": 1691143459395, "trialdata": {"revealed_states": [], "clicked_states": ["1", "23", "12", "22"], "num_clicks_accrued": [0, 0, 0, 0, 0, 0, 0, 0, 0, 0, 0, 0, 0], "stateRewards": ["", -1, 2, 5, -6, 13, -64, -47, 8, -79, -80, -33, 1, 2, -2, -16, 56, -71, -10, 3, 29, 44, 85, -1, 4, 5, 4, -36, -56, 19, 8, 52, -13, -2], "withholdReward": false, "trial_id": "mdp_trial_23", "block": "test", "trialIndex": 28, "score": 83.4, "costs": -5.6, "simulationMode": [null, null, null, null, null], "rewards": [1, 2, -2, 3, 85], "path": ["0", "0", "12", "13", "14", "19", "22"], "rt": [14552, 92, 208, 173, 187], "actions": ["right", "right", "right", "down", "left"], "actionTimes": [16726, 17373, 18116, 18820, 19573], "queries": {"click": {"state": {"target": ["1", "23", "12", "22"], "time": [4503, 7307, 9974, 13083]}, "edge": {"target": [], "time": []}}, "mouseover": {"state": {"target": ["23", "1", "23", "12", "13", "22"], "time": [2747, 4165, 6725, 9785, 12327, 12909]}, "edge": {"target": [], "time": []}}, "mouseout": {"state": {"target": ["17", "13", "12", "0", "0", "23", "1", "23", "12", "13", "22", "22"], "time": [703, 953, 1003, 1101, 2270, 3968, 6243, 7331, 12214, 12761, 13170, 21858]}, "edge": {"target": [], "time": []}}}, "displayed_time": "20.11", "trialTime": 22789, "trial_type": "mouselab-mdp", "trial_index": 43, "time_elapsed": 1329576, "internal_node_id": "0.0-4.0-1.0-22.0"}}, {"uniqueid": "w68639087:a18270537", "current_trial": 44, "dateTime": 1691143483651, "trialdata": {"revealed_states": [], "clicked_states": ["12", "1", "23", "21", "20"], "num_clicks_accrued": [0, 0, 0, 0, 0, 0, 0, 0, 0, 0, 0, 0, 0], "stateRewards": ["", -1, 2, 7, 8, 75, 67, -11, 6, 52, -17, 38, -1, 4, -8, 14, 74, -37, -17, -12, 52, 55, 71, -2, -1, -5, 2, 21, 6, -88, -14, 64, -61, -47], "withholdReward": false, "trial_id": "mdp_trial_24", "block": "test", "trialIndex": 29, "score": 31, "costs": -7, "simulationMode": [null, null, null, null, null], "rewards": [-1, 4, -8, -12, 55], "path": ["0", "0", "12", "13", "14", "19", "21"], "rt": [15666, 34, 91, 264, 681], "actions": ["right", "right", "right", "down", "down"], "actionTimes": [17573, 18132, 18782, 19588, 20836], "queries": {"click": {"state": {"target": ["12", "1", "23", "21", "20"], "time": [3412, 6022, 8138, 11472, 14058]}, "edge": {"target": [], "time": []}}, "mouseover": {"state": {"target": ["12", "0", "1", "23", "19", "21", "20"], "time": [3192, 5690, 5769, 7430, 10859, 11240, 13852]}, "edge": {"target": [], "time": []}}, "mouseout": {"state": {"target": ["12", "0", "1", "23", "19", "21"], "time": [4433, 5711, 7150, 10293, 11126, 13603]}, "edge": {"target": [], "time": []}}}, "displayed_time": "21.37", "trialTime": 23277, "trial_type": "mouselab-mdp", "trial_index": 44, "time_elapsed": 1353831, "internal_node_id": "0.0-4.0-1.0-23.0"}}, {"uniqueid": "w68639087:a18270537", "current_trial": 45, "dateTime": 1691143513906, "trialdata": {"revealed_states": [], "clicked_states": ["12", "16", "17", "18", "22", "20", "21"], "num_clicks_accrued": [0, 0, 0, 0, 0, 0, 0, 0, 0, 0, 0, 0, 0], "stateRewards": ["", -1, 3, -7, 16, -32, -74, -48, 2, 10, 15, -30, 1, 1, -2, 10, 12, -83, 67, 13, -66, 47, 65, -2, 4, 2, -14, -8, -57, 24, 9, 65, 12, 46], "withholdReward": false, "trial_id": "mdp_trial_25", "block": "test", "trialIndex": 30, "score": 67.2, "costs": -9.8, "simulationMode": [null, null, null, null, null], "rewards": [1, 1, -2, 10, 67], "path": ["0", "0", "12", "13", "14", "15", "18"], "rt": [18925, 663, 18, 180, 11], "actions": ["right", "right", "right", "up", "left"], "actionTimes": [20995, 22219, 22794, 23530, 24074], "queries": {"click": {"state": {"target": ["12", "16", "17", "18", "22", "20", "21"], "time": [3506, 6292, 8971, 11543, 13736, 15884, 17992]}, "edge": {"target": [], "time": []}}, "mouseover": {"state": {"target": ["12", "15", "16", "17", "14", "22", "13", "18", "13", "22", "19", "20", "21"], "time": [3013, 5790, 6039, 8750, 10611, 11059, 11192, 11277, 12428, 12809, 14963, 15362, 16743]}, "edge": {"target": [], "time": []}}, "mouseout": {"state": {"target": ["20", "19", "22", "12", "0", "12", "15", "16", "17", "14", "22", "13", "18", "18", "13", "22", "19", "20", "20", "21"], "time": [800, 851, 983, 1182, 1280, 4653, 5843, 8435, 10469, 10794, 11162, 11228, 11629, 12343, 12543, 14929, 15044, 16020, 16558, 19874]}, "edge": {"target": [], "time": []}}}, "displayed_time": "24.64", "trialTime": 29043, "trial_type": "mouselab-mdp", "trial_index": 45, "time_elapsed": 1384087, "internal_node_id": "0.0-4.0-1.0-24.0"}}, {"uniqueid": "w68639087:a18270537", "current_trial": 46, "dateTime": 1691143546265, "trialdata": {"revealed_states": [], "clicked_states": ["25", "32", "23", "31", "33", "29", "28", "27"], "num_clicks_accrued": [0, 0, 0, 0, 0, 0, 0, 0, 0, 0, 0, 0, 0], "stateRewards": ["", 2, 3, -6, -5, -3, 55, 40, 11, 61, 11, 51, 2, -4, -6, 9, -25, 29, -15, -6, 7, -77, -2, -2, -4, 1, 14, -43, -1, 56, -12, -54, 41, -74], "withholdReward": false, "trial_id": "mdp_trial_26", "block": "test", "trialIndex": 31, "score": 53.8, "costs": -11.200000000000001, "simulationMode": [null, null, null, null, null], "rewards": [-2, -4, 1, 14, 56], "path": ["0", "0", "23", "24", "25", "26", "29"], "rt": [23218, 474, 115, 220, 66], "actions": ["left", "left", "left", "up", "left"], "actionTimes": [25888, 26902, 27550, 28326, 28959], "queries": {"click": {"state": {"target": ["25", "32", "23", "31", "33", "29", "28", "27"], "time": [4456, 7768, 10603, 13280, 15907, 18592, 20932, 23097]}, "edge": {"target": [], "time": []}}, "mouseover": {"state": {"target": ["23", "24", "25", "31", "31", "30", "32", "31", "23", "24", "25", "30", "31", "30", "33", "29", "26", "28", "27"], "time": [3759, 3908, 4242, 5527, 7038, 7204, 7385, 10115, 10197, 11521, 12074, 12228, 12856, 15498, 15680, 18428, 20322, 20669, 21711]}, "edge": {"target": [], "time": []}}, "mouseout": {"state": {"target": ["0", "23", "24", "25", "25", "31", "31", "30", "32", "31", "23", "24", "25", "30", "31", "30", "33", "29", "26", "28"], "time": [3613, 3877, 4094, 4525, 5475, 5940, 7118, 7235, 10080, 10148, 11486, 11563, 12152, 12250, 15316, 15532, 18128, 20272, 20489, 21442]}, "edge": {"target": [], "time": []}}}, "displayed_time": "29.50", "trialTime": 31238, "trial_type": "mouselab-mdp", "trial_index": 46, "time_elapsed": 1416446, "internal_node_id": "0.0-4.0-1.0-25.0"}}, {"uniqueid": "w68639087:a18270537", "current_trial": 47, "dateTime": 1691143570618, "trialdata": {"revealed_states": [], "clicked_states": ["12", "20", "17", "22"], "num_clicks_accrued": [0, 0, 0, 0, 0, 0, 0, 0, 0, 0, 0, 0, 0], "stateRewards": ["", 1, 4, 5, -5, 58, -80, 75, 6, 25, -39, 46, 2, -2, 4, 2, 59, 31, -22, -12, -61, 15, 72, 1, -2, -7, 8, 77, 76, -23, -7, 71, -15, -3], "withholdReward": false, "trial_id": "mdp_trial_27", "block": "test", "trialIndex": 32, "score": 58.4, "costs": -5.6, "simulationMode": [null, null, null, null, null], "rewards": [2, -2, 4, -12, 72], "path": ["0", "0", "12", "13", "14", "19", "22"], "rt": [13995, 167, 76, 1057, 125], "actions": ["right", "right", "right", "down", "left"], "actionTimes": [16635, 17329, 17969, 19577, 20241], "queries": {"click": {"state": {"target": ["12", "20", "17", "22"], "time": [3976, 7965, 10479, 13154]}, "edge": {"target": [], "time": []}}, "mouseover": {"state": {"target": ["0", "12", "0", "15", "17", "14", "19", "20", "17", "14", "22"], "time": [2664, 3699, 5943, 6308, 6875, 7289, 7605, 7755, 10230, 12692, 12944]}, "edge": {"target": [], "time": []}}, "mouseout": {"state": {"target": ["27", "10", "0", "12", "0", "15", "17", "14", "19", "20", "20", "17", "14", "22", "22"], "time": [1119, 1169, 3306, 3999, 6094, 6791, 7108, 7509, 7670, 9634, 10051, 12560, 12807, 15355, 15503]}, "edge": {"target": [], "time": []}}}, "displayed_time": "20.78", "trialTime": 23185, "trial_type": "mouselab-mdp", "trial_index": 47, "time_elapsed": 1440799, "internal_node_id": "0.0-4.0-1.0-26.0"}}, {"uniqueid": "w68639087:a18270537", "current_trial": 48, "dateTime": 1691143604441, "trialdata": {"revealed_states": [], "clicked_states": ["12", "21", "1", "23", "17", "18", "16", "20", "22"], "num_clicks_accrued": [0, 0, 0, 0, 0, 0, 0, 0, 0, 0, 0, 0, 0], "stateRewards": ["", -1, 2, -2, 5, 80, -61, -27, 12, 44, -26, -75, -2, -4, 1, -16, 42, -49, -50, 4, -44, 2, 80, -2, -2, 5, -2, 59, 10, 24, 7, -48, -86, -44], "withholdReward": false, "trial_id": "mdp_trial_28", "block": "test", "trialIndex": 33, "score": 66.4, "costs": -12.600000000000001, "simulationMode": [null, null, null, null, null], "rewards": [-2, -4, 1, 4, 80], "path": ["0", "0", "12", "13", "14", "19", "22"], "rt": [23823, 202, 1341, 207, 370], "actions": ["right", "right", "right", "down", "left"], "actionTimes": [25823, 26557, 28445, 29189, 30094], "queries": {"click": {"state": {"target": ["12", "21", "1", "23", "17", "18", "16", "20", "22"], "time": [2834, 5172, 7635, 9999, 13777, 15871, 18132, 20199, 22235]}, "edge": {"target": [], "time": []}}, "mouseover": {"state": {"target": ["12", "12", "22", "21", "22", "1", "23", "0", "1", "2", "15", "17", "18", "16", "20", "19", "22"], "time": [2314, 2595, 3726, 4201, 6367, 7467, 9735, 11607, 12272, 12355, 13390, 13551, 15120, 17876, 19101, 20884, 20968]}, "edge": {"target": [], "time": []}}, "mouseout": {"state": {"target": ["0", "12", "12", "22", "21", "22", "1", "23", "0", "1", "2", "15", "17", "18", "16", "20", "19", "22"], "time": [2065, 2379, 3609, 3885, 6220, 6404, 9529, 11568, 12201, 12303, 12522, 13420, 14730, 17743, 18618, 20848, 20927, 24828]}, "edge": {"target": [], "time": []}}}, "displayed_time": "30.68", "trialTime": 32693, "trial_type": "mouselab-mdp", "trial_index": 48, "time_elapsed": 1474622, "internal_node_id": "0.0-4.0-1.0-27.0"}}, {"uniqueid": "w68639087:a18270537", "current_trial": 49, "dateTime": 1691143631434, "trialdata": {"revealed_states": [], "clicked_states": ["1", "7", "6", "5", "11", "10", "9"], "num_clicks_accrued": [0, 0, 0, 0, 0, 0, 0, 0, 0, 0, 0, 0, 0], "stateRewards": ["", -2, -1, -5, 10, -36, -70, 68, -9, 86, 71, -10, 2, -4, 7, -7, 66, 44, -66, -13, -69, 43, 15, -2, 2, 6, -13, 62, 57, 50, -10, -69, 42, -72], "withholdReward": false, "trial_id": "mdp_trial_29", "block": "test", "trialIndex": 34, "score": 59.2, "costs": -9.8, "simulationMode": [null, null, null, null, null], "rewards": [-2, -1, -5, -9, 86], "path": ["0", "0", "1", "2", "3", "8", "9"], "rt": [18077, 194, 963, 75, 205], "actions": ["up", "up", "up", "left", "up"], "actionTimes": [19766, 20508, 22044, 22668, 23404], "queries": {"click": {"state": {"target": ["1", "7", "6", "5", "11", "10", "9"], "time": [2946, 5327, 7523, 9623, 11909, 14243, 16458]}, "edge": {"target": [], "time": []}}, "mouseover": {"state": {"target": ["1", "2", "3", "2", "1", "7", "6", "5", "9", "9", "11", "10", "8", "9"], "time": [2132, 2173, 2301, 2515, 2647, 5026, 5831, 8348, 10293, 10567, 11676, 13972, 15074, 15270]}, "edge": {"target": [], "time": []}}, "mouseout": {"state": {"target": ["22", "12", "1", "2", "3", "2", "1", "1", "7", "6", "5", "9", "9", "11", "11", "10", "8", "9"], "time": [452, 717, 2153, 2215, 2465, 2564, 3807, 4727, 5673, 7998, 10099, 10373, 11478, 11992, 13888, 14324, 15154, 18746]}, "edge": {"target": [], "time": []}}}, "displayed_time": "23.94", "trialTime": 25885, "trial_type": "mouselab-mdp", "trial_index": 49, "time_elapsed": 1501614, "internal_node_id": "0.0-4.0-1.0-28.0"}}, {"uniqueid": "w68639087:a18270537", "current_trial": 50, "dateTime": 1691143655625, "trialdata": {"revealed_states": [], "clicked_states": ["23", "31", "33", "32", "27"], "num_clicks_accrued": [0, 0, 0, 0, 0, 0, 0, 0, 0, 0, 0, 0, 0], "stateRewards": ["", -2, -2, -7, -13, -10, 49, -68, -1, 84, 70, 88, 1, 4, 4, 12, -57, 25, 30, 8, -1, -77, 57, 2, 3, 2, 3, -18, -80, 23, -15, -41, 70, 11], "withholdReward": false, "trial_id": "mdp_trial_30", "block": "test", "trialIndex": 35, "score": 55, "costs": -7, "simulationMode": [null, null, null, null, null], "rewards": [2, 3, 2, -15, 70], "path": ["0", "0", "23", "24", "25", "30", "32"], "rt": [15023, 844, 228, 95, 192], "actions": ["left", "left", "left", "down", "down"], "actionTimes": [16982, 18373, 19133, 19781, 20534], "queries": {"click": {"state": {"target": ["23", "31", "33", "32", "27"], "time": [2847, 6291, 8815, 11210, 14510]}, "edge": {"target": [], "time": []}}, "mouseover": {"state": {"target": ["23", "1", "24", "25", "31", "32", "33", "32", "30", "25", "26", "27"], "time": [2629, 4728, 5555, 5753, 6071, 8399, 8599, 10627, 13753, 13905, 13973, 14233]}, "edge": {"target": [], "time": []}}, "mouseout": {"state": {"target": ["18", "12", "0", "23", "1", "24", "25", "31", "31", "32", "33", "32", "30", "25", "26"], "time": [897, 981, 2563, 4330, 5324, 5656, 5902, 6379, 7471, 8419, 10424, 13519, 13884, 13951, 14084]}, "edge": {"target": [], "time": []}}}, "displayed_time": "21.07", "trialTime": 23086, "trial_type": "mouselab-mdp", "trial_index": 50, "time_elapsed": 1525806, "internal_node_id": "0.0-4.0-1.0-29.0"}}, {"uniqueid": "w68639087:a18270537", "current_trial": 51, "dateTime": 1691143678905, "trialdata": {"revealed_states": [], "clicked_states": ["12", "1", "7", "6"], "num_clicks_accrued": [0, 0, 0, 0, 0, 0, 0, 0, 0, 0, 0, 0, 0], "stateRewards": ["", 1, 3, 3, -10, 52, 68, 59, 12, 7, 49, 21, -2, -3, -4, -2, -2, 63, 63, -4, 44, 43, -76, -2, -3, -6, 13, 48, 36, 12, -5, -36, -33, -11], "withholdReward": false, "trial_id": "mdp_trial_31", "block": "test", "trialIndex": 36, "score": 59.4, "costs": -5.6, "simulationMode": [null, null, null, null, null], "rewards": [1, 3, 3, -10, 68], "path": ["0", "0", "1", "2", "3", "4", "6"], "rt": [12407, 37, 13, 1201, 92], "actions": ["up", "up", "up", "right", "right"], "actionTimes": [14358, 14920, 15516, 17264, 17904], "queries": {"click": {"state": {"target": ["12", "1", "7", "6"], "time": [2530, 5366, 8167, 11138]}, "edge": {"target": [], "time": []}}, "mouseover": {"state": {"target": ["12", "1", "1", "23", "7", "6"], "time": [2067, 4825, 5191, 7368, 7832, 10891]}, "edge": {"target": [], "time": []}}, "mouseout": {"state": {"target": ["27", "10", "0", "12", "1", "1", "23", "1", "7"], "time": [481, 631, 1981, 4776, 4905, 6907, 7618, 7684, 8256]}, "edge": {"target": [], "time": []}}}, "displayed_time": "18.44", "trialTime": 22072, "trial_type": "mouselab-mdp", "trial_index": 51, "time_elapsed": 1549086, "internal_node_id": "0.0-4.0-1.0-30.0"}}, {"uniqueid": "w68639087:a18270537", "current_trial": 52, "dateTime": 1691143706513, "trialdata": {"revealed_states": [], "clicked_states": ["1", "12", "23", "25", "27"], "num_clicks_accrued": [0, 0, 0, 0, 0, 0, 0, 0, 0, 0, 0, 0, 0], "stateRewards": ["", -2, 2, 3, -7, -31, -33, 29, -8, -57, 50, -83, -1, -1, 5, 13, -23, -62, 25, 5, -66, -85, 14, 1, -2, -1, 16, 71, 33, -19, -14, 5, -43, 79], "withholdReward": false, "trial_id": "mdp_trial_32", "block": "test", "trialIndex": 37, "score": 78, "costs": -7, "simulationMode": [null, null, null, null, null], "rewards": [1, -2, -1, 16, 71], "path": ["0", "0", "23", "24", "25", "26", "27"], "rt": [15799, 745, 104, 44, 11], "actions": ["left", "left", "left", "up", "up"], "actionTimes": [19056, 20336, 20975, 21567, 22146], "queries": {"click": {"state": {"target": ["1", "12", "23", "25", "27"], "time": [4430, 7245, 9909, 12740, 15612]}, "edge": {"target": [], "time": []}}, "mouseover": {"state": {"target": ["1", "12", "12", "0", "23", "24", "25", "26", "27", "26", "30", "32", "30"], "time": [3968, 6628, 7077, 9621, 9702, 12331, 12528, 15076, 15406, 16876, 17023, 17321, 18001]}, "edge": {"target": [], "time": []}}, "mouseout": {"state": {"target": ["6", "2", "1", "0", "1", "12", "12", "0", "23", "24", "25", "26", "27", "26", "25", "30", "32", "30"], "time": [1889, 1973, 2018, 3800, 5495, 6758, 9587, 9655, 12033, 12449, 14476, 15176, 16827, 16916, 16994, 17100, 17953, 18167]}, "edge": {"target": [], "time": []}}}, "displayed_time": "22.72", "trialTime": 26560, "trial_type": "mouselab-mdp", "trial_index": 52, "time_elapsed": 1576694, "internal_node_id": "0.0-4.0-1.0-31.0"}}, {"uniqueid": "w68639087:a18270537", "current_trial": 53, "dateTime": 1691143739097, "trialdata": {"revealed_states": [], "clicked_states": ["1", "3", "6", "7", "5", "9", "11", "10"], "num_clicks_accrued": [0, 0, 0, 0, 0, 0, 0, 0, 0, 0, 0, 0, 0], "stateRewards": ["", 2, -4, 1, -12, -59, -53, -74, 16, -88, -66, 66, 1, -2, 8, -9, -14, 22, 25, -1, -39, 47, -14, -1, -1, -2, 1, -4, 52, -26, 15, -7, 46, 43], "withholdReward": false, "trial_id": "mdp_trial_33", "block": "test", "trialIndex": 38, "score": 69.8, "costs": -11.200000000000001, "simulationMode": [null, null, null, null, null], "rewards": [2, -4, 1, 16, 66], "path": ["0", "0", "1", "2", "3", "8", "11"], "rt": [21983, 1143, 221, 160, 136], "actions": ["up", "up", "up", "left", "left"], "actionTimes": [24263, 25934, 26701, 27405, 28077], "queries": {"click": {"state": {"target": ["1", "3", "6", "7", "5", "9", "11", "10"], "time": [3787, 6591, 9594, 12166, 14683, 17062, 19268, 21478]}, "edge": {"target": [], "time": []}}, "mouseover": {"state": {"target": ["1", "12", "3", "7", "7", "4", "6", "7", "4", "5", "9", "11", "10", "2", "15", "17"], "time": [3009, 4693, 6186, 8234, 8848, 9061, 9279, 11921, 14332, 14550, 15730, 18939, 21050, 22372, 22688, 22735]}, "edge": {"target": [], "time": []}}, "mouseout": {"state": {"target": ["24", "23", "0", "1", "12", "3", "7", "7", "4", "6", "7", "4", "5", "9", "11", "10", "2", "15", "17"], "time": [1028, 1294, 2908, 4617, 4933, 8119, 8296, 8946, 9083, 11473, 13818, 14382, 15638, 18739, 20865, 22298, 22609, 22727, 22797]}, "edge": {"target": [], "time": []}}}, "displayed_time": "28.61", "trialTime": 31414, "trial_type": "mouselab-mdp", "trial_index": 53, "time_elapsed": 1609277, "internal_node_id": "0.0-4.0-1.0-32.0"}}, {"uniqueid": "w68639087:a18270537", "current_trial": 54, "dateTime": 1691143774384, "trialdata": {"revealed_states": [], "clicked_states": ["12", "14", "21", "20", "18", "16", "17", "22"], "num_clicks_accrued": [0, 0, 0, 0, 0, 0, 0, 0, 0, 0, 0, 0, 0], "stateRewards": ["", 1, 1, 4, 11, 83, -66, 18, -16, -23, 5, 25, 1, -3, 1, -12, 18, 24, -86, -11, -64, 36, 40, 2, 1, -6, 13, 55, 29, 72, -2, 81, -72, -41], "withholdReward": false, "trial_id": "mdp_trial_34", "block": "test", "trialIndex": 39, "score": 16.799999999999997, "costs": -11.200000000000001, "simulationMode": [null, null, null, null, null], "rewards": [1, -3, 1, -11, 40], "path": ["0", "0", "12", "13", "14", "19", "22"], "rt": [22989, 28, 173, 92, 101], "actions": ["right", "right", "right", "down", "left"], "actionTimes": [26202, 26768, 27528, 28176, 28832], "queries": {"click": {"state": {"target": ["12", "14", "21", "20", "18", "16", "17", "22"], "time": [5175, 8217, 10981, 13596, 16238, 18371, 21145, 23306]}, "edge": {"target": [], "time": []}}, "mouseover": {"state": {"target": ["12", "14", "14", "19", "21", "20", "14", "18", "16", "17", "14", "22", "19"], "time": [4871, 7483, 7811, 10426, 10739, 13285, 15765, 16009, 17735, 20984, 22503, 22806, 24121]}, "edge": {"target": [], "time": []}}, "mouseout": {"state": {"target": ["14", "13", "12", "0", "12", "14", "14", "19", "21", "20", "20", "14", "18", "16", "17", "17", "14", "22", "19"], "time": [1762, 1973, 2190, 4771, 6414, 7514, 9974, 10590, 12833, 14705, 15744, 15792, 17653, 20754, 21171, 22391, 22546, 23808, 24158]}, "edge": {"target": [], "time": []}}}, "displayed_time": "29.37", "trialTime": 33977, "trial_type": "mouselab-mdp", "trial_index": 54, "time_elapsed": 1644565, "internal_node_id": "0.0-4.0-1.0-33.0"}}, {"uniqueid": "w68639087:a18270537", "current_trial": 55, "dateTime": 1691143800808, "trialdata": {"revealed_states": [], "clicked_states": ["12", "1", "23", "26", "30"], "num_clicks_accrued": [0, 0, 0, 0, 0, 0, 0, 0, 0, 0, 0, 0, 0], "stateRewards": ["", 1, -2, -3, 14, -42, -87, -37, -11, -50, 33, -44, -2, 4, -7, 13, 48, -75, -66, 12, 23, -2, 82, 1, -4, 3, 12, 51, -15, -26, -11, -52, -29, 82], "withholdReward": false, "trial_id": "mdp_trial_35", "block": "test", "trialIndex": 40, "score": -10, "costs": -7, "simulationMode": [null, null, null, null, null], "rewards": [1, -4, 3, 12, -15], "path": ["0", "0", "23", "24", "25", "26", "28"], "rt": [16361, 1083, 107, 361, 250], "actions": ["left", "left", "left", "up", "right"], "actionTimes": [18444, 20139, 20779, 21691, 22492], "queries": {"click": {"state": {"target": ["12", "1", "23", "26", "30"], "time": [3897, 5587, 7333, 11829, 15303]}, "edge": {"target": [], "time": []}}, "mouseover": {"state": {"target": ["12", "1", "23", "2", "10", "28", "26", "25", "30", "31"], "time": [3583, 5175, 6830, 8366, 8776, 9569, 10049, 14206, 14489, 15925]}, "edge": {"target": [], "time": []}}, "mouseout": {"state": {"target": ["14", "12", "0", "12", "1", "23", "2", "10", "28", "26", "25", "30", "31"], "time": [870, 952, 2948, 4696, 6553, 8133, 8599, 9469, 9665, 14122, 14355, 15880, 15960]}, "edge": {"target": [], "time": []}}}, "displayed_time": "23.03", "trialTime": 25139, "trial_type": "mouselab-mdp", "trial_index": 55, "time_elapsed": 1670988, "internal_node_id": "0.0-4.0-1.0-34.0"}}, {"uniqueid": "w68639087:a18270537", "current_trial": 56, "dateTime": 1691143830552, "trialdata": {"revealed_states": [], "clicked_states": ["23", "1", "12", "15", "19", "8", "4"], "num_clicks_accrued": [0, 0, 0, 0, 0, 0, 0, 0, 0, 0, 0, 0, 0], "stateRewards": ["", 1, 4, -8, -5, -15, -7, 21, 13, -30, 40, -65, 1, 1, 5, -14, 35, 27, -38, -11, 36, -58, -47, -2, 4, -3, 13, -16, -49, 22, 15, -56, -44, -10], "withholdReward": false, "trial_id": "mdp_trial_36", "block": "test", "trialIndex": 41, "score": 40.2, "costs": -9.8, "simulationMode": [null, null, null, null, null], "rewards": [1, 4, -8, 13, 40], "path": ["0", "0", "1", "2", "3", "8", "10"], "rt": [19914, 93, 129, 425, 217], "actions": ["up", "up", "up", "left", "down"], "actionTimes": [22453, 23084, 23764, 24717, 25476], "queries": {"click": {"state": {"target": ["23", "1", "12", "15", "19", "8", "4"], "time": [4212, 6386, 8526, 11640, 13741, 17745, 20014]}, "edge": {"target": [], "time": []}}, "mouseover": {"state": {"target": ["23", "1", "12", "12", "14", "15", "14", "19", "20", "18", "7", "8", "3", "4", "7"], "time": [3543, 4937, 6722, 6967, 10946, 11424, 12066, 12301, 14644, 16929, 16984, 17542, 18525, 18952, 20632]}, "edge": {"target": [], "time": []}}, "mouseout": {"state": {"target": ["12", "12", "0", "23", "1", "12", "12", "14", "15", "14", "19", "20", "18", "7", "8", "3", "4", "4"], "time": [1048, 1397, 3344, 4776, 6678, 6767, 9808, 11342, 12020, 12210, 14637, 14677, 16961, 17008, 18494, 18721, 20098, 20507]}, "edge": {"target": [], "time": []}}}, "displayed_time": "26.02", "trialTime": 28541, "trial_type": "mouselab-mdp", "trial_index": 56, "time_elapsed": 1700733, "internal_node_id": "0.0-4.0-1.0-35.0"}}, {"uniqueid": "w68639087:a18270537", "current_trial": 57, "dateTime": 1691143871863, "trialdata": {"revealed_states": [], "clicked_states": ["12", "1", "8", "9", "10", "11", "4", "7", "6", "5", "17", "20"], "num_clicks_accrued": [0, 0, 0, 0, 0, 0, 0, 0, 0, 0, 0, 0, 0], "stateRewards": ["", 1, -1, 4, 5, -32, 18, 20, 6, -88, -74, 9, -2, 1, -2, -14, 34, -77, -38, -1, 80, -36, 73, 2, 3, -8, 10, -48, -73, -71, -11, -22, 20, 54], "withholdReward": false, "trial_id": "mdp_trial_37", "block": "test", "trialIndex": 42, "score": 59.2, "costs": -16.8, "simulationMode": [null, null, null, null, null], "rewards": [-2, 1, -2, -1, 80], "path": ["0", "0", "12", "13", "14", "19", "20"], "rt": [32147, 89, 738, 73, 162], "actions": ["right", "right", "right", "down", "right"], "actionTimes": [34468, 35107, 36370, 36995, 37683], "queries": {"click": {"state": {"target": ["12", "1", "8", "9", "10", "11", "4", "7", "6", "5", "17", "20"], "time": [3196, 5758, 8685, 11848, 14205, 16696, 19132, 21536, 23681, 25920, 29142, 31281]}, "edge": {"target": [], "time": []}}, "mouseover": {"state": {"target": ["12", "1", "2", "8", "11", "9", "8", "10", "11", "2", "7", "4", "7", "6", "5", "17", "20"], "time": [2985, 5578, 8107, 8338, 11248, 11632, 13810, 14010, 16439, 17440, 17510, 18948, 21295, 22310, 24409, 28975, 30312]}, "edge": {"target": [], "time": []}}, "mouseout": {"state": {"target": ["7", "1", "0", "12", "12", "1", "2", "8", "11", "9", "8", "10", "10", "10", "11", "11", "10", "2", "7", "4", "7", "6", "5", "17"], "time": [1139, 1304, 2819, 4210, 5448, 8039, 8134, 11119, 11398, 13644, 13911, 14327, 15159, 16401, 16810, 17317, 17434, 17467, 17584, 20048, 21606, 24142, 26492, 29894]}, "edge": {"target": [], "time": []}}}, "displayed_time": "38.27", "trialTime": 40178, "trial_type": "mouselab-mdp", "trial_index": 57, "time_elapsed": 1742044, "internal_node_id": "0.0-4.0-1.0-36.0"}}, {"uniqueid": "w68639087:a18270537", "current_trial": 58, "dateTime": 1691143895287, "trialdata": {"revealed_states": [], "clicked_states": ["12", "15", "18", "16", "17"], "num_clicks_accrued": [0, 0, 0, 0, 0, 0, 0, 0, 0, 0, 0, 0, 0], "stateRewards": ["", -1, 4, -5, 9, 29, -75, -42, -16, 24, -28, -41, 2, -3, 1, 10, 60, 47, 55, -1, -53, 22, -40, 2, -3, -6, 4, -26, 44, 54, 15, -76, 42, 14], "withholdReward": false, "trial_id": "mdp_trial_38", "block": "test", "trialIndex": 43, "score": 63, "costs": -7, "simulationMode": [null, null, null, null, null], "rewards": [2, -3, 1, 10, 60], "path": ["0", "0", "12", "13", "14", "15", "16"], "rt": [14831, 12, 24, 235, 40], "actions": ["right", "right", "right", "up", "up"], "actionTimes": [17203, 17768, 18354, 19138, 19714], "queries": {"click": {"state": {"target": ["12", "15", "18", "16", "17"], "time": [3615, 6191, 9308, 11917, 14400]}, "edge": {"target": [], "time": []}}, "mouseover": {"state": {"target": ["6", "12", "13", "15", "14", "19", "16", "18", "16", "17"], "time": [2945, 3424, 4942, 6035, 7756, 7932, 8829, 9094, 11622, 13195]}, "edge": {"target": [], "time": []}}, "mouseout": {"state": {"target": ["20", "19", "22", "0", "6", "12", "13", "15", "14", "19", "16", "18", "16", "17"], "time": [647, 696, 794, 2417, 3008, 4712, 5769, 7732, 7882, 8430, 8979, 11408, 12656, 15274]}, "edge": {"target": [], "time": []}}}, "displayed_time": "20.31", "trialTime": 22106, "trial_type": "mouselab-mdp", "trial_index": 58, "time_elapsed": 1765468, "internal_node_id": "0.0-4.0-1.0-37.0"}}, {"uniqueid": "w68639087:a18270537", "current_trial": 59, "dateTime": 1691143915807, "trialdata": {"revealed_states": [], "clicked_states": ["1", "8", "10"], "num_clicks_accrued": [0, 0, 0, 0, 0, 0, 0, 0, 0, 0, 0, 0, 0], "stateRewards": ["", 2, 4, 4, 9, -88, -10, 44, 16, -54, 64, 78, 1, 2, 5, 16, 80, 36, 7, -4, 9, -47, -70, -1, -3, 6, -16, 11, 80, 28, 8, -1, 34, -17], "withholdReward": false, "trial_id": "mdp_trial_39", "block": "test", "trialIndex": 44, "score": 85.8, "costs": -4.199999999999999, "simulationMode": [null, null, null, null, null], "rewards": [2, 4, 4, 16, 64], "path": ["0", "0", "1", "2", "3", "8", "10"], "rt": [10511, 439, 254, 714, 103], "actions": ["up", "up", "up", "left", "down"], "actionTimes": [12812, 13802, 14586, 15842, 16498], "queries": {"click": {"state": {"target": ["1", "8", "10"], "time": [3183, 6156, 9464]}, "edge": {"target": [], "time": []}}, "mouseover": {"state": {"target": ["1", "23", "2", "8", "3", "4", "3", "9", "10"], "time": [2985, 4397, 5711, 5893, 7289, 7340, 8672, 8919, 9168]}, "edge": {"target": [], "time": []}}, "mouseout": {"state": {"target": ["14", "13", "12", "0", "1", "23", "2", "8", "3", "4", "3", "9", "8", "10"], "time": [822, 937, 1118, 2836, 4211, 5629, 5793, 7253, 7332, 8574, 8754, 9068, 9137, 10934]}, "edge": {"target": [], "time": []}}}, "displayed_time": "17.04", "trialTime": 19338, "trial_type": "mouselab-mdp", "trial_index": 59, "time_elapsed": 1785988, "internal_node_id": "0.0-4.0-1.0-38.0"}}, {"uniqueid": "w68639087:a18270537", "current_trial": 60, "dateTime": 1691143946279, "trialdata": {"revealed_states": [], "clicked_states": ["23", "30", "26", "32", "31", "33", "24"], "num_clicks_accrued": [0, 0, 0, 0, 0, 0, 0, 0, 0, 0, 0, 0, 0], "stateRewards": ["", -2, 3, -1, 2, -72, 63, 20, -1, 62, -66, 39, -2, 3, -6, 14, 22, 47, 1, 8, -49, -1, -41, 2, 2, -6, -16, -64, -60, -34, 16, 54, 22, -7], "withholdReward": false, "trial_id": "mdp_trial_40", "block": "test", "trialIndex": 45, "score": 58.2, "costs": -9.8, "simulationMode": [null, null, null, null, null], "rewards": [2, 2, -6, 16, 54], "path": ["0", "0", "23", "24", "25", "30", "31"], "rt": [20923, 105, 87, 268, 40], "actions": ["left", "left", "left", "down", "right"], "actionTimes": [23474, 24121, 24746, 25537, 26188], "queries": {"click": {"state": {"target": ["23", "30", "26", "32", "31", "33", "24"], "time": [3318, 6902, 9526, 12116, 14575, 17154, 20889]}, "edge": {"target": [], "time": []}}, "mouseover": {"state": {"target": ["0", "23", "13", "22", "12", "0", "24", "25", "30", "24", "26", "23", "32", "31", "30", "33", "24"], "time": [2578, 3143, 4413, 4606, 5472, 5918, 6018, 6101, 6683, 9064, 9279, 9949, 11940, 14266, 16727, 16963, 20621]}, "edge": {"target": [], "time": []}}, "mouseout": {"state": {"target": ["2", "1", "0", "23", "13", "22", "12", "0", "23", "24", "25", "30", "24", "26", "23", "32", "31", "30", "33", "24"], "time": [1513, 1661, 3076, 4341, 4568, 4719, 5869, 5943, 5988, 6051, 6586, 6972, 9114, 9750, 9994, 13135, 15162, 16777, 17418, 21390]}, "edge": {"target": [], "time": []}}}, "displayed_time": "26.72", "trialTime": 29202, "trial_type": "mouselab-mdp", "trial_index": 60, "time_elapsed": 1816460, "internal_node_id": "0.0-4.0-1.0-39.0"}}, {"uniqueid": "w68639087:a18270537", "current_trial": 61, "dateTime": 1691144003048, "trialdata": {"rt": 56750, "response": {"Q0": "$-2 to $2", "Q1": "$-16 to $16", "Q2": "$-88 to $88", "Q3": "The cost was always $1.4.", "Q4": "Very motivated"}, "question_order": [0, 1, 2, 3, 4], "trial_id": "final_quiz_control", "trial_type": "survey-multi-choice", "trial_index": 61, "time_elapsed": 1873229, "internal_node_id": "0.0-4.0-2.0"}}, {"uniqueid": "w68639087:a18270537", "current_trial": 62, "dateTime": 1691144339047, "trialdata": {"rt": 335972, "response": {"Q0": "I clicked on the end nodes to see the value and then go to that value. I did not account for internode losses and switched strategies when I saw the pattern", "Q1": "The strategy I ended up using was, clicking the first 3 to check which is the lowest or green. Then go down that row to node 4 to inspect the red or green. If green I inspect the surrounding nodes. If both nodes 4 are green, I take the highest value to counter uninspected node losses.", "Q2": "Not that difficult. Once you realize that there are specific nodes you can choose to help, it gets easier."}, "trial_id": "self_report_control", "trial_type": "survey-text", "trial_index": 62, "time_elapsed": 2209227, "internal_node_id": "0.0-4.0-3.0"}}, {"uniqueid": "w68639087:a18270537", "current_trial": 63, "dateTime": 1691144366995, "trialdata": {"rt": 27934, "response": {"gender": "male", "age": "25", "colorblind": "0", "effort": "0"}, "trial_type": "survey-html-form", "trial_index": 63, "time_elapsed": 2237176, "internal_node_id": "0.0-4.0-4.0"}}, {"uniqueid": "w68639087:a18270537", "current_trial": 64, "dateTime": 1691144429581, "trialdata": {"rt": 62573, "response": {"Q0": "None", "Q1": "No", "Q2": ""}, "trial_type": "survey-text", "trial_index": 64, "time_elapsed": 2299763, "internal_node_id": "0.0-4.0-5.0"}}, {"uniqueid": "w68639087:a18270537", "current_trial": 65, "dateTime": 1691144436986, "trialdata": {"rt": 7391, "stimulus": "Press 'Finish HIT' in order to reach the completion code. Once the data has been saved, you will receive the code either in this window or in the original browser window where you started the experiment.\n", "response": 0, "trial_type": "html-button-response", "trial_index": 65, "time_elapsed": 2307168, "internal_node_id": "0.0-5.0"}}, {"uniqueid": "w68639087:a18270537", "current_trial": 66, "dateTime": 1691144437998, "trialdata": {"success": true, "trial_type": "fullscreen", "trial_index": 66, "time_elapsed": 2308180, "internal_node_id": "0.0-6.0"}}], "questiondata": {"params": {"CODE": "C6DMOQA6", "MIN_TIME": 14, "inspectCost": 1, "startTime": "Fri Aug 04 2023 11:42:08 GMT+0200 (South Africa Standard Time)", "bonusRate": 0.002, "variance": "1_2_4_8_44", "branching": "31123"}, "final_score": 1712.8}, "eventdata": [{"eventtype": "initialized", "value": null, "timestamp": 1691142127622, "interval": 0}, {"eventtype": "window_resize", "value": [1024, 664], "timestamp": 1691142127622, "interval": 0}, {"eventtype": "window_resize", "value": [1024, 664], "timestamp": 1691142128102, "interval": 480}, {"eventtype": "window_resize", "value": [1366, 768], "timestamp": 1691142133582, "interval": 5480}, {"eventtype": "focus", "value": "off", "timestamp": 1691142598401, "interval": 464819}, {"eventtype": "focus", "value": "on", "timestamp": 1691142598404, "interval": 3}, {"eventtype": "window_resize", "value": [1024, 664], "timestamp": 1691142598622, "interval": 218}, {"eventtype": "window_resize", "value": [1366, 768], "timestamp": 1691142600406, "interval": 1784}, {"eventtype": "focus", "value": "off", "timestamp": 1691142749367, "interval": 148961}, {"eventtype": "focus", "value": "on", "timestamp": 1691142749367, "interval": 0}, {"eventtype": "window_resize", "value": [1024, 664], "timestamp": 1691142749590, "interval": 223}, {"eventtype": "window_resize", "value": [1366, 768], "timestamp": 1691142751134, "interval": 1544}, {"eventtype": "window_resize", "value": [1024, 664], "timestamp": 1691144437246, "interval": 1686112}], "useragent": "Mozilla/5.0 (X11; Linux x86_64) AppleWebKit/537.36 (KHTML, like Gecko) Chrome/115.0.0.0 Safari/537.36", "mode": "live", "id": "w68639087:a18270537", "status": "user data saved", "Beginhit": "2023-08-04 09:42:05.313506", "Beginexp": "2023-08-04 09:42:14.515657", "Endhit": "2023-08-04 10:20:39.242677", "psiturkStatus": 3, "browser": "<redacted>", "platform": "linux", "language": "en-ZA"}