{"condition": 1, "counterbalance": 0, "assignmentId": "a50534431", "workerId": "w41416775", "hitId": "h91020721", "currenttrial": 62, "bonus": 0, "data": [{"uniqueid": "w41416775:a50534431", "current_trial": 0, "dateTime": 1693834588830, "trialdata": {"success": true, "trial_type": "fullscreen", "trial_index": 0, "time_elapsed": 4294, "internal_node_id": "0.0-0.0"}}, {"uniqueid": "w41416775:a50534431", "current_trial": 1, "dateTime": 1693834605087, "trialdata": {"view_history": [{"page_index": 0, "viewing_time": 16226}], "rt": 16227, "trial_id": "exp_instructions_misaligned", "trial_type": "instructions", "trial_index": 1, "time_elapsed": 20552, "internal_node_id": "0.0-1.0"}}, {"uniqueid": "w41416775:a50534431", "current_trial": 2, "dateTime": 1693834853603, "trialdata": {"view_history": [{"page_index": 0, "viewing_time": 66256}, {"page_index": 1, "viewing_time": 48910}, {"page_index": 2, "viewing_time": 27320}, {"page_index": 3, "viewing_time": 106024}], "rt": 248510, "trial_id": "mouselab_instructions_1_misaligned", "trial_type": "instructions", "trial_index": 2, "time_elapsed": 269068, "internal_node_id": "0.0-2.0-1.0"}}, {"uniqueid": "w41416775:a50534431", "current_trial": 3, "dateTime": 1693834896397, "trialdata": {"revealed_states": [], "clicked_states": ["26", "15", "23", "4", "8"], "num_clicks_accrued": [0, 0, 0, 0, 0, 0, 0, 0, 0, 0, 0, 0, 0], "stateRewards": ["", -10, -10, 10, 10, 10, 10, 10, 10, 10, -10, 10, 10, 10, 10, -10, -10, -10, -10, 10, 10, -10, 10, -10, 10, 10, 10, 10, 10, 10, -10, 10, 10, 10], "withholdReward": false, "trial_id": "practice_1", "block": "test", "trialIndex": 0, "score": 31, "costs": -2.5, "simulationMode": [null, null, null, null, null], "rewards": [-10, 10, 10, 10, 10], "path": ["0", "0", "23", "24", "25", "26", "27"], "rt": [21856, 463, 96, 466, 184], "actions": ["left", "left", "left", "up", "up"], "actionTimes": [29876, 30869, 31500, 32493, 33212], "queries": {"click": {"state": {"target": ["26", "15", "23", "4", "8"], "time": [9563, 11505, 18414, 25904, 27892]}, "edge": {"target": [], "time": []}}, "mouseover": {"state": {"target": ["25", "26", "23", "13", "14", "14", "15", "12", "0", "23", "24", "25", "24", "23", "3", "3", "3", "23", "24", "12", "5", "4", "8", "11", "8", "10"], "time": [8921, 9223, 9893, 10716, 10784, 11070, 11115, 12465, 12491, 12520, 13614, 13786, 15242, 15358, 17363, 17486, 17705, 18253, 19667, 23279, 25137, 25650, 27210, 27248, 27512, 28305]}, "edge": {"target": [], "time": []}}, "mouseout": {"state": {"target": ["7", "17", "25", "26", "23", "13", "14", "14", "15", "12", "0", "23", "24", "25", "24", "23", "3", "3", "3", "23", "24", "12", "5", "4", "8", "11", "8", "10"], "time": [3175, 6923, 8970, 9840, 9916, 10760, 10836, 11105, 11839, 12485, 12513, 12539, 13711, 14123, 15307, 17319, 17392, 17556, 17733, 19641, 23213, 23863, 25435, 25942, 27241, 27357, 28301, 28326]}, "edge": {"target": [], "time": []}}}, "displayed_time": "33.73", "trialTime": 41415, "trial_type": "mouselab-mdp", "trial_index": 3, "time_elapsed": 311860, "internal_node_id": "0.0-2.0-2.0-0.0"}}, {"uniqueid": "w41416775:a50534431", "current_trial": 4, "dateTime": 1693834917341, "trialdata": {"revealed_states": [], "clicked_states": ["26", "15", "8", "4"], "num_clicks_accrued": [0, 0, 0, 0, 0, 0, 0, 0, 0, 0, 0, 0, 0], "stateRewards": ["", -10, 10, -10, -10, -10, 10, -10, -10, 10, -10, -10, 10, -10, 10, -10, 10, 10, 10, -10, -10, 10, -10, -10, 10, 10, 10, -10, -10, -10, 10, -10, -10, 10], "withholdReward": false, "trial_id": "practice_2", "block": "test", "trialIndex": 1, "score": 11.5, "costs": -2, "simulationMode": [null, null, null, null, null], "rewards": [-10, 10, 10, 10, -10], "path": ["0", "0", "23", "24", "25", "26", "29"], "rt": [10336, 358, 75, 73, 503], "actions": ["left", "left", "left", "up", "left"], "actionTimes": [13521, 14400, 14991, 15610, 16642], "queries": {"click": {"state": {"target": ["26", "15", "8", "4"], "time": [4911, 5996, 10217, 11598]}, "edge": {"target": [], "time": []}}, "mouseover": {"state": {"target": ["26", "26", "15", "12", "28", "10", "8", "3", "4", "31"], "time": [3912, 4188, 5517, 8667, 9322, 9361, 9715, 11140, 11192, 12635]}, "edge": {"target": [], "time": []}}, "mouseout": {"state": {"target": ["12", "1", "0", "26", "26", "15", "12", "28", "10", "8", "3", "4", "31"], "time": [2195, 2498, 2863, 3963, 5144, 8640, 8688, 9345, 9701, 11137, 11188, 12161, 12662]}, "edge": {"target": [], "time": []}}}, "displayed_time": "17.16", "trialTime": 20589, "trial_type": "mouselab-mdp", "trial_index": 4, "time_elapsed": 332804, "internal_node_id": "0.0-2.0-2.0-1.0"}}, {"uniqueid": "w41416775:a50534431", "current_trial": 5, "dateTime": 1693834950119, "trialdata": {"view_history": [{"page_index": 0, "viewing_time": 26054}, {"page_index": 1, "viewing_time": 6707}], "rt": 32762, "trial_id": "mouselab_instructions_2_misaligned", "trial_type": "instructions", "trial_index": 5, "time_elapsed": 365583, "internal_node_id": "0.0-2.0-3.0"}}, {"uniqueid": "w41416775:a50534431", "current_trial": 6, "dateTime": 1693834984607, "trialdata": {"rt": 34474, "response": {"Q0": "The cost for clicking on nodes may vary between nodes.", "Q1": "The better I perform the higher my bonus will be.", "Q2": "No, the amount of cash at each node of the web may be different each time.", "Q3": "To get the highest total score.", "Q4": "Any time during the round.", "Q5": "3 seconds"}, "question_order": [0, 1, 2, 3, 4, 5], "correct": {"Q0": "The cost for clicking on nodes may vary between nodes.", "Q1": "The better I perform the higher my bonus will be.", "Q2": "No, the amount of cash at each node of the web may be different each time.", "Q3": "To get the highest total score.", "Q4": "Only before moving the spider.", "Q5": "3 seconds"}, "trial_id": "mouselab_quiz_misaligned", "trial_type": "survey-multi-choice", "trial_index": 6, "time_elapsed": 400072, "internal_node_id": "0.0-2.0-4.0"}}, {"uniqueid": "w41416775:a50534431", "current_trial": 7, "dateTime": 1693834992704, "trialdata": {"success": true, "trial_type": "fullscreen", "trial_index": 7, "time_elapsed": 408168, "internal_node_id": "0.0-2.1-0.1-0.1"}}, {"uniqueid": "w41416775:a50534431", "current_trial": 8, "dateTime": 1693835091497, "trialdata": {"view_history": [{"page_index": 0, "viewing_time": 33314}, {"page_index": 1, "viewing_time": 44451}, {"page_index": 2, "viewing_time": 14052}, {"page_index": 3, "viewing_time": 6965}], "rt": 98782, "trial_id": "mouselab_instructions_1_misaligned", "trial_type": "instructions", "trial_index": 8, "time_elapsed": 506962, "internal_node_id": "0.0-2.1-1.1"}}, {"uniqueid": "w41416775:a50534431", "current_trial": 9, "dateTime": 1693835108212, "trialdata": {"revealed_states": [], "clicked_states": ["3", "25", "14"], "num_clicks_accrued": [0, 0, 0, 0, 0, 0, 0, 0, 0, 0, 0, 0, 0], "stateRewards": ["", -10, -10, 10, 10, 10, 10, 10, 10, 10, -10, 10, 10, 10, 10, -10, -10, -10, -10, 10, 10, -10, 10, -10, 10, 10, 10, 10, 10, 10, -10, 10, 10, 10], "withholdReward": false, "trial_id": "practice_1", "block": "test", "trialIndex": 2, "score": 12, "costs": -1.5, "simulationMode": [null, null, null, null, null], "rewards": [-10, -10, 10, 10, 10], "path": ["0", "0", "1", "2", "3", "4", "5"], "rt": [7640, 508, 208, 73, 313], "actions": ["up", "up", "up", "right", "up"], "actionTimes": [9136, 10159, 10880, 11472, 12334], "queries": {"click": {"state": {"target": ["3", "25", "14"], "time": [2461, 5628, 7746]}, "edge": {"target": [], "time": []}}, "mouseover": {"state": {"target": ["10", "3", "24", "25", "24", "13", "14", "12"], "time": [1575, 2160, 3227, 3301, 5928, 6000, 6049, 8127]}, "edge": {"target": [], "time": []}}, "mouseout": {"state": {"target": ["0", "10", "3", "24", "25", "24", "13", "14", "12"], "time": [1506, 1626, 2852, 3252, 5924, 5950, 6025, 8098, 8147]}, "edge": {"target": [], "time": []}}}, "displayed_time": "12.86", "trialTime": 16397, "trial_type": "mouselab-mdp", "trial_index": 9, "time_elapsed": 523674, "internal_node_id": "0.0-2.1-2.1-0.1"}}, {"uniqueid": "w41416775:a50534431", "current_trial": 10, "dateTime": 1693835127262, "trialdata": {"revealed_states": [], "clicked_states": ["31", "20", "17"], "num_clicks_accrued": [0, 0, 0, 0, 0, 0, 0, 0, 0, 0, 0, 0, 0], "stateRewards": ["", -10, 10, -10, -10, -10, 10, -10, -10, 10, -10, -10, 10, -10, 10, -10, 10, 10, 10, -10, -10, 10, -10, -10, 10, 10, 10, -10, -10, -10, 10, -10, -10, 10], "withholdReward": false, "trial_id": "practice_2", "block": "test", "trialIndex": 3, "score": 12, "costs": -1.5, "simulationMode": [null, null, null, null, null], "rewards": [10, -10, 10, -10, 10], "path": ["0", "0", "12", "13", "14", "15", "17"], "rt": [10058, 182, 292, 182, 100], "actions": ["right", "right", "right", "up", "right"], "actionTimes": [11298, 11997, 12805, 13519, 14136], "queries": {"click": {"state": {"target": ["31", "20", "17"], "time": [2945, 6529, 9288]}, "edge": {"target": [], "time": []}}, "mouseover": {"state": {"target": ["23", "30", "31", "20", "14", "19", "20", "13", "18", "15", "17", "13"], "time": [1940, 2373, 2759, 4678, 5416, 5821, 6174, 6914, 8595, 8944, 9014, 9710]}, "edge": {"target": [], "time": []}}, "mouseout": {"state": {"target": ["0", "23", "30", "31", "20", "14", "19", "20", "13", "18", "15", "17", "13", "13"], "time": [848, 1974, 2710, 3521, 4722, 5791, 6135, 6890, 6939, 8644, 8997, 9319, 9761, 17613]}, "edge": {"target": [], "time": []}}}, "displayed_time": "14.66", "trialTime": 18596, "trial_type": "mouselab-mdp", "trial_index": 10, "time_elapsed": 542725, "internal_node_id": "0.0-2.1-2.1-1.1"}}, {"uniqueid": "w41416775:a50534431", "current_trial": 11, "dateTime": 1693835133223, "trialdata": {"view_history": [{"page_index": 0, "viewing_time": 4465}, {"page_index": 1, "viewing_time": 1482}], "rt": 5948, "trial_id": "mouselab_instructions_2_misaligned", "trial_type": "instructions", "trial_index": 11, "time_elapsed": 548688, "internal_node_id": "0.0-2.1-3.1"}}, {"uniqueid": "w41416775:a50534431", "current_trial": 12, "dateTime": 1693835155569, "trialdata": {"rt": 22336, "response": {"Q0": "The cost for clicking on nodes may vary between nodes.", "Q1": "The better I perform the higher my bonus will be.", "Q2": "No, the amount of cash at each node of the web may be different each time.", "Q3": "To get the highest total score.", "Q4": "Only before moving the spider.", "Q5": "3 seconds"}, "question_order": [0, 1, 2, 3, 4, 5], "correct": {"Q0": "The cost for clicking on nodes may vary between nodes.", "Q1": "The better I perform the higher my bonus will be.", "Q2": "No, the amount of cash at each node of the web may be different each time.", "Q3": "To get the highest total score.", "Q4": "Only before moving the spider.", "Q5": "3 seconds"}, "trial_id": "mouselab_quiz_misaligned", "trial_type": "survey-multi-choice", "trial_index": 12, "time_elapsed": 571034, "internal_node_id": "0.0-2.1-4.1"}}, {"uniqueid": "w41416775:a50534431", "current_trial": 13, "dateTime": 1693835161441, "trialdata": {"rt": 5848, "response": {"Q0": "No"}, "question_order": [0], "trial_id": "repeat_check", "trial_type": "survey-multi-choice", "trial_index": 13, "time_elapsed": 576905, "internal_node_id": "0.0-4.0-0.0"}}, {"uniqueid": "w41416775:a50534431", "current_trial": 14, "dateTime": 1693835198733, "trialdata": {"rt": 37275, "stimulus": "\n<h1> Get ready to start the game! </h1>\n\nThank you for reading the instructions. Get ready start with the 40 rounds of this game.\n<br><br>\nIf you need to take a break, feel free to take one after the end of a round, before continuing to the next one.\n<br><br>\nRemember, the more money the spider gets, the bigger your bonus will be!\n<br><br>\n<div style='text-align: center;'>Press <code>space</code> to begin.</div>\n\n<br><br>\n(If, at any point, the <code>space</code> key does not take you to the next page, click once on the text and try again.)", "response": " ", "trial_id": "mdp_ready", "trial_type": "html-keyboard-response", "trial_index": 14, "time_elapsed": 614198, "internal_node_id": "0.0-6.0-0.0"}}, {"uniqueid": "w41416775:a50534431", "current_trial": 15, "dateTime": 1693835218296, "trialdata": {"revealed_states": [], "clicked_states": ["25", "15"], "num_clicks_accrued": [0, 0, 0, 0, 0, 0, 0, 0, 0, 0, 0, 0, 0], "stateRewards": ["", 1, -2, -3, 14, -42, -87, -37, -11, -50, 33, -44, -2, 4, -7, 13, 48, -75, -66, 12, 23, -2, 82, 1, -4, 3, 12, 51, -15, -26, -11, -52, -29, 82], "withholdReward": false, "trial_id": "mdp_trial_1", "block": "test", "trialIndex": 4, "score": -69.5, "costs": -2.5, "simulationMode": [null, null, null, null, null], "rewards": [-2, 4, -7, 13, -75], "path": ["0", "0", "12", "13", "14", "15", "17"], "rt": [4985, 127, 187, 144, 66], "actions": ["right", "right", "right", "up", "right"], "actionTimes": [7985, 8628, 9337, 9992, 10590], "queries": {"click": {"state": {"target": ["25", "15"], "time": [4393, 6312]}, "edge": {"target": [], "time": []}}, "mouseover": {"state": {"target": ["24", "25", "17", "15"], "time": [3951, 3984, 5536, 5762]}, "edge": {"target": [], "time": []}}, "mouseout": {"state": {"target": ["3", "7", "0", "24", "25", "17", "15"], "time": [2054, 2154, 3907, 3977, 4675, 5695, 13875]}, "edge": {"target": [], "time": []}}}, "displayed_time": "17.02", "trialTime": 19177, "trial_type": "mouselab-mdp", "trial_index": 15, "time_elapsed": 633759, "internal_node_id": "0.0-6.0-1.0-0.0"}}, {"uniqueid": "w41416775:a50534431", "current_trial": 16, "dateTime": 1693835243432, "trialdata": {"revealed_states": [], "clicked_states": ["20", "17", "29"], "num_clicks_accrued": [0, 0, 0, 0, 0, 0, 0, 0, 0, 0, 0, 0, 0], "stateRewards": ["", -1, -3, -7, -7, -76, 30, -49, 11, -70, 56, 2, 1, 4, -3, -14, -59, -83, -25, -9, -21, -67, -73, -2, 4, 4, -9, -11, -32, 60, 9, -87, 22, -64], "withholdReward": false, "trial_id": "mdp_trial_2", "block": "test", "trialIndex": 5, "score": 50.55, "costs": -6.449999999999999, "simulationMode": [null, null, null, null, null], "rewards": [-2, 4, 4, -9, 60], "path": ["0", "0", "23", "24", "25", "26", "29"], "rt": [13815, 164, 158, 158, 120], "actions": ["left", "left", "left", "up", "left"], "actionTimes": [17303, 17992, 18684, 19358, 19996], "queries": {"click": {"state": {"target": ["20", "17", "29"], "time": [5688, 9584, 13365]}, "edge": {"target": [], "time": []}}, "mouseover": {"state": {"target": ["19", "20", "20", "17", "26", "29", "29"], "time": [4816, 5248, 5414, 6760, 10378, 12935, 13229]}, "edge": {"target": [], "time": []}}, "mouseout": {"state": {"target": ["20", "19", "0", "19", "20", "20", "17", "26", "29", "29", "4"], "time": [2688, 2719, 2756, 5212, 5331, 5962, 10003, 10401, 13057, 21028, 21093]}, "edge": {"target": [], "time": []}}}, "displayed_time": "20.52", "trialTime": 24736, "trial_type": "mouselab-mdp", "trial_index": 16, "time_elapsed": 658895, "internal_node_id": "0.0-6.0-1.0-1.0"}}, {"uniqueid": "w41416775:a50534431", "current_trial": 17, "dateTime": 1693835266086, "trialdata": {"revealed_states": [], "clicked_states": ["14"], "num_clicks_accrued": [0, 0, 0, 0, 0, 0, 0, 0, 0, 0, 0, 0, 0], "stateRewards": ["", -1, 4, 3, 12, -27, 34, -33, 3, -63, 1, 6, 2, 2, -6, -11, -77, -85, 68, -6, 51, 81, -60, -2, -2, 1, 15, 20, 15, 68, -10, -14, 6, -4], "withholdReward": false, "trial_id": "mdp_trial_3", "block": "test", "trialIndex": 6, "score": 79.05, "costs": -0.95, "simulationMode": [null, null, null, null, null], "rewards": [-2, -2, 1, 15, 68], "path": ["0", "0", "23", "24", "25", "26", "29"], "rt": [15584, 195, 156, 155, 112], "actions": ["left", "left", "left", "up", "left"], "actionTimes": [17741, 18453, 19138, 19811, 20445], "queries": {"click": {"state": {"target": ["14"], "time": [3510]}, "edge": {"target": [], "time": []}}, "mouseover": {"state": {"target": ["12", "13", "14", "29", "10", "2", "16"], "time": [2772, 2808, 3245, 4967, 11309, 11338, 11764]}, "edge": {"target": [], "time": []}}, "mouseout": {"state": {"target": ["12", "12", "13", "14", "29", "10", "2", "16"], "time": [1422, 2791, 3197, 3823, 11265, 11333, 11361, 12516]}, "edge": {"target": [], "time": []}}}, "displayed_time": "20.98", "trialTime": 22284, "trial_type": "mouselab-mdp", "trial_index": 17, "time_elapsed": 681548, "internal_node_id": "0.0-6.0-1.0-2.0"}}, {"uniqueid": "w41416775:a50534431", "current_trial": 18, "dateTime": 1693835284597, "trialdata": {"revealed_states": [], "clicked_states": ["1", "5", "9", "29"], "num_clicks_accrued": [0, 0, 0, 0, 0, 0, 0, 0, 0, 0, 0, 0, 0], "stateRewards": ["", 2, -1, -1, -9, -81, -30, 55, -6, 78, 25, 62, 2, 4, -1, 9, -85, 1, -19, 1, -60, 12, -34, 1, 4, -1, -13, -24, -16, -83, -8, 16, 43, 9], "withholdReward": false, "trial_id": "mdp_trial_4", "block": "test", "trialIndex": 7, "score": 65.8, "costs": -6.199999999999999, "simulationMode": [null, null, null, null, null, null], "rewards": [2, -1, -1, -6, 78], "path": ["0", "0", "1", "2", "3", "8", "9"], "rt": [9530, 1192, 257, 157, 104, 141], "actions": ["up", "up", "up", "up", "left", "up"], "actionTimes": [11160, 12363, 13153, 13828, 14449, 15111], "queries": {"click": {"state": {"target": ["1", "5", "9", "29"], "time": [2515, 3953, 6734, 9911]}, "edge": {"target": [], "time": []}}, "mouseover": {"state": {"target": ["1", "2", "5", "11", "9", "11", "8", "9", "10", "25", "29", "27"], "time": [2092, 2976, 3475, 4399, 4598, 5528, 6174, 6476, 7347, 7772, 8147, 10349]}, "edge": {"target": [], "time": []}}, "mouseout": {"state": {"target": ["0", "1", "2", "5", "11", "9", "11", "8", "9", "10", "25", "29", "27", "9"], "time": [1645, 2949, 3001, 3986, 4425, 5524, 5552, 6223, 7300, 7369, 8072, 10344, 10369, 15875]}, "edge": {"target": [], "time": []}}}, "displayed_time": "15.64", "trialTime": 18022, "trial_type": "mouselab-mdp", "trial_index": 18, "time_elapsed": 700060, "internal_node_id": "0.0-6.0-1.0-3.0"}}, {"uniqueid": "w41416775:a50534431", "current_trial": 19, "dateTime": 1693835301975, "trialdata": {"revealed_states": [], "clicked_states": ["17", "29"], "num_clicks_accrued": [0, 0, 0, 0, 0, 0, 0, 0, 0, 0, 0, 0, 0], "stateRewards": ["", 1, 3, 3, -10, 52, 68, 59, 12, 7, 49, 21, -2, -3, -4, -2, -2, 63, 63, -4, 44, 43, -76, -2, -3, -6, 13, 48, 36, 12, -5, -36, -33, -11], "withholdReward": false, "trial_id": "mdp_trial_5", "block": "test", "trialIndex": 8, "score": 47.7, "costs": -4.3, "simulationMode": [null, null, null, null, null, null], "rewards": [-2, -3, -4, -2, 63], "path": ["0", "0", "12", "13", "14", "15", "17"], "rt": [6611, 1303, 166, 212, 135, 123], "actions": ["right", "right", "right", "right", "up", "right"], "actionTimes": [8589, 9905, 10620, 11363, 12013, 12653], "queries": {"click": {"state": {"target": ["17", "29"], "time": [4205, 7545]}, "edge": {"target": [], "time": []}}, "mouseover": {"state": {"target": ["18", "14", "14", "17", "15", "26", "29", "29"], "time": [3379, 3428, 3596, 3780, 4415, 4732, 4932, 5193]}, "edge": {"target": [], "time": []}}, "mouseout": {"state": {"target": ["15", "18", "14", "14", "17", "15", "26", "29", "29", "15"], "time": [1062, 3402, 3453, 3652, 4411, 4441, 4782, 4981, 7980, 13740]}, "edge": {"target": [], "time": []}}}, "displayed_time": "15.98", "trialTime": 16994, "trial_type": "mouselab-mdp", "trial_index": 19, "time_elapsed": 717437, "internal_node_id": "0.0-6.0-1.0-4.0"}}, {"uniqueid": "w41416775:a50534431", "current_trial": 20, "dateTime": 1693835319530, "trialdata": {"revealed_states": [], "clicked_states": ["5", "29"], "num_clicks_accrued": [0, 0, 0, 0, 0, 0, 0, 0, 0, 0, 0, 0, 0], "stateRewards": ["", -2, 3, 3, -14, 62, 36, 49, 16, 11, 17, -84, 2, -1, 6, 2, -82, -73, 49, -6, -87, 48, 50, -1, -2, -1, -16, -11, 37, -44, 4, 55, 73, -10], "withholdReward": false, "trial_id": "mdp_trial_6", "block": "test", "trialIndex": 9, "score": 47.7, "costs": -4.3, "simulationMode": [null, null, null, null, null, null], "rewards": [-2, 3, 3, -14, 62], "path": ["0", "0", "1", "2", "3", "4", "5"], "rt": [5096, 1416, 186, 164, 144, 110], "actions": ["up", "up", "up", "up", "right", "up"], "actionTimes": [7143, 8562, 9298, 9974, 10676, 11320], "queries": {"click": {"state": {"target": ["5", "29"], "time": [2762, 5873]}, "edge": {"target": [], "time": []}}, "mouseover": {"state": {"target": ["5", "25", "29", "26"], "time": [2446, 3263, 3587, 6439]}, "edge": {"target": [], "time": []}}, "mouseout": {"state": {"target": ["15", "18", "1", "0", "5", "25", "29", "26"], "time": [944, 979, 1292, 2058, 3064, 3292, 6436, 6457]}, "edge": {"target": [], "time": []}}}, "displayed_time": "16.06", "trialTime": 17166, "trial_type": "mouselab-mdp", "trial_index": 20, "time_elapsed": 734993, "internal_node_id": "0.0-6.0-1.0-5.0"}}, {"uniqueid": "w41416775:a50534431", "current_trial": 21, "dateTime": 1693835338454, "trialdata": {"revealed_states": [], "clicked_states": ["29", "17", "5"], "num_clicks_accrued": [0, 0, 0, 0, 0, 0, 0, 0, 0, 0, 0, 0, 0], "stateRewards": ["", -2, 2, 5, -14, -56, 64, 84, -5, 52, 39, 85, -2, 1, 7, 8, 21, 29, -78, -9, -10, -69, 10, -2, -1, -7, 15, 72, 20, 41, -2, 52, 80, 22], "withholdReward": false, "trial_id": "mdp_trial_7", "block": "test", "trialIndex": 10, "score": 39.55, "costs": -6.449999999999999, "simulationMode": [null, null, null, null, null], "rewards": [-2, -1, -7, 15, 41], "path": ["0", "0", "23", "24", "25", "26", "29"], "rt": [10810, 174, 200, 185, 214], "actions": ["left", "left", "left", "up", "left"], "actionTimes": [13084, 13790, 14515, 15224, 15956], "queries": {"click": {"state": {"target": ["29", "17", "5"], "time": [3496, 6657, 9884]}, "edge": {"target": [], "time": []}}, "mouseover": {"state": {"target": ["24", "29", "1", "15", "17", "3", "5", "28"], "time": [2840, 3183, 3847, 4225, 4271, 7390, 8941, 10764]}, "edge": {"target": [], "time": []}}, "mouseout": {"state": {"target": ["12", "0", "24", "29", "1", "15", "17", "3", "5", "28", "29", "26", "18"], "time": [1624, 2804, 2877, 3800, 3870, 4247, 7290, 8639, 10415, 10789, 16682, 16706, 16795]}, "edge": {"target": [], "time": []}}}, "displayed_time": "16.49", "trialTime": 18485, "trial_type": "mouselab-mdp", "trial_index": 21, "time_elapsed": 753917, "internal_node_id": "0.0-6.0-1.0-6.0"}}, {"uniqueid": "w41416775:a50534431", "current_trial": 22, "dateTime": 1693835356030, "trialdata": {"revealed_states": [], "clicked_states": ["5", "32", "21"], "num_clicks_accrued": [0, 0, 0, 0, 0, 0, 0, 0, 0, 0, 0, 0, 0], "stateRewards": ["", 1, -1, -7, -7, -22, 15, -13, 13, 26, -32, 38, -1, 1, -7, -4, 16, -62, 86, 12, -54, 56, 64, -2, -1, 6, 14, -57, 37, 62, -6, -25, 50, -70], "withholdReward": false, "trial_id": "mdp_trial_8", "block": "test", "trialIndex": 11, "score": 54.55, "costs": -6.449999999999999, "simulationMode": [null, null, null, null, null], "rewards": [-1, 1, -7, 12, 56], "path": ["0", "0", "12", "13", "14", "19", "21"], "rt": [11107, 93, 13, 127, 135], "actions": ["right", "right", "right", "down", "down"], "actionTimes": [12691, 13313, 13890, 14548, 15206], "queries": {"click": {"state": {"target": ["5", "32", "21"], "time": [2794, 5927, 9291]}, "edge": {"target": [], "time": []}}, "mouseover": {"state": {"target": ["1", "7", "4", "5", "3", "10", "28", "25", "33", "32", "21", "21"], "time": [1760, 1836, 2356, 2410, 3075, 3103, 3399, 3449, 3673, 4174, 6372, 6647]}, "edge": {"target": [], "time": []}}, "mouseout": {"state": {"target": ["17", "18", "12", "1", "7", "4", "5", "3", "10", "28", "25", "33", "32", "21", "21", "28", "13", "14"], "time": [579, 810, 879, 1800, 1877, 2395, 2820, 3099, 3124, 3425, 3499, 4123, 6273, 6395, 9745, 16598, 16731, 16773]}, "edge": {"target": [], "time": []}}}, "displayed_time": "15.72", "trialTime": 17102, "trial_type": "mouselab-mdp", "trial_index": 22, "time_elapsed": 771492, "internal_node_id": "0.0-6.0-1.0-7.0"}}, {"uniqueid": "w41416775:a50534431", "current_trial": 23, "dateTime": 1693835373887, "trialdata": {"revealed_states": [], "clicked_states": ["9", "32"], "num_clicks_accrued": [0, 0, 0, 0, 0, 0, 0, 0, 0, 0, 0, 0, 0], "stateRewards": ["", -2, 2, -1, -6, 22, 6, 6, -5, 70, -42, 65, 1, 3, 5, -6, -67, -9, 3, 14, 7, -62, -13, -2, 4, 1, 16, 42, -21, -52, -8, 32, 53, 81], "withholdReward": false, "trial_id": "mdp_trial_9", "block": "test", "trialIndex": 12, "score": 59.7, "costs": -4.3, "simulationMode": [null, null, null, null, null], "rewards": [-2, 2, -1, -5, 70], "path": ["0", "0", "1", "2", "3", "8", "9"], "rt": [7525, 65, 6, 2, 39], "actions": ["up", "up", "up", "left", "up"], "actionTimes": [9946, 10536, 11098, 11646, 12232], "queries": {"click": {"state": {"target": ["9", "32"], "time": [3443, 6590]}, "edge": {"target": [], "time": []}}, "mouseover": {"state": {"target": ["3", "9", "23", "24", "32", "12", "17"], "time": [2850, 3203, 3832, 3871, 4424, 7070, 7769]}, "edge": {"target": [], "time": []}}, "mouseout": {"state": {"target": ["13", "0", "3", "9", "23", "24", "32", "12", "17"], "time": [1103, 2727, 2881, 3746, 3846, 4124, 7020, 7092, 7820]}, "edge": {"target": [], "time": []}}}, "displayed_time": "16.42", "trialTime": 17395, "trial_type": "mouselab-mdp", "trial_index": 23, "time_elapsed": 789350, "internal_node_id": "0.0-6.0-1.0-8.0"}}, {"uniqueid": "w41416775:a50534431", "current_trial": 24, "dateTime": 1693835398296, "trialdata": {"revealed_states": [], "clicked_states": ["5", "17", "29"], "num_clicks_accrued": [0, 0, 0, 0, 0, 0, 0, 0, 0, 0, 0, 0, 0], "stateRewards": ["", 2, 3, 8, 11, 25, -80, 6, -4, -56, 84, -23, -2, -4, -3, 4, -51, -9, -61, -15, -64, 67, -35, 1, -1, -7, -6, 83, 59, -15, 12, -79, 56, 41], "withholdReward": false, "trial_id": "mdp_trial_10", "block": "test", "trialIndex": 13, "score": 42.55, "costs": -6.449999999999999, "simulationMode": [null, null, null, null, null], "rewards": [2, 3, 8, 11, 25], "path": ["0", "0", "1", "2", "3", "4", "5"], "rt": [11535, 115, 36, 526, 284], "actions": ["up", "up", "up", "right", "up"], "actionTimes": [13476, 14131, 14701, 15763, 16574], "queries": {"click": {"state": {"target": ["5", "17", "29"], "time": [3176, 6452, 9680]}, "edge": {"target": [], "time": []}}, "mouseover": {"state": {"target": ["4", "5", "15", "17", "29"], "time": [1996, 3047, 3575, 4100, 7216]}, "edge": {"target": [], "time": []}}, "mouseout": {"state": {"target": ["13", "4", "5", "15", "17", "29", "29", "24", "23"], "time": [1166, 2708, 3474, 4048, 6841, 9724, 10791, 17384, 17408]}, "edge": {"target": [], "time": []}}}, "displayed_time": "17.09", "trialTime": 24017, "trial_type": "mouselab-mdp", "trial_index": 24, "time_elapsed": 813758, "internal_node_id": "0.0-6.0-1.0-9.0"}}, {"uniqueid": "w41416775:a50534431", "current_trial": 25, "dateTime": 1693835423097, "trialdata": {"revealed_states": [], "clicked_states": ["5", "29", "32", "21", "17"], "num_clicks_accrued": [0, 0, 0, 0, 0, 0, 0, 0, 0, 0, 0, 0, 0], "stateRewards": ["", 2, -1, 1, 10, -52, 86, -22, -2, -14, -63, 38, 1, 3, 7, -8, 11, -32, -27, 9, -71, 40, -87, -2, -1, 5, -7, 12, 31, -57, 13, 86, -58, 29], "withholdReward": false, "trial_id": "mdp_trial_11", "block": "test", "trialIndex": 14, "score": 49.25, "costs": -10.75, "simulationMode": [null, null, null, null, null], "rewards": [1, 3, 7, 9, 40], "path": ["0", "0", "12", "13", "14", "19", "21"], "rt": [17007, 113, 109, 45, 79], "actions": ["right", "right", "right", "down", "down"], "actionTimes": [18617, 19266, 19917, 20495, 21102], "queries": {"click": {"state": {"target": ["5", "29", "32", "21", "17"], "time": [2533, 5682, 8774, 11957, 15514]}, "edge": {"target": [], "time": []}}, "mouseover": {"state": {"target": ["1", "2", "4", "5", "10", "26", "29", "33", "32", "21", "19", "17", "22", "22"], "time": [1749, 1986, 2160, 2293, 2888, 2934, 3259, 6107, 6231, 9704, 12352, 12427, 16174, 16299]}, "edge": {"target": [], "time": []}}, "mouseout": {"state": {"target": ["1", "2", "4", "5", "10", "26", "29", "33", "32", "21", "19", "17", "22", "22"], "time": [1945, 2024, 2187, 2860, 2910, 2984, 6056, 6155, 9230, 12326, 12375, 16124, 16249, 16349]}, "edge": {"target": [], "time": []}}}, "displayed_time": "21.65", "trialTime": 24375, "trial_type": "mouselab-mdp", "trial_index": 25, "time_elapsed": 838560, "internal_node_id": "0.0-6.0-1.0-10.0"}}, {"uniqueid": "w41416775:a50534431", "current_trial": 26, "dateTime": 1693835440871, "trialdata": {"revealed_states": [], "clicked_states": ["29", "9", "32"], "num_clicks_accrued": [0, 0, 0, 0, 0, 0, 0, 0, 0, 0, 0, 0, 0], "stateRewards": ["", -2, 2, -5, -6, 10, -66, -58, -10, -11, -63, -70, -1, -4, -5, 7, 66, -64, -43, -3, 45, -37, 4, -2, -2, -6, -4, -30, 33, 43, 15, -32, -65, -59], "withholdReward": false, "trial_id": "mdp_trial_12", "block": "test", "trialIndex": 15, "score": 22.55, "costs": -6.449999999999999, "simulationMode": [null, null, null, null, null], "rewards": [-2, -2, -6, -4, 43], "path": ["0", "0", "23", "24", "25", "26", "29"], "rt": [10851, 118, 121, 333, 101], "actions": ["left", "left", "left", "up", "left"], "actionTimes": [12497, 13141, 13792, 14655, 15270], "queries": {"click": {"state": {"target": ["29", "9", "32"], "time": [2974, 6149, 9330]}, "edge": {"target": [], "time": []}}, "mouseover": {"state": {"target": ["0", "23", "29", "27", "11", "9", "9", "28", "32", "30"], "time": [1934, 2348, 2784, 3427, 3455, 3502, 3851, 6448, 6799, 9825]}, "edge": {"target": [], "time": []}}, "mouseout": {"state": {"target": ["13", "12", "0", "23", "29", "27", "11", "9", "9", "28", "32", "30", "16"], "time": [956, 988, 2342, 2373, 3400, 3451, 3476, 3524, 6424, 6474, 9822, 9847, 16205]}, "edge": {"target": [], "time": []}}}, "displayed_time": "15.80", "trialTime": 17229, "trial_type": "mouselab-mdp", "trial_index": 26, "time_elapsed": 856332, "internal_node_id": "0.0-6.0-1.0-11.0"}}, {"uniqueid": "w41416775:a50534431", "current_trial": 27, "dateTime": 1693835458683, "trialdata": {"revealed_states": [], "clicked_states": ["5", "32", "17"], "num_clicks_accrued": [0, 0, 0, 0, 0, 0, 0, 0, 0, 0, 0, 0, 0], "stateRewards": ["", -1, -4, -3, 1, -45, -67, -24, 14, 32, 22, 22, -1, 1, -5, -7, 72, 84, -79, -5, 19, -40, -2, -1, -2, 8, -3, 84, -25, -28, 11, 64, -66, 77], "withholdReward": false, "trial_id": "mdp_trial_13", "block": "test", "trialIndex": 16, "score": 65.55, "costs": -6.449999999999999, "simulationMode": [null, null, null, null, null], "rewards": [-1, 1, -5, -7, 84], "path": ["0", "0", "12", "13", "14", "15", "17"], "rt": [11447, 3, 71, 3, 489], "actions": ["right", "right", "right", "up", "right"], "actionTimes": [12657, 13175, 13791, 14346, 15381], "queries": {"click": {"state": {"target": ["5", "32", "17"], "time": [2185, 5386, 8575]}, "edge": {"target": [], "time": []}}, "mouseover": {"state": {"target": ["1", "2", "5", "2", "24", "32", "32", "31", "15", "17", "19", "21", "19"], "time": [1343, 1393, 1984, 2476, 2880, 2923, 3074, 5752, 5848, 6198, 10947, 10993, 12025]}, "edge": {"target": [], "time": []}}, "mouseout": {"state": {"target": ["16", "1", "0", "1", "2", "5", "2", "24", "32", "32", "31", "15", "17", "19", "21", "19"], "time": [183, 628, 1285, 1385, 1757, 2426, 2501, 2897, 2954, 5747, 5773, 6123, 10920, 10975, 12002, 12042]}, "edge": {"target": [], "time": []}}}, "displayed_time": "15.89", "trialTime": 17350, "trial_type": "mouselab-mdp", "trial_index": 27, "time_elapsed": 874145, "internal_node_id": "0.0-6.0-1.0-12.0"}}, {"uniqueid": "w41416775:a50534431", "current_trial": 28, "dateTime": 1693835479313, "trialdata": {"revealed_states": [], "clicked_states": ["9", "21", "17", "29"], "num_clicks_accrued": [0, 0, 0, 0, 0, 0, 0, 0, 0, 0, 0, 0, 0], "stateRewards": ["", 1, 2, -3, -5, 66, -50, -47, -5, 1, 28, -27, 1, 1, -1, -6, 37, -25, 56, 1, -82, -66, -40, -1, -4, -7, 15, -61, -23, 26, 10, 14, -56, 29], "withholdReward": false, "trial_id": "mdp_trial_14", "block": "test", "trialIndex": 17, "score": 20.4, "costs": -8.6, "simulationMode": [null, null, null, null, null], "rewards": [-1, -4, -7, 15, 26], "path": ["0", "0", "23", "24", "25", "26", "29"], "rt": [14509, 137, 117, 87, 40], "actions": ["left", "left", "left", "up", "left"], "actionTimes": [16075, 16742, 17373, 17989, 18568], "queries": {"click": {"state": {"target": ["9", "21", "17", "29"], "time": [2361, 5502, 8701, 11881]}, "edge": {"target": [], "time": []}}, "mouseover": {"state": {"target": ["1", "9", "8", "1", "13", "19", "21", "19", "17", "18", "29"], "time": [1658, 2068, 2565, 2611, 2664, 2959, 3032, 5858, 6033, 9086, 9506]}, "edge": {"target": [], "time": []}}, "mouseout": {"state": {"target": ["18", "23", "0", "1", "9", "9", "8", "1", "13", "19", "21", "19", "17", "18", "29", "10"], "time": [591, 866, 1213, 1683, 2393, 2561, 2586, 2636, 2687, 3011, 5833, 5882, 9056, 9113, 19379, 19446]}, "edge": {"target": [], "time": []}}}, "displayed_time": "19.11", "trialTime": 20229, "trial_type": "mouselab-mdp", "trial_index": 28, "time_elapsed": 894776, "internal_node_id": "0.0-6.0-1.0-13.0"}}, {"uniqueid": "w41416775:a50534431", "current_trial": 29, "dateTime": 1693835495553, "trialdata": {"revealed_states": [], "clicked_states": ["32", "17"], "num_clicks_accrued": [0, 0, 0, 0, 0, 0, 0, 0, 0, 0, 0, 0, 0], "stateRewards": ["", -2, -3, -5, 8, 27, 11, 43, -6, -24, -87, 69, -2, 1, 1, 9, 19, 48, -37, 9, -14, 45, 62, 1, 2, 1, 16, -81, -41, 22, 4, -6, -63, 47], "withholdReward": false, "trial_id": "mdp_trial_15", "block": "test", "trialIndex": 18, "score": 52.7, "costs": -4.3, "simulationMode": [null, null, null, null, null], "rewards": [-2, 1, 1, 9, 48], "path": ["0", "0", "12", "13", "14", "15", "17"], "rt": [8845, 51, 140, 9, 42], "actions": ["right", "right", "right", "up", "right"], "actionTimes": [10033, 10613, 11274, 11794, 12376], "queries": {"click": {"state": {"target": ["32", "17"], "time": [2402, 5686]}, "edge": {"target": [], "time": []}}, "mouseover": {"state": {"target": ["1", "4", "1", "32", "0", "18", "15", "17", "3", "5", "4"], "time": [1218, 1267, 1636, 2145, 2713, 2788, 3112, 3187, 7384, 7460, 9408]}, "edge": {"target": [], "time": []}}, "mouseout": {"state": {"target": ["0", "1", "4", "1", "32", "0", "18", "15", "17", "3", "5", "4", "14"], "time": [1199, 1241, 1621, 1679, 2639, 2738, 2814, 3164, 6062, 7415, 9393, 9423, 13863]}, "edge": {"target": [], "time": []}}}, "displayed_time": "15.20", "trialTime": 15761, "trial_type": "mouselab-mdp", "trial_index": 29, "time_elapsed": 911016, "internal_node_id": "0.0-6.0-1.0-14.0"}}, {"uniqueid": "w41416775:a50534431", "current_trial": 30, "dateTime": 1693835514689, "trialdata": {"revealed_states": [], "clicked_states": ["9", "29", "21"], "num_clicks_accrued": [0, 0, 0, 0, 0, 0, 0, 0, 0, 0, 0, 0, 0], "stateRewards": ["", -1, 3, -5, -2, -13, -9, -34, -7, -81, 32, 35, -2, -2, 1, -14, -32, 81, 7, 4, 82, 56, -8, -1, 3, -8, 6, -24, -24, -53, 2, 38, 61, 54], "withholdReward": false, "trial_id": "mdp_trial_16", "block": "test", "trialIndex": 19, "score": 50.55, "costs": -6.449999999999999, "simulationMode": [null, null, null, null, null], "rewards": [-2, -2, 1, 4, 56], "path": ["0", "0", "12", "13", "14", "19", "21"], "rt": [11760, 43, 62, 56, 30], "actions": ["right", "right", "right", "down", "down"], "actionTimes": [13187, 13761, 14350, 14944, 15516], "queries": {"click": {"state": {"target": ["9", "29", "21"], "time": [2356, 5507, 9396]}, "edge": {"target": [], "time": []}}, "mouseover": {"state": {"target": ["8", "9", "5", "29", "26", "24", "21"], "time": [1845, 2150, 3069, 4093, 6017, 8548, 9123]}, "edge": {"target": [], "time": []}}, "mouseout": {"state": {"target": ["0", "8", "9", "5", "29", "26", "24", "21"], "time": [1795, 1882, 2424, 3092, 5995, 6056, 8587, 9672]}, "edge": {"target": [], "time": []}}}, "displayed_time": "16.04", "trialTime": 18736, "trial_type": "mouselab-mdp", "trial_index": 30, "time_elapsed": 930151, "internal_node_id": "0.0-6.0-1.0-15.0"}}, {"uniqueid": "w41416775:a50534431", "current_trial": 31, "dateTime": 1693835531445, "trialdata": {"revealed_states": [], "clicked_states": ["17", "29", "9"], "num_clicks_accrued": [0, 0, 0, 0, 0, 0, 0, 0, 0, 0, 0, 0, 0], "stateRewards": ["", -2, -4, -2, -13, -15, 87, -19, -6, -80, 30, 12, 1, 1, -8, 2, 55, 56, 15, 11, -68, -7, 55, -2, 3, -3, -3, 48, 62, 4, 1, -3, 69, -33], "withholdReward": false, "trial_id": "mdp_trial_17", "block": "test", "trialIndex": 20, "score": 45.55, "costs": -6.449999999999999, "simulationMode": [null, null, null, null, null], "rewards": [1, 1, -8, 2, 56], "path": ["0", "0", "12", "13", "14", "15", "17"], "rt": [10571, 2, 12, 74, 104], "actions": ["right", "right", "right", "up", "right"], "actionTimes": [12024, 12564, 13120, 13732, 14394], "queries": {"click": {"state": {"target": ["17", "29", "9"], "time": [2336, 5612, 8828]}, "edge": {"target": [], "time": []}}, "mouseover": {"state": {"target": ["28", "17", "15", "28", "26", "29", "9", "2"], "time": [1723, 2090, 2592, 2663, 2692, 2986, 6409, 9384]}, "edge": {"target": [], "time": []}}, "mouseout": {"state": {"target": ["26", "0", "28", "17", "15", "28", "26", "29", "9", "2"], "time": [623, 992, 1794, 2587, 2613, 2688, 2937, 5647, 9332, 9408]}, "edge": {"target": [], "time": []}}}, "displayed_time": "15.47", "trialTime": 16324, "trial_type": "mouselab-mdp", "trial_index": 31, "time_elapsed": 946908, "internal_node_id": "0.0-6.0-1.0-16.0"}}, {"uniqueid": "w41416775:a50534431", "current_trial": 32, "dateTime": 1693835552592, "trialdata": {"revealed_states": [], "clicked_states": ["9", "29", "17"], "num_clicks_accrued": [0, 0, 0, 0, 0, 0, 0, 0, 0, 0, 0, 0, 0], "stateRewards": ["", 2, 4, 4, 9, -88, -10, 44, 16, -54, 64, 78, 1, 2, 5, 16, 80, 36, 7, -4, 9, -47, -70, -1, -3, 6, -16, 11, 80, 28, 8, -1, 34, -17], "withholdReward": false, "trial_id": "mdp_trial_18", "block": "test", "trialIndex": 21, "score": 53.55, "costs": -6.449999999999999, "simulationMode": [null, null, null, null, null], "rewards": [1, 2, 5, 16, 36], "path": ["0", "0", "12", "13", "14", "15", "17"], "rt": [13192, 3, 48, 78, 516], "actions": ["right", "right", "right", "up", "right"], "actionTimes": [14670, 15189, 15783, 16387, 17449], "queries": {"click": {"state": {"target": ["9", "29", "17"], "time": [3041, 7052, 10795]}, "edge": {"target": [], "time": []}}, "mouseover": {"state": {"target": ["1", "7", "9", "8", "24", "29", "1", "17", "17", "15", "13", "12"], "time": [1774, 1861, 2796, 3319, 6492, 6884, 7413, 7912, 10656, 11112, 11137, 11161]}, "edge": {"target": [], "time": []}}, "mouseout": {"state": {"target": ["23", "1", "7", "9", "8", "24", "29", "1", "17", "17", "15", "13", "12", "22", "19"], "time": [755, 1813, 2449, 3315, 3340, 6514, 7368, 7436, 8488, 11109, 11133, 11158, 11184, 18886, 18983]}, "edge": {"target": [], "time": []}}}, "displayed_time": "17.98", "trialTime": 20709, "trial_type": "mouselab-mdp", "trial_index": 32, "time_elapsed": 968055, "internal_node_id": "0.0-6.0-1.0-17.0"}}, {"uniqueid": "w41416775:a50534431", "current_trial": 33, "dateTime": 1693835577915, "trialdata": {"revealed_states": [], "clicked_states": ["32", "9", "5", "21", "17"], "num_clicks_accrued": [0, 0, 0, 0, 0, 0, 0, 0, 0, 0, 0, 0, 0], "stateRewards": ["", 2, 4, 4, -8, -36, -33, 38, 16, -51, 57, 57, 1, 3, 4, -6, 45, 68, 87, 1, 63, 24, -55, -2, 2, -6, -13, -63, -50, 8, 2, 80, 6, 60], "withholdReward": false, "trial_id": "mdp_trial_19", "block": "test", "trialIndex": 22, "score": 59.25, "costs": -10.75, "simulationMode": [null, null, null, null, null], "rewards": [1, 3, 4, -6, 68], "path": ["0", "0", "12", "13", "14", "15", "17"], "rt": [19141, 79, 88, 116, 40], "actions": ["right", "right", "right", "up", "right"], "actionTimes": [20773, 21372, 21999, 22632, 23206], "queries": {"click": {"state": {"target": ["32", "9", "5", "21", "17"], "time": [2755, 5955, 9044, 12222, 16619]}, "edge": {"target": [], "time": []}}, "mouseover": {"state": {"target": ["32", "9", "9", "3", "5", "18", "19", "21", "15", "17", "15", "24", "29", "1", "12"], "time": [2492, 3383, 3656, 6383, 8326, 9524, 9572, 10094, 16200, 16415, 16974, 17066, 17667, 20087, 20242]}, "edge": {"target": [], "time": []}}, "mouseout": {"state": {"target": ["0", "32", "9", "9", "3", "5", "18", "19", "21", "15", "17", "15", "24", "29", "1", "12", "12", "15", "14"], "time": [2063, 2770, 3408, 6379, 6404, 9472, 9547, 9597, 12281, 16241, 16970, 16992, 17368, 20048, 20114, 20286, 24119, 24233, 24493]}, "edge": {"target": [], "time": []}}}, "displayed_time": "23.74", "trialTime": 24893, "trial_type": "mouselab-mdp", "trial_index": 33, "time_elapsed": 993379, "internal_node_id": "0.0-6.0-1.0-18.0"}}, {"uniqueid": "w41416775:a50534431", "current_trial": 34, "dateTime": 1693835639555, "trialdata": {"revealed_states": [], "clicked_states": ["9", "29", "17", "32"], "num_clicks_accrued": [0, 0, 0, 0, 0, 0, 0, 0, 0, 0, 0, 0, 0], "stateRewards": ["", -2, -1, 3, -3, 71, -58, -21, 7, -10, -75, -37, 2, 4, -1, -12, -79, -29, -48, 3, -41, -10, -30, -1, -2, 1, -15, 13, 66, 22, -1, -42, -86, -55], "withholdReward": false, "trial_id": "mdp_trial_20", "block": "test", "trialIndex": 23, "score": -3.6000000000000014, "costs": -8.6, "simulationMode": [null, null, null, null, null], "rewards": [-1, -2, 1, -15, 22], "path": ["0", "0", "23", "24", "25", "26", "29"], "rt": [14249, 120, 178, 129, 137], "actions": ["left", "left", "left", "up", "left"], "actionTimes": [54616, 55259, 55964, 56615, 57274], "queries": {"click": {"state": {"target": ["9", "29", "17", "32"], "time": [41466, 44732, 48250, 51429]}, "edge": {"target": [], "time": []}}, "mouseover": {"state": {"target": ["8", "9", "11", "26", "29", "17", "13", "32", "32"], "time": [40973, 41323, 41782, 41850, 42219, 45192, 48639, 49114, 49390]}, "edge": {"target": [], "time": []}}, "mouseout": {"state": {"target": ["20", "22", "23", "23", "23", "0", "0", "8", "9", "11", "26", "29", "17", "13", "32", "32", "19", "20"], "time": [677, 707, 39293, 39644, 39852, 39997, 40527, 41026, 41774, 41818, 41870, 45067, 48616, 48664, 49189, 58541, 58663, 58712]}, "edge": {"target": [], "time": []}}}, "displayed_time": "57.81", "trialTime": 61213, "trial_type": "mouselab-mdp", "trial_index": 34, "time_elapsed": 1055019, "internal_node_id": "0.0-6.0-1.0-19.0"}}, {"uniqueid": "w41416775:a50534431", "current_trial": 35, "dateTime": 1693835658057, "trialdata": {"revealed_states": [], "clicked_states": ["9", "29", "17"], "num_clicks_accrued": [0, 0, 0, 0, 0, 0, 0, 0, 0, 0, 0, 0, 0], "stateRewards": ["", -2, -1, -1, 5, -54, -87, 35, 2, -8, 20, -22, 1, 3, 6, 13, -75, -32, -55, -3, 56, 62, -22, -1, -4, -1, -7, -51, 84, 70, 7, -15, 5, 55], "withholdReward": false, "trial_id": "mdp_trial_21", "block": "test", "trialIndex": 24, "score": 50.55, "costs": -6.449999999999999, "simulationMode": [null, null, null, null, null], "rewards": [-1, -4, -1, -7, 70], "path": ["0", "0", "23", "24", "25", "26", "29"], "rt": [11554, 151, 50, 122, 132], "actions": ["left", "left", "left", "up", "left"], "actionTimes": [13776, 14454, 15027, 15672, 16333], "queries": {"click": {"state": {"target": ["9", "29", "17"], "time": [4104, 7378, 10545]}, "edge": {"target": [], "time": []}}, "mouseover": {"state": {"target": ["2", "9", "8", "28", "29", "28", "18", "15", "17", "15", "23"], "time": [3516, 3916, 4585, 4655, 5406, 7757, 7828, 8177, 8226, 11004, 11077]}, "edge": {"target": [], "time": []}}, "mouseout": {"state": {"target": ["14", "2", "9", "8", "28", "29", "28", "18", "15", "17", "15", "23", "23", "18"], "time": [1213, 3556, 4581, 4603, 4679, 7753, 7779, 7852, 8202, 11000, 11039, 11099, 17257, 17294]}, "edge": {"target": [], "time": []}}}, "displayed_time": "16.83", "trialTime": 18090, "trial_type": "mouselab-mdp", "trial_index": 35, "time_elapsed": 1073519, "internal_node_id": "0.0-6.0-1.0-20.0"}}, {"uniqueid": "w41416775:a50534431", "current_trial": 36, "dateTime": 1693835678878, "trialdata": {"revealed_states": [], "clicked_states": ["5", "21", "17", "29"], "num_clicks_accrued": [0, 0, 0, 0, 0, 0, 0, 0, 0, 0, 0, 0, 0], "stateRewards": ["", 1, 4, -4, 14, 35, 51, 19, -13, 54, 78, -74, -2, -1, -3, 13, -11, -42, -73, -15, -24, -3, -69, 2, -1, 5, 16, -27, 73, 58, 9, -60, 5, -60], "withholdReward": false, "trial_id": "mdp_trial_22", "block": "test", "trialIndex": 25, "score": 71.4, "costs": -8.6, "simulationMode": [null, null, null, null, null], "rewards": [2, -1, 5, 16, 58], "path": ["0", "0", "23", "24", "25", "26", "29"], "rt": [15126, 43, 28, 51, 23], "actions": ["left", "left", "left", "up", "left"], "actionTimes": [16406, 16975, 17532, 18107, 18654], "queries": {"click": {"state": {"target": ["5", "21", "17", "29"], "time": [2038, 5246, 8678, 12770]}, "edge": {"target": [], "time": []}}, "mouseover": {"state": {"target": ["4", "5", "7", "13", "19", "21", "17", "26", "29", "30"], "time": [1293, 1821, 2311, 2362, 2411, 2889, 8367, 12314, 12690, 13530]}, "edge": {"target": [], "time": []}}, "mouseout": {"state": {"target": ["18", "0", "4", "5", "7", "13", "19", "21", "17", "26", "29", "29", "30", "12", "13"], "time": [421, 1291, 1770, 2288, 2337, 2387, 2436, 5687, 8960, 12358, 12840, 13506, 13554, 19980, 19999]}, "edge": {"target": [], "time": []}}}, "displayed_time": "19.20", "trialTime": 20379, "trial_type": "mouselab-mdp", "trial_index": 36, "time_elapsed": 1094341, "internal_node_id": "0.0-6.0-1.0-21.0"}}, {"uniqueid": "w41416775:a50534431", "current_trial": 37, "dateTime": 1693835704588, "trialdata": {"revealed_states": [], "clicked_states": ["9", "32", "17", "29", "21"], "num_clicks_accrued": [0, 0, 0, 0, 0, 0, 0, 0, 0, 0, 0, 0, 0], "stateRewards": ["", -1, 1, 3, -8, -23, -15, -14, -11, -23, 58, 68, 1, 3, 5, 12, -17, -41, -7, -10, -4, 82, 10, 1, 4, -4, 11, 73, 55, -55, -1, -86, -86, 54], "withholdReward": false, "trial_id": "mdp_trial_23", "block": "test", "trialIndex": 26, "score": 70.25, "costs": -10.75, "simulationMode": [null, null, null, null, null], "rewards": [1, 3, 5, -10, 82], "path": ["0", "0", "12", "13", "14", "19", "21"], "rt": [19742, 56, 12, 238, 71], "actions": ["right", "right", "right", "down", "down"], "actionTimes": [21388, 21975, 22532, 23309, 23893], "queries": {"click": {"state": {"target": ["9", "32", "17", "29", "21"], "time": [2553, 5934, 9116, 13251, 16500]}, "edge": {"target": [], "time": []}}, "mouseover": {"state": {"target": ["9", "28", "24", "31", "32", "12", "17", "13", "0", "29", "28", "19", "21"], "time": [2391, 2829, 2858, 2904, 3304, 6329, 6904, 9578, 12610, 12984, 13573, 13675, 14029]}, "edge": {"target": [], "time": []}}, "mouseout": {"state": {"target": ["12", "9", "28", "24", "31", "32", "12", "17", "13", "0", "29", "28", "19", "21"], "time": [788, 2785, 2855, 2881, 2955, 6279, 6356, 9554, 9603, 12637, 13550, 13601, 13977, 17298]}, "edge": {"target": [], "time": []}}}, "displayed_time": "24.44", "trialTime": 25226, "trial_type": "mouselab-mdp", "trial_index": 37, "time_elapsed": 1120051, "internal_node_id": "0.0-6.0-1.0-22.0"}}, {"uniqueid": "w41416775:a50534431", "current_trial": 38, "dateTime": 1693835722169, "trialdata": {"revealed_states": [], "clicked_states": ["5", "32", "17"], "num_clicks_accrued": [0, 0, 0, 0, 0, 0, 0, 0, 0, 0, 0, 0, 0], "stateRewards": ["", 2, 4, 7, 7, -79, -2, -21, -5, -53, 47, -21, 1, -3, -1, 7, 83, 7, 84, -7, 80, -37, 69, 2, -4, 5, 2, 4, -20, -30, 7, 71, 44, -81], "withholdReward": false, "trial_id": "mdp_trial_24", "block": "test", "trialIndex": 27, "score": 47.55, "costs": -6.449999999999999, "simulationMode": [null, null, null, null, null], "rewards": [2, -4, 5, 7, 44], "path": ["0", "0", "23", "24", "25", "30", "32"], "rt": [11797, 4, 58, 38, 65], "actions": ["left", "left", "left", "down", "down"], "actionTimes": [13249, 13787, 14391, 14946, 15546], "queries": {"click": {"state": {"target": ["5", "32", "17"], "time": [2659, 5964, 9293]}, "edge": {"target": [], "time": []}}, "mouseover": {"state": {"target": ["1", "2", "3", "5", "10", "28", "25", "32", "21", "19", "17", "30"], "time": [1876, 1941, 2245, 2497, 2913, 2942, 2968, 3362, 6515, 6769, 7182, 10159]}, "edge": {"target": [], "time": []}}, "mouseout": {"state": {"target": ["0", "1", "2", "3", "5", "10", "28", "25", "32", "21", "19", "17"], "time": [967, 1919, 1962, 2291, 2888, 2937, 2964, 2987, 6385, 6763, 6798, 9686]}, "edge": {"target": [], "time": []}}}, "displayed_time": "16.08", "trialTime": 17151, "trial_type": "mouselab-mdp", "trial_index": 38, "time_elapsed": 1137632, "internal_node_id": "0.0-6.0-1.0-23.0"}}, {"uniqueid": "w41416775:a50534431", "current_trial": 39, "dateTime": 1693835739081, "trialdata": {"revealed_states": [], "clicked_states": ["29", "17", "5"], "num_clicks_accrued": [0, 0, 0, 0, 0, 0, 0, 0, 0, 0, 0, 0, 0], "stateRewards": ["", -2, -3, 8, -4, -30, 31, 69, 9, 66, 87, 64, -2, 2, 8, 5, 47, 16, -39, -8, -54, 51, -19, 1, -2, -2, -11, -25, -26, 43, -9, 19, -84, 86], "withholdReward": false, "trial_id": "mdp_trial_25", "block": "test", "trialIndex": 28, "score": 22.55, "costs": -6.449999999999999, "simulationMode": [null, null, null, null, null], "rewards": [1, -2, -2, -11, 43], "path": ["0", "0", "23", "24", "25", "26", "29"], "rt": [10612, 84, 45, 133, 66], "actions": ["left", "left", "left", "up", "left"], "actionTimes": [12243, 12846, 13430, 14118, 14703], "queries": {"click": {"state": {"target": ["29", "17", "5"], "time": [2255, 5446, 8722]}, "edge": {"target": [], "time": []}}, "mouseover": {"state": {"target": ["29", "28", "18", "15", "17", "3", "9", "5", "28", "25", "30"], "time": [2075, 2566, 2642, 2917, 2990, 5941, 6312, 6763, 9211, 9243, 9264]}, "edge": {"target": [], "time": []}}, "mouseout": {"state": {"target": ["30", "25", "11", "29", "28", "18", "15", "17", "3", "9", "5", "28", "25", "30", "15", "17"], "time": [169, 223, 747, 2542, 2593, 2893, 2966, 5889, 5967, 6688, 9163, 9240, 9261, 9284, 15840, 15874]}, "edge": {"target": [], "time": []}}}, "displayed_time": "15.64", "trialTime": 16450, "trial_type": "mouselab-mdp", "trial_index": 39, "time_elapsed": 1154543, "internal_node_id": "0.0-6.0-1.0-24.0"}}, {"uniqueid": "w41416775:a50534431", "current_trial": 40, "dateTime": 1693835757832, "trialdata": {"revealed_states": [], "clicked_states": ["9", "21", "32"], "num_clicks_accrued": [0, 0, 0, 0, 0, 0, 0, 0, 0, 0, 0, 0, 0], "stateRewards": ["", 1, -2, -2, 10, -31, -77, 35, 9, -47, 8, 48, -2, 1, -4, -3, -26, -50, 43, -11, 76, -38, 17, 1, -1, 6, 10, 15, -9, 12, -8, 85, 11, -55], "withholdReward": false, "trial_id": "mdp_trial_26", "block": "test", "trialIndex": 29, "score": 2.5500000000000007, "costs": -6.449999999999999, "simulationMode": [null, null, null, null, null], "rewards": [1, -1, 6, -8, 11], "path": ["0", "0", "23", "24", "25", "30", "32"], "rt": [12186, 18, 645, 125, 118], "actions": ["left", "left", "left", "down", "down"], "actionTimes": [13662, 14199, 15398, 16054, 16697], "queries": {"click": {"state": {"target": ["9", "21", "32"], "time": [2606, 6520, 9731]}, "edge": {"target": [], "time": []}}, "mouseover": {"state": {"target": ["0", "1", "2", "3", "9", "8", "2", "14", "21", "21", "30", "32"], "time": [1771, 1962, 2030, 2067, 2358, 2940, 2965, 3960, 4635, 6399, 6933, 7333]}, "edge": {"target": [], "time": []}}, "mouseout": {"state": {"target": ["17", "12", "0", "0", "1", "2", "3", "9", "8", "2", "14", "21", "21", "30", "32", "13"], "time": [490, 590, 1533, 1917, 2015, 2061, 2307, 2936, 2961, 2986, 4010, 5232, 6858, 6982, 12934, 17732]}, "edge": {"target": [], "time": []}}}, "displayed_time": "17.23", "trialTime": 18259, "trial_type": "mouselab-mdp", "trial_index": 40, "time_elapsed": 1173294, "internal_node_id": "0.0-6.0-1.0-25.0"}}, {"uniqueid": "w41416775:a50534431", "current_trial": 41, "dateTime": 1693835775082, "trialdata": {"revealed_states": [], "clicked_states": ["5", "21"], "num_clicks_accrued": [0, 0, 0, 0, 0, 0, 0, 0, 0, 0, 0, 0, 0], "stateRewards": ["", 1, 2, 7, 13, 88, -71, 27, 3, 60, 5, -53, -2, 2, -6, -1, -30, 79, 47, -4, -14, 46, 68, 1, 1, 8, 10, -14, 86, 48, -11, -67, -44, 5], "withholdReward": false, "trial_id": "mdp_trial_27", "block": "test", "trialIndex": 30, "score": 106.7, "costs": -4.3, "simulationMode": [null, null, null, null, null], "rewards": [1, 2, 7, 13, 88], "path": ["0", "0", "1", "2", "3", "4", "5"], "rt": [7474, 78, 52, 633, 132], "actions": ["up", "up", "up", "right", "up"], "actionTimes": [9254, 9867, 10462, 11645, 12318], "queries": {"click": {"state": {"target": ["5", "21"], "time": [2615, 5802]}, "edge": {"target": [], "time": []}}, "mouseover": {"state": {"target": ["4", "5", "4", "7", "13", "21"], "time": [1837, 2370, 3088, 3120, 3214, 3988]}, "edge": {"target": [], "time": []}}, "mouseout": {"state": {"target": ["7", "0", "4", "5", "4", "7", "13", "21", "0", "12"], "time": [955, 1792, 2295, 3062, 3113, 3138, 3788, 6288, 13292, 13314]}, "edge": {"target": [], "time": []}}}, "displayed_time": "15.78", "trialTime": 16727, "trial_type": "mouselab-mdp", "trial_index": 41, "time_elapsed": 1190545, "internal_node_id": "0.0-6.0-1.0-26.0"}}, {"uniqueid": "w41416775:a50534431", "current_trial": 42, "dateTime": 1693835799094, "trialdata": {"revealed_states": [], "clicked_states": ["9", "26", "15", "19", "30", "32", "17"], "num_clicks_accrued": [0, 0, 0, 0, 0, 0, 0, 0, 0, 0, 0, 0, 0], "stateRewards": ["", 2, -4, 1, -12, -59, -53, -74, 16, -88, -66, 66, 1, -2, 8, -9, -14, 22, 25, -1, -39, 47, -14, -1, -1, -2, 1, -4, 52, -26, 15, -7, 46, 43], "withholdReward": false, "trial_id": "mdp_trial_28", "block": "test", "trialIndex": 31, "score": 44.35, "costs": -12.65, "simulationMode": [null, null, null, null, null], "rewards": [-1, -1, -2, 15, 46], "path": ["0", "0", "23", "24", "25", "30", "32"], "rt": [18018, 77, 35, 63, 63], "actions": ["left", "left", "left", "down", "down"], "actionTimes": [19583, 20173, 20750, 21332, 21907], "queries": {"click": {"state": {"target": ["9", "26", "15", "19", "30", "32", "17"], "time": [2862, 6338, 8303, 9903, 10957, 13161, 16330]}, "edge": {"target": [], "time": []}}, "mouseover": {"state": {"target": ["11", "9", "29", "29", "26", "12", "15", "14", "19", "21", "19", "31", "30", "31", "32", "31", "18", "17", "15"], "time": [2351, 2629, 3549, 3879, 6134, 6827, 7399, 8726, 8776, 8831, 9357, 10396, 10696, 11673, 12755, 13524, 14021, 14722, 16774]}, "edge": {"target": [], "time": []}}, "mouseout": {"state": {"target": ["0", "11", "9", "29", "29", "26", "12", "15", "14", "19", "21", "19", "31", "30", "31", "32", "31", "18", "17", "15", "18"], "time": [2093, 2434, 2900, 3567, 6036, 6727, 7176, 8698, 8749, 8803, 9200, 10296, 10671, 10970, 11748, 13498, 13548, 14046, 16770, 16795, 22924]}, "edge": {"target": [], "time": []}}}, "displayed_time": "22.42", "trialTime": 23490, "trial_type": "mouselab-mdp", "trial_index": 42, "time_elapsed": 1214556, "internal_node_id": "0.0-6.0-1.0-27.0"}}, {"uniqueid": "w41416775:a50534431", "current_trial": 43, "dateTime": 1693835820392, "trialdata": {"revealed_states": [], "clicked_states": ["9", "33", "18", "22"], "num_clicks_accrued": [0, 0, 0, 0, 0, 0, 0, 0, 0, 0, 0, 0, 0], "stateRewards": ["", 1, 1, -5, 8, -6, 45, 16, -6, -7, -22, -38, -1, -4, 8, -11, -16, 21, -45, -15, -59, -32, 42, -1, 3, 6, 11, -7, 34, -27, -8, 85, 43, -9], "withholdReward": false, "trial_id": "mdp_trial_29", "block": "test", "trialIndex": 32, "score": 21.4, "costs": -8.6, "simulationMode": [null, null, null, null, null], "rewards": [-1, -4, 8, -15, 42], "path": ["0", "0", "12", "13", "14", "19", "22"], "rt": [15291, 80, 74, 80, 33], "actions": ["right", "right", "right", "down", "left"], "actionTimes": [16678, 17284, 17899, 18508, 19083], "queries": {"click": {"state": {"target": ["9", "33", "18", "22"], "time": [2568, 5928, 9436, 12748]}, "edge": {"target": [], "time": []}}, "mouseover": {"state": {"target": ["1", "5", "9", "30", "32", "33", "30", "31", "18", "18", "12", "0", "22"], "time": [1719, 1835, 2152, 3059, 3284, 4258, 6480, 7231, 8939, 9319, 9981, 10979, 12438]}, "edge": {"target": [], "time": []}}, "mouseout": {"state": {"target": ["15", "18", "1", "5", "9", "30", "32", "33", "30", "31", "18", "18", "12", "0", "22"], "time": [341, 644, 1796, 2093, 2810, 3111, 4209, 6458, 6508, 8888, 8981, 9930, 10955, 11004, 20162]}, "edge": {"target": [], "time": []}}}, "displayed_time": "19.60", "trialTime": 20838, "trial_type": "mouselab-mdp", "trial_index": 43, "time_elapsed": 1235856, "internal_node_id": "0.0-6.0-1.0-28.0"}}, {"uniqueid": "w41416775:a50534431", "current_trial": 44, "dateTime": 1693835847493, "trialdata": {"revealed_states": [], "clicked_states": ["9", "17", "29", "32"], "num_clicks_accrued": [0, 0, 0, 0, 0, 0, 0, 0, 0, 0, 0, 0, 0], "stateRewards": ["", 2, -1, -4, -13, 74, 77, 3, 2, -43, -2, -11, 2, 3, 7, 11, -26, -29, -33, -3, -3, -13, -3, 1, 3, -7, 14, -59, 33, 9, -5, 34, 79, 68], "withholdReward": false, "trial_id": "mdp_trial_30", "block": "test", "trialIndex": 33, "score": 62.4, "costs": -8.6, "simulationMode": [null, null, null, null, null], "rewards": [1, 3, -7, -5, 79], "path": ["0", "0", "23", "24", "25", "30", "32"], "rt": [15153, 48, 97, 146, 62], "actions": ["left", "left", "left", "down", "down"], "actionTimes": [22790, 23357, 23981, 24656, 25246], "queries": {"click": {"state": {"target": ["9", "17", "29", "32"], "time": [8942, 12134, 15354, 18679]}, "edge": {"target": [], "time": []}}, "mouseover": {"state": {"target": ["10", "9", "12", "22", "19", "17", "14", "31", "29", "33", "32", "32", "19", "22", "0", "24", "28", "23"], "time": [8251, 8590, 9317, 9343, 9741, 10066, 12563, 12964, 13339, 15787, 15937, 16135, 19459, 19534, 20343, 20363, 20984, 22312]}, "edge": {"target": [], "time": []}}, "mouseout": {"state": {"target": ["0", "10", "9", "12", "22", "19", "17", "14", "31", "29", "33", "32", "32", "19", "22", "0", "24", "28", "23"], "time": [7295, 8548, 9265, 9340, 9367, 9791, 12540, 12587, 12987, 15735, 15812, 16012, 19033, 19483, 20309, 20358, 20382, 22291, 22380]}, "edge": {"target": [], "time": []}}}, "displayed_time": "25.76", "trialTime": 26487, "trial_type": "mouselab-mdp", "trial_index": 44, "time_elapsed": 1262956, "internal_node_id": "0.0-6.0-1.0-29.0"}}, {"uniqueid": "w41416775:a50534431", "current_trial": 45, "dateTime": 1693835864449, "trialdata": {"revealed_states": [], "clicked_states": ["28", "18"], "num_clicks_accrued": [0, 0, 0, 0, 0, 0, 0, 0, 0, 0, 0, 0, 0], "stateRewards": ["", -1, 2, 6, 11, 21, -21, -21, -6, 48, -71, 88, -1, -3, 3, 7, 64, 2, 9, -4, 37, -67, 72, 2, 2, -8, -8, -10, 71, -40, -3, 73, 80, 47], "withholdReward": false, "trial_id": "mdp_trial_31", "block": "test", "trialIndex": 34, "score": 54.7, "costs": -4.3, "simulationMode": [null, null, null, null, null], "rewards": [2, 2, -8, -8, 71], "path": ["0", "0", "23", "24", "25", "26", "28"], "rt": [7654, 12, 49, 29, 488], "actions": ["left", "left", "left", "up", "right"], "actionTimes": [9298, 9834, 10423, 10977, 12009], "queries": {"click": {"state": {"target": ["28", "18"], "time": [2607, 6154]}, "edge": {"target": [], "time": []}}, "mouseover": {"state": {"target": ["28", "18", "7"], "time": [2209, 3373, 6645]}, "edge": {"target": [], "time": []}}, "mouseout": {"state": {"target": ["7", "28", "18", "7"], "time": [908, 2948, 6497, 12954]}, "edge": {"target": [], "time": []}}}, "displayed_time": "15.66", "trialTime": 16438, "trial_type": "mouselab-mdp", "trial_index": 45, "time_elapsed": 1279912, "internal_node_id": "0.0-6.0-1.0-30.0"}}, {"uniqueid": "w41416775:a50534431", "current_trial": 46, "dateTime": 1693835880806, "trialdata": {"revealed_states": [], "clicked_states": ["7"], "num_clicks_accrued": [0, 0, 0, 0, 0, 0, 0, 0, 0, 0, 0, 0, 0], "stateRewards": ["", -2, 4, -3, -13, 63, -36, 62, 11, 78, 34, -51, 2, -2, 8, -6, -40, -18, 31, 9, 64, 39, 79, 1, 4, -4, 15, -12, 76, 73, -10, -77, 86, -4], "withholdReward": false, "trial_id": "mdp_trial_32", "block": "test", "trialIndex": 35, "score": 45.85, "costs": -2.15, "simulationMode": [null, null, null, null, null], "rewards": [-2, 4, -3, -13, 62], "path": ["0", "0", "1", "2", "3", "4", "7"], "rt": [5628, 109, 5, 560, 117], "actions": ["up", "up", "up", "right", "down"], "actionTimes": [6834, 7467, 7988, 9092, 9724], "queries": {"click": {"state": {"target": ["7"], "time": [2288]}, "edge": {"target": [], "time": []}}, "mouseover": {"state": {"target": ["1", "7", "2", "10"], "time": [1903, 1983, 2632, 5913]}, "edge": {"target": [], "time": []}}, "mouseout": {"state": {"target": ["0", "1", "7", "2", "10"], "time": [1849, 1950, 2605, 2655, 11958]}, "edge": {"target": [], "time": []}}}, "displayed_time": "15.21", "trialTime": 15842, "trial_type": "mouselab-mdp", "trial_index": 46, "time_elapsed": 1296269, "internal_node_id": "0.0-6.0-1.0-31.0"}}, {"uniqueid": "w41416775:a50534431", "current_trial": 47, "dateTime": 1693835914526, "trialdata": {"revealed_states": [], "clicked_states": ["18", "10", "31", "22", "29", "17", "5"], "num_clicks_accrued": [0, 0, 0, 0, 0, 0, 0, 0, 0, 0, 0, 0, 0], "stateRewards": ["", -2, 2, -5, 1, 42, -63, -58, -6, 2, 16, 81, -2, 4, 7, -10, 33, 3, -33, -2, -52, -84, -27, 2, -3, -3, 15, -74, -14, -5, -5, -84, 79, -31], "withholdReward": false, "trial_id": "mdp_trial_33", "block": "test", "trialIndex": 36, "score": 22.95, "costs": -15.05, "simulationMode": [null, null, null, null, null], "rewards": [-2, 2, -5, 1, 42], "path": ["0", "0", "1", "2", "3", "4", "5"], "rt": [27420, 43, 45, 528, 113], "actions": ["up", "up", "up", "right", "up"], "actionTimes": [28842, 29401, 29978, 31035, 31669], "queries": {"click": {"state": {"target": ["18", "10", "31", "22", "29", "17", "5"], "time": [3413, 6560, 10132, 13342, 16968, 21237, 24751]}, "edge": {"target": [], "time": []}}, "mouseover": {"state": {"target": ["23", "29", "26", "28", "18", "7", "2", "2", "10", "31", "22", "30", "29", "24", "14", "17", "1", "4", "5", "5", "9"], "time": [1807, 2179, 2403, 2456, 3118, 4144, 4196, 4495, 4568, 9975, 10817, 16113, 16842, 20658, 20732, 21008, 23032, 23509, 24056, 24619, 26107]}, "edge": {"target": [], "time": []}}, "mouseout": {"state": {"target": ["23", "29", "26", "28", "18", "7", "2", "2", "10", "31", "22", "30", "29", "24", "14", "17", "1", "4", "5", "5", "9", "3", "7", "15", "17"], "time": [1848, 2354, 2451, 3055, 4119, 4168, 4270, 4520, 8643, 10443, 14637, 16137, 17239, 20682, 20949, 21533, 23059, 23586, 24214, 25133, 28313, 32603, 32632, 32728, 33006]}, "edge": {"target": [], "time": []}}}, "displayed_time": "32.18", "trialTime": 33209, "trial_type": "mouselab-mdp", "trial_index": 47, "time_elapsed": 1329989, "internal_node_id": "0.0-6.0-1.0-32.0"}}, {"uniqueid": "w41416775:a50534431", "current_trial": 48, "dateTime": 1693835942910, "trialdata": {"revealed_states": [], "clicked_states": ["29", "7", "9", "17", "32", "22"], "num_clicks_accrued": [0, 0, 0, 0, 0, 0, 0, 0, 0, 0, 0, 0, 0], "stateRewards": ["", 1, -1, 4, 5, -32, 18, 20, 6, -88, -74, 9, -2, 1, -2, -14, 34, -77, -38, -1, 80, -36, 73, 2, 3, -8, 10, -48, -73, -71, -11, -22, 20, 54], "withholdReward": false, "trial_id": "mdp_trial_34", "block": "test", "trialIndex": 37, "score": 56.1, "costs": -12.9, "simulationMode": [null, null, null, null, null], "rewards": [-2, 1, -2, -1, 73], "path": ["0", "0", "12", "13", "14", "19", "22"], "rt": [21507, 23, 43, 692, 278], "actions": ["right", "right", "right", "down", "left"], "actionTimes": [23004, 23549, 24144, 25391, 26233], "queries": {"click": {"state": {"target": ["29", "7", "9", "17", "32", "22"], "time": [2511, 5725, 9038, 12170, 15404, 19017]}, "edge": {"target": [], "time": []}}, "mouseover": {"state": {"target": ["23", "25", "29", "25", "24", "10", "2", "7", "2", "8", "9", "21", "19", "17", "15", "32", "22"], "time": [1964, 1992, 2348, 2917, 2942, 4587, 4937, 5208, 6333, 7459, 8110, 9482, 10606, 10682, 12515, 12905, 18858]}, "edge": {"target": [], "time": []}}, "mouseout": {"state": {"target": ["16", "18", "23", "0", "23", "25", "29", "25", "24", "10", "2", "7", "2", "8", "9", "21", "19", "17", "15", "32", "22", "22"], "time": [572, 619, 698, 948, 1989, 2014, 2889, 2939, 2964, 4912, 4961, 6310, 6359, 7685, 9381, 10580, 10629, 12509, 12540, 16550, 19326, 27252]}, "edge": {"target": [], "time": []}}}, "displayed_time": "26.75", "trialTime": 27783, "trial_type": "mouselab-mdp", "trial_index": 48, "time_elapsed": 1358372, "internal_node_id": "0.0-6.0-1.0-33.0"}}, {"uniqueid": "w41416775:a50534431", "current_trial": 49, "dateTime": 1693835969350, "trialdata": {"revealed_states": [], "clicked_states": ["9", "28", "29", "17", "21"], "num_clicks_accrued": [0, 0, 0, 0, 0, 0, 0, 0, 0, 0, 0, 0, 0], "stateRewards": ["", 1, -1, 8, -3, 38, 85, -20, -4, 8, 23, 73, 2, -4, 6, -13, 44, 7, -28, -11, -77, 45, -69, 1, -1, -7, -11, 75, -51, -87, 7, 36, -53, -26], "withholdReward": false, "trial_id": "mdp_trial_35", "block": "test", "trialIndex": 38, "score": 27.25, "costs": -10.75, "simulationMode": [null, null, null, null, null], "rewards": [2, -4, 6, -11, 45], "path": ["0", "0", "12", "13", "14", "19", "21"], "rt": [18313, 205, 218, 193, 191], "actions": ["right", "right", "right", "down", "down"], "actionTimes": [19864, 20589, 21325, 22049, 22774], "queries": {"click": {"state": {"target": ["9", "28", "29", "17", "21"], "time": [2399, 5586, 8756, 11963, 15768]}, "edge": {"target": [], "time": []}}, "mouseover": {"state": {"target": ["10", "8", "9", "8", "23", "28", "26", "29", "18", "15", "15", "17", "22", "21", "32"], "time": [1727, 2020, 2122, 2669, 2789, 3289, 5942, 5987, 9263, 9292, 9537, 9653, 15217, 15590, 18988]}, "edge": {"target": [], "time": []}}, "mouseout": {"state": {"target": ["0", "10", "8", "9", "8", "23", "28", "26", "29", "18", "15", "15", "17", "22", "21", "32", "31", "30", "30"], "time": [1171, 1780, 2077, 2665, 2690, 3164, 5938, 5963, 9165, 9287, 9312, 9610, 14680, 15238, 15983, 19183, 24612, 25300, 25462]}, "edge": {"target": [], "time": []}}}, "displayed_time": "23.31", "trialTime": 25922, "trial_type": "mouselab-mdp", "trial_index": 49, "time_elapsed": 1384813, "internal_node_id": "0.0-6.0-1.0-34.0"}}, {"uniqueid": "w41416775:a50534431", "current_trial": 50, "dateTime": 1693835985807, "trialdata": {"revealed_states": [], "clicked_states": ["6"], "num_clicks_accrued": [0, 0, 0, 0, 0, 0, 0, 0, 0, 0, 0, 0, 0], "stateRewards": ["", -1, 2, -6, 6, 43, 78, 78, -2, 55, -29, -17, -2, -4, 1, -15, 13, 7, -79, 8, -28, -68, 36, -1, -3, 3, -16, 84, -18, 87, 10, 32, 13, -81], "withholdReward": false, "trial_id": "mdp_trial_36", "block": "test", "trialIndex": 39, "score": 76.85, "costs": -2.15, "simulationMode": [null, null, null, null, null], "rewards": [-1, 2, -6, 6, 78], "path": ["0", "0", "1", "2", "3", "4", "6"], "rt": [5052, 142, 136, 106, 131], "actions": ["up", "up", "up", "right", "right"], "actionTimes": [6122, 6777, 7445, 8065, 8714], "queries": {"click": {"state": {"target": ["6"], "time": [2090]}, "edge": {"target": [], "time": []}}, "mouseover": {"state": {"target": ["1", "4", "6", "7", "33", "25"], "time": [1369, 1476, 1843, 2437, 3283, 5642]}, "edge": {"target": [], "time": []}}, "mouseout": {"state": {"target": ["0", "1", "4", "6", "7", "33", "25", "24", "0"], "time": [166, 1424, 1786, 2432, 2459, 5616, 5657, 9684, 9780]}, "edge": {"target": [], "time": []}}}, "displayed_time": "15.08", "trialTime": 15967, "trial_type": "mouselab-mdp", "trial_index": 50, "time_elapsed": 1401272, "internal_node_id": "0.0-6.0-1.0-35.0"}}, {"uniqueid": "w41416775:a50534431", "current_trial": 51, "dateTime": 1693836002420, "trialdata": {"revealed_states": [], "clicked_states": ["31", "18"], "num_clicks_accrued": [0, 0, 0, 0, 0, 0, 0, 0, 0, 0, 0, 0, 0], "stateRewards": ["", -1, -4, -1, -11, 43, 69, 39, 4, 17, -20, -82, -2, -1, 4, 8, -79, 24, -79, 11, 36, 64, 41, 2, 4, -1, 11, -79, -47, 75, -3, 63, -36, -19], "withholdReward": false, "trial_id": "mdp_trial_37", "block": "test", "trialIndex": 40, "score": 60.7, "costs": -4.3, "simulationMode": [null, null, null, null, null], "rewards": [2, 4, -1, -3, 63], "path": ["0", "0", "23", "24", "25", "30", "31"], "rt": [7534, 84, 92, 67, 52], "actions": ["left", "left", "left", "down", "right"], "actionTimes": [8906, 9524, 10134, 10734, 11342], "queries": {"click": {"state": {"target": ["31", "18"], "time": [2471, 5688]}, "edge": {"target": [], "time": []}}, "mouseover": {"state": {"target": ["25", "30", "31", "18", "1"], "time": [1952, 2066, 2277, 3119, 6339]}, "edge": {"target": [], "time": []}}, "mouseout": {"state": {"target": ["25", "30", "31", "18", "1", "17"], "time": [1985, 2092, 2842, 6263, 12346, 12693]}, "edge": {"target": [], "time": []}}}, "displayed_time": "15.38", "trialTime": 16118, "trial_type": "mouselab-mdp", "trial_index": 51, "time_elapsed": 1417883, "internal_node_id": "0.0-6.0-1.0-36.0"}}, {"uniqueid": "w41416775:a50534431", "current_trial": 52, "dateTime": 1693836024411, "trialdata": {"revealed_states": [], "clicked_states": ["28", "7", "9", "17"], "num_clicks_accrued": [0, 0, 0, 0, 0, 0, 0, 0, 0, 0, 0, 0, 0], "stateRewards": ["", -2, 1, 6, -2, -10, -78, -69, 14, -15, 7, -1, 1, -1, -2, 13, 77, 32, 87, 5, -74, 30, -26, 1, 3, 4, 12, 39, 54, -43, 2, 10, 23, 13], "withholdReward": false, "trial_id": "mdp_trial_38", "block": "test", "trialIndex": 41, "score": 65.4, "costs": -8.6, "simulationMode": [null, null, null, null, null], "rewards": [1, 3, 4, 12, 54], "path": ["0", "0", "23", "24", "25", "26", "28"], "rt": [15596, 86, 150, 51, 110], "actions": ["left", "left", "left", "up", "right"], "actionTimes": [17417, 18017, 18706, 19281, 19915], "queries": {"click": {"state": {"target": ["28", "7", "9", "17"], "time": [3301, 6476, 9611, 14049]}, "edge": {"target": [], "time": []}}, "mouseover": {"state": {"target": ["28", "1", "7", "7", "9", "28", "26", "13", "14", "17"], "time": [3120, 3663, 3963, 4312, 6961, 10108, 10207, 13461, 13529, 13863]}, "edge": {"target": [], "time": []}}, "mouseout": {"state": {"target": ["13", "12", "0", "0", "0", "28", "1", "7", "7", "9", "28", "26", "13", "14", "17", "18"], "time": [518, 868, 1033, 1121, 2896, 3613, 3685, 3986, 6545, 10036, 10132, 13213, 13503, 13554, 14331, 20833]}, "edge": {"target": [], "time": []}}}, "displayed_time": "20.45", "trialTime": 21466, "trial_type": "mouselab-mdp", "trial_index": 52, "time_elapsed": 1439874, "internal_node_id": "0.0-6.0-1.0-37.0"}}, {"uniqueid": "w41416775:a50534431", "current_trial": 53, "dateTime": 1693836049337, "trialdata": {"revealed_states": [], "clicked_states": ["17", "5", "31", "22", "28"], "num_clicks_accrued": [0, 0, 0, 0, 0, 0, 0, 0, 0, 0, 0, 0, 0], "stateRewards": ["", 2, -3, 5, 11, -79, 54, 11, -9, -78, 33, 22, -2, -1, 2, 14, 43, 34, 1, 10, 49, -65, 39, -1, 1, -1, 3, -16, -2, 11, 2, 12, 48, -65], "withholdReward": false, "trial_id": "mdp_trial_39", "block": "test", "trialIndex": 42, "score": 37.25, "costs": -10.75, "simulationMode": [null, null, null, null, null], "rewards": [-2, -1, 2, 10, 39], "path": ["0", "0", "12", "13", "14", "19", "22"], "rt": [18397, 533, 102, 74, 226], "actions": ["right", "right", "right", "down", "left"], "actionTimes": [20024, 21075, 21692, 22290, 23064], "queries": {"click": {"state": {"target": ["17", "5", "31", "22", "28"], "time": [2432, 5697, 8825, 13470, 16764]}, "edge": {"target": [], "time": []}}, "mouseover": {"state": {"target": ["15", "17", "7", "3", "9", "5", "28", "33", "30", "31", "23", "15", "14", "19", "21", "22", "24", "29", "26", "28", "0"], "time": [2059, 2208, 2776, 2824, 3150, 4150, 6022, 6097, 6496, 6697, 9370, 12428, 12779, 12991, 13121, 13326, 14818, 14866, 15414, 15466, 17490]}, "edge": {"target": [], "time": []}}, "mouseout": {"state": {"target": ["0", "15", "17", "7", "3", "9", "5", "28", "33", "30", "31", "23", "15", "14", "19", "21", "22", "24", "29", "26", "28", "28", "0"], "time": [1809, 2107, 2726, 2801, 3101, 3975, 5972, 6045, 6445, 6547, 8888, 9396, 12484, 12966, 13085, 13169, 14341, 14843, 15393, 15442, 16830, 17365, 17516]}, "edge": {"target": [], "time": []}}}, "displayed_time": "23.59", "trialTime": 24348, "trial_type": "mouselab-mdp", "trial_index": 53, "time_elapsed": 1464801, "internal_node_id": "0.0-6.0-1.0-38.0"}}, {"uniqueid": "w41416775:a50534431", "current_trial": 54, "dateTime": 1693836073982, "trialdata": {"revealed_states": [], "clicked_states": ["7", "28", "18", "21", "32"], "num_clicks_accrued": [0, 0, 0, 0, 0, 0, 0, 0, 0, 0, 0, 0, 0], "stateRewards": ["", -2, 2, -2, -7, -50, -62, -45, 7, 36, -24, -72, -1, -1, 8, -1, -67, 20, -52, 2, 35, -50, 80, -1, 1, 6, -6, -70, 6, 88, 8, -47, 74, -19], "withholdReward": false, "trial_id": "mdp_trial_40", "block": "test", "trialIndex": 43, "score": 77.25, "costs": -10.75, "simulationMode": [null, null, null, null, null], "rewards": [-1, 1, 6, 8, 74], "path": ["0", "0", "23", "24", "25", "30", "32"], "rt": [18471, 58, 79, 102, 161], "actions": ["left", "left", "left", "down", "down"], "actionTimes": [19351, 19928, 20524, 21170, 21855], "queries": {"click": {"state": {"target": ["7", "28", "18", "21", "32"], "time": [2188, 5368, 8645, 11811, 15378]}, "edge": {"target": [], "time": []}}, "mouseover": {"state": {"target": ["2", "7", "25", "29", "26", "28", "18", "15", "18", "22", "21", "32", "13", "14", "17"], "time": [1861, 1906, 2627, 2978, 3778, 4102, 6001, 6075, 6426, 9024, 9449, 14949, 16417, 16472, 16770]}, "edge": {"target": [], "time": []}}, "mouseout": {"state": {"target": ["0", "2", "7", "25", "29", "26", "28", "18", "15", "18", "22", "21", "32", "13", "14", "17", "15"], "time": [335, 1904, 2527, 2926, 3751, 3800, 5950, 6024, 6326, 8975, 9048, 12372, 15743, 16468, 16519, 18832, 22874]}, "edge": {"target": [], "time": []}}}, "displayed_time": "22.38", "trialTime": 24158, "trial_type": "mouselab-mdp", "trial_index": 54, "time_elapsed": 1489444, "internal_node_id": "0.0-6.0-1.0-39.0"}}, {"uniqueid": "w41416775:a50534431", "current_trial": 55, "dateTime": 1693836114600, "trialdata": {"rt": 40597, "response": {"Q0": "$-2 to $2", "Q1": "$-16 to $16", "Q2": "$-88 to $88", "Q3": "The cost for clicking on nodes varied between nodes.", "Q4": "Slightly motivated"}, "question_order": [0, 1, 2, 3, 4], "trial_id": "final_quiz_control", "trial_type": "survey-multi-choice", "trial_index": 55, "time_elapsed": 1530064, "internal_node_id": "0.0-6.0-2.0"}}, {"uniqueid": "w41416775:a50534431", "current_trial": 56, "dateTime": 1693836178463, "trialdata": {"rt": 63841, "response": {"Q0": "I tried to average between viewing 3-4 nodes as to not to lose too many points.", "Q1": "I started viewing more nodes as I noticed it did not impact my results if I viewed more nodes toward the end.", "Q2": "Not difficult"}, "trial_id": "self_report_control", "trial_type": "survey-text", "trial_index": 56, "time_elapsed": 1593928, "internal_node_id": "0.0-6.0-3.0"}}, {"uniqueid": "w41416775:a50534431", "current_trial": 57, "dateTime": 1693836218792, "trialdata": {"rt": 40312, "response": {"Q0": "Disagree", "Q1": "Disagree", "Q2": "Neither disagree nor agree", "Q3": "Agree", "Q4": "Disagree", "Q5": "Disagree", "Q6": "Agree"}, "question_order": [0, 1, 2, 3, 4, 5, 6], "trial_id": "self_report_2", "trial_type": "survey-multi-choice", "trial_index": 57, "time_elapsed": 1634256, "internal_node_id": "0.0-6.0-4.0"}}, {"uniqueid": "w41416775:a50534431", "current_trial": 58, "dateTime": 1693836234618, "trialdata": {"rt": 15801, "response": {"gender": "female", "age": "26", "colorblind": "0", "effort": "0"}, "trial_type": "survey-html-form", "trial_index": 58, "time_elapsed": 1650083, "internal_node_id": "0.0-6.0-5.0"}}, {"uniqueid": "w41416775:a50534431", "current_trial": 59, "dateTime": 1693836242997, "trialdata": {"rt": 8350, "response": {"Q0": "No", "Q1": "No", "Q2": ""}, "trial_type": "survey-text", "trial_index": 59, "time_elapsed": 1658461, "internal_node_id": "0.0-6.0-6.0"}}, {"uniqueid": "w41416775:a50534431", "current_trial": 60, "dateTime": 1693836267577, "trialdata": {"rt": 24566, "stimulus": "<h1>Completion Code Instructions (1/2)</h1>\n<br><br><br><br>\nYou have reached the end of the experiment! The completion code consists of two parts: (1) a code with 2 characters (2) a code with 6 characters. On this page, you will receive the second part of the code. The first part of the completion code will be on the next page.\n<br><br>\nThe second part of your completion code is: <b>EWEK22</b>\n<br><br>\nPlease note this down. Then, press 'Next' in order to find the first part of your completion code. Once the data has been saved, you will receive this code either in this window or in the original browser window where you started the experiment.\n <br><br>\n<h2 style='color: red;'>Note: this is <strong>NOT</strong> the full completion code. Copy this down and click 'Next' to get the full completion code on the next page.</h2>", "response": 0, "trial_type": "html-button-response", "trial_index": 60, "time_elapsed": 1683041, "internal_node_id": "0.0-6.0-7.0"}}, {"uniqueid": "w41416775:a50534431", "current_trial": 61, "dateTime": 1693836268597, "trialdata": {"success": true, "trial_type": "fullscreen", "trial_index": 61, "time_elapsed": 1684061, "internal_node_id": "0.0-7.0"}}], "questiondata": {"params": {"CODE": "C6DMOQA6", "MIN_TIME": 14, "inspectCost": 1, "startTime": "Mon Sep 04 2023 15:36:22 GMT+0200 (South Africa Standard Time)", "bonusRate": 0.002, "variance": "1_2_4_8_44", "branching": "31123"}, "final_score": 1857.4}, "eventdata": [{"eventtype": "initialized", "value": null, "timestamp": 1693834581893, "interval": 0}, {"eventtype": "window_resize", "value": [1032, 608], "timestamp": 1693834581893, "interval": 0}, {"eventtype": "window_resize", "value": [1032, 608], "timestamp": 1693834582392, "interval": 499}, {"eventtype": "window_resize", "value": [1280, 720], "timestamp": 1693834588147, "interval": 5755}, {"eventtype": "focus", "value": "off", "timestamp": 1693834988579, "interval": 400432}, {"eventtype": "focus", "value": "on", "timestamp": 1693834988580, "interval": 1}, {"eventtype": "window_resize", "value": [1032, 608], "timestamp": 1693834988811, "interval": 231}, {"eventtype": "window_resize", "value": [1280, 720], "timestamp": 1693834991950, "interval": 3139}, {"eventtype": "window_resize", "value": [1032, 608], "timestamp": 1693836267944, "interval": 1275994}], "useragent": "Mozilla/5.0 (Windows NT 10.0; Win64; x64) AppleWebKit/537.36 (KHTML, like Gecko) Chrome/116.0.0.0 Safari/537.36", "mode": "live", "id": "w41416775:a50534431", "status": "user data saved", "Beginhit": "2023-09-04 13:36:18.682766", "Beginexp": "2023-09-04 13:36:29.069363", "Endhit": "2023-09-04 14:04:30.186175", "psiturkStatus": 3, "browser": "<redacted>", "platform": "windows", "language": "en-US"}