{"condition": 1, "counterbalance": 0, "assignmentId": "a26130742", "workerId": "w61816170", "hitId": "h96992367", "currenttrial": 68, "bonus": 0, "data": [{"uniqueid": "w61816170:a26130742", "current_trial": 0, "dateTime": 1691142095177, "trialdata": {"success": true, "trial_type": "fullscreen", "trial_index": 0, "time_elapsed": 13066, "internal_node_id": "0.0-0.0"}}, {"uniqueid": "w61816170:a26130742", "current_trial": 1, "dateTime": 1691142121590, "trialdata": {"view_history": [{"page_index": 0, "viewing_time": 26398}], "rt": 26399, "trial_id": "exp_instructions_misaligned", "trial_type": "instructions", "trial_index": 1, "time_elapsed": 39479, "internal_node_id": "0.0-1.0"}}, {"uniqueid": "w61816170:a26130742", "current_trial": 2, "dateTime": 1691142124690, "trialdata": {"success": true, "trial_type": "fullscreen", "trial_index": 2, "time_elapsed": 42579, "internal_node_id": "0.0-2.0-0.0"}}, {"uniqueid": "w61816170:a26130742", "current_trial": 3, "dateTime": 1691142206684, "trialdata": {"view_history": [{"page_index": 0, "viewing_time": 25601}, {"page_index": 1, "viewing_time": 17422}, {"page_index": 2, "viewing_time": 31148}, {"page_index": 3, "viewing_time": 7817}], "rt": 81989, "trial_id": "mouselab_instructions_1_misaligned", "trial_type": "instructions", "trial_index": 3, "time_elapsed": 124572, "internal_node_id": "0.0-2.0-1.0"}}, {"uniqueid": "w61816170:a26130742", "current_trial": 4, "dateTime": 1691142228330, "trialdata": {"revealed_states": [], "clicked_states": [], "num_clicks_accrued": [0, 0, 0, 0, 0, 0, 0, 0, 0, 0, 0, 0, 0], "stateRewards": ["", 10, 10, 10, -10, -10, 10, 10, 10, 10, 10, -10, 10, 10, -10, -10, 10, -10, 10, 10, 10, 10, -10, 10, 10, -10, 10, -10, -10, -10, 10, 10, 10, -10], "withholdReward": false, "trial_id": "practice_1", "block": "test", "trialIndex": 0, "score": 13.5, "costs": 0, "simulationMode": [null, null, null, null, null], "rewards": [10, 10, -10, -10, 10], "path": ["0", "0", "12", "13", "14", "15", "16"], "rt": [1654, 319, 1483, 377, 1], "actions": ["right", "right", "right", "up", "up"], "actionTimes": [9144, 10049, 12122, 13109, 13724], "queries": {"click": {"state": {"target": [], "time": []}, "edge": {"target": [], "time": []}}, "mouseover": {"state": {"target": [], "time": []}, "edge": {"target": [], "time": []}}, "mouseout": {"state": {"target": ["0", "1", "3", "3", "10", "0"], "time": [4635, 5559, 5612, 5981, 6029, 17607]}, "edge": {"target": [], "time": []}}}, "displayed_time": "14.32", "trialTime": 20762, "trial_type": "mouselab-mdp", "trial_index": 4, "time_elapsed": 146219, "internal_node_id": "0.0-2.0-2.0-0.0"}}, {"uniqueid": "w61816170:a26130742", "current_trial": 5, "dateTime": 1691142248919, "trialdata": {"revealed_states": [], "clicked_states": [], "num_clicks_accrued": [0, 0, 0, 0, 0, 0, 0, 0, 0, 0, 0, 0, 0], "stateRewards": ["", -10, 10, 10, 10, -10, 10, 10, -10, -10, -10, -10, -10, 10, -10, -10, 10, -10, 10, 10, 10, -10, 10, 10, 10, -10, 10, 10, -10, 10, 10, -10, -10, -10], "withholdReward": false, "trial_id": "practice_2", "block": "test", "trialIndex": 1, "score": 33.5, "costs": 0, "simulationMode": [null, null, null, null, null], "rewards": [-10, 10, 10, 10, 10], "path": ["0", "0", "1", "2", "3", "4", "6"], "rt": [375, 402, 1371, 196, 4], "actions": ["up", "up", "up", "right", "right"], "actionTimes": [6459, 7441, 9383, 10166, 10739], "queries": {"click": {"state": {"target": [], "time": []}, "edge": {"target": [], "time": []}}, "mouseover": {"state": {"target": [], "time": []}, "edge": {"target": [], "time": []}}, "mouseout": {"state": {"target": ["0", "0"], "time": [4449, 17517]}, "edge": {"target": [], "time": []}}}, "displayed_time": "11.33", "trialTime": 19386, "trial_type": "mouselab-mdp", "trial_index": 5, "time_elapsed": 166808, "internal_node_id": "0.0-2.0-2.0-1.0"}}, {"uniqueid": "w61816170:a26130742", "current_trial": 6, "dateTime": 1691142283645, "trialdata": {"view_history": [{"page_index": 0, "viewing_time": 25396}, {"page_index": 1, "viewing_time": 9325}], "rt": 34721, "trial_id": "mouselab_instructions_2_misaligned", "trial_type": "instructions", "trial_index": 6, "time_elapsed": 201533, "internal_node_id": "0.0-2.0-3.0"}}, {"uniqueid": "w61816170:a26130742", "current_trial": 7, "dateTime": 1691142325920, "trialdata": {"rt": 42263, "response": {"Q0": "There is no cost for clicking on nodes.", "Q1": "I will receive a $1 bonus if I perform well, otherwise I will receive no bonus.", "Q2": "Yes.", "Q3": "To get the highest total score.", "Q4": "Only before moving the spider.", "Q5": "3 seconds"}, "question_order": [0, 1, 2, 3, 4, 5], "correct": {"Q0": "The cost for clicking on nodes may vary between nodes.", "Q1": "The better I perform the higher my bonus will be.", "Q2": "No, the amount of cash at each node of the web may be different each time.", "Q3": "To get the highest total score.", "Q4": "Only before moving the spider.", "Q5": "3 seconds"}, "trial_id": "mouselab_quiz_misaligned", "trial_type": "survey-multi-choice", "trial_index": 7, "time_elapsed": 243809, "internal_node_id": "0.0-2.0-4.0"}}, {"uniqueid": "w61816170:a26130742", "current_trial": 8, "dateTime": 1691142333100, "trialdata": {"success": true, "trial_type": "fullscreen", "trial_index": 8, "time_elapsed": 250988, "internal_node_id": "0.0-2.1-0.1"}}, {"uniqueid": "w61816170:a26130742", "current_trial": 9, "dateTime": 1691142424894, "trialdata": {"view_history": [{"page_index": 0, "viewing_time": 52931}, {"page_index": 1, "viewing_time": 29468}, {"page_index": 2, "viewing_time": 3199}, {"page_index": 3, "viewing_time": 6186}], "rt": 91784, "trial_id": "mouselab_instructions_1_misaligned", "trial_type": "instructions", "trial_index": 9, "time_elapsed": 342782, "internal_node_id": "0.0-2.1-1.1"}}, {"uniqueid": "w61816170:a26130742", "current_trial": 10, "dateTime": 1691142437037, "trialdata": {"revealed_states": [], "clicked_states": [], "num_clicks_accrued": [0, 0, 0, 0, 0, 0, 0, 0, 0, 0, 0, 0, 0], "stateRewards": ["", 10, 10, 10, -10, -10, 10, 10, 10, 10, 10, -10, 10, 10, -10, -10, 10, -10, 10, 10, 10, 10, -10, 10, 10, -10, 10, -10, -10, -10, 10, 10, 10, -10], "withholdReward": false, "trial_id": "practice_1", "block": "test", "trialIndex": 2, "score": 13.5, "costs": 0, "simulationMode": [null, null, null, null, null], "rewards": [10, 10, -10, -10, 10], "path": ["0", "0", "12", "13", "14", "15", "16"], "rt": [1208, 1, 153, 74, 1], "actions": ["right", "right", "right", "up", "up"], "actionTimes": [4067, 4663, 5406, 6089, 6693], "queries": {"click": {"state": {"target": [], "time": []}, "edge": {"target": [], "time": []}}, "mouseover": {"state": {"target": [], "time": []}, "edge": {"target": [], "time": []}}, "mouseout": {"state": {"target": ["0"], "time": [9894]}, "edge": {"target": [], "time": []}}}, "displayed_time": "7.29", "trialTime": 11339, "trial_type": "mouselab-mdp", "trial_index": 10, "time_elapsed": 354925, "internal_node_id": "0.0-2.1-2.1-0.1"}}, {"uniqueid": "w61816170:a26130742", "current_trial": 11, "dateTime": 1691142450134, "trialdata": {"revealed_states": [], "clicked_states": [], "num_clicks_accrued": [0, 0, 0, 0, 0, 0, 0, 0, 0, 0, 0, 0, 0], "stateRewards": ["", -10, 10, 10, 10, -10, 10, 10, -10, -10, -10, -10, -10, 10, -10, -10, 10, -10, 10, 10, 10, -10, 10, 10, 10, -10, 10, 10, -10, 10, 10, -10, -10, -10], "withholdReward": false, "trial_id": "practice_2", "block": "test", "trialIndex": 3, "score": -6.5, "costs": 0, "simulationMode": [null, null, null, null, null], "rewards": [-10, 10, 10, -10, -10], "path": ["0", "0", "1", "2", "3", "8", "11"], "rt": [56, 350, 49, 481, 742], "actions": ["up", "up", "up", "left", "left"], "actionTimes": [1803, 2696, 3344, 4421, 5770], "queries": {"click": {"state": {"target": [], "time": []}, "edge": {"target": [], "time": []}}, "mouseover": {"state": {"target": [], "time": []}, "edge": {"target": [], "time": []}}, "mouseout": {"state": {"target": ["1", "0"], "time": [472, 11847]}, "edge": {"target": [], "time": []}}}, "displayed_time": "6.37", "trialTime": 12227, "trial_type": "mouselab-mdp", "trial_index": 11, "time_elapsed": 368023, "internal_node_id": "0.0-2.1-2.1-1.1"}}, {"uniqueid": "w61816170:a26130742", "current_trial": 12, "dateTime": 1691142456256, "trialdata": {"view_history": [{"page_index": 0, "viewing_time": 3876}, {"page_index": 1, "viewing_time": 2242}], "rt": 6120, "trial_id": "mouselab_instructions_2_misaligned", "trial_type": "instructions", "trial_index": 12, "time_elapsed": 374145, "internal_node_id": "0.0-2.1-3.1"}}, {"uniqueid": "w61816170:a26130742", "current_trial": 13, "dateTime": 1691142530985, "trialdata": {"rt": 74719, "response": {"Q0": "There is no cost for clicking on nodes.", "Q1": "I will receive a $1 bonus if I perform well, otherwise I will receive no bonus.", "Q2": "Yes.", "Q3": "To get the highest total score.", "Q4": "Only before moving the spider.", "Q5": "3 seconds"}, "question_order": [0, 1, 2, 3, 4, 5], "correct": {"Q0": "The cost for clicking on nodes may vary between nodes.", "Q1": "The better I perform the higher my bonus will be.", "Q2": "No, the amount of cash at each node of the web may be different each time.", "Q3": "To get the highest total score.", "Q4": "Only before moving the spider.", "Q5": "3 seconds"}, "trial_id": "mouselab_quiz_misaligned", "trial_type": "survey-multi-choice", "trial_index": 13, "time_elapsed": 448873, "internal_node_id": "0.0-2.1-4.1"}}, {"uniqueid": "w61816170:a26130742", "current_trial": 14, "dateTime": 1691142536479, "trialdata": {"success": true, "trial_type": "fullscreen", "trial_index": 14, "time_elapsed": 454368, "internal_node_id": "0.0-2.2-0.2"}}, {"uniqueid": "w61816170:a26130742", "current_trial": 15, "dateTime": 1691142958554, "trialdata": {"view_history": [{"page_index": 0, "viewing_time": 13059}, {"page_index": 1, "viewing_time": 16246}, {"page_index": 2, "viewing_time": 12859}, {"page_index": 3, "viewing_time": 379904}], "rt": 422069, "trial_id": "mouselab_instructions_1_misaligned", "trial_type": "instructions", "trial_index": 15, "time_elapsed": 876443, "internal_node_id": "0.0-2.2-1.2"}}, {"uniqueid": "w61816170:a26130742", "current_trial": 16, "dateTime": 1691142972438, "trialdata": {"revealed_states": [], "clicked_states": [], "num_clicks_accrued": [0, 0, 0, 0, 0, 0, 0, 0, 0, 0, 0, 0, 0], "stateRewards": ["", 10, 10, 10, -10, -10, 10, 10, 10, 10, 10, -10, 10, 10, -10, -10, 10, -10, 10, 10, 10, 10, -10, 10, 10, -10, 10, -10, -10, -10, 10, 10, 10, -10], "withholdReward": false, "trial_id": "practice_1", "block": "test", "trialIndex": 4, "score": 13.5, "costs": 0, "simulationMode": [null, null, null, null, null], "rewards": [10, 10, -10, 10, -10], "path": ["0", "0", "23", "24", "25", "26", "27"], "rt": [1130, 689, 340, 458, 67], "actions": ["left", "left", "left", "up", "up"], "actionTimes": [4680, 5986, 6904, 7958, 8597], "queries": {"click": {"state": {"target": [], "time": []}, "edge": {"target": [], "time": []}}, "mouseover": {"state": {"target": [], "time": []}, "edge": {"target": [], "time": []}}, "mouseout": {"state": {"target": ["0"], "time": [10665]}, "edge": {"target": [], "time": []}}}, "displayed_time": "9.16", "trialTime": 12743, "trial_type": "mouselab-mdp", "trial_index": 16, "time_elapsed": 890327, "internal_node_id": "0.0-2.2-2.2-0.2"}}, {"uniqueid": "w61816170:a26130742", "current_trial": 17, "dateTime": 1691142983147, "trialdata": {"revealed_states": [], "clicked_states": [], "num_clicks_accrued": [0, 0, 0, 0, 0, 0, 0, 0, 0, 0, 0, 0, 0], "stateRewards": ["", -10, 10, 10, 10, -10, 10, 10, -10, -10, -10, -10, -10, 10, -10, -10, 10, -10, 10, 10, 10, -10, 10, 10, 10, -10, 10, 10, -10, 10, 10, -10, -10, -10], "withholdReward": false, "trial_id": "practice_2", "block": "test", "trialIndex": 5, "score": -6.5, "costs": 0, "simulationMode": [null, null, null, null, null], "rewards": [-10, 10, 10, -10, -10], "path": ["0", "0", "1", "2", "3", "8", "9"], "rt": [391, 94, 121, 263, 754], "actions": ["up", "up", "up", "left", "up"], "actionTimes": [2315, 3010, 3743, 4568, 5906], "queries": {"click": {"state": {"target": [], "time": []}, "edge": {"target": [], "time": []}}, "mouseover": {"state": {"target": [], "time": []}, "edge": {"target": [], "time": []}}, "mouseout": {"state": {"target": ["0"], "time": [7457]}, "edge": {"target": [], "time": []}}}, "displayed_time": "6.45", "trialTime": 9802, "trial_type": "mouselab-mdp", "trial_index": 17, "time_elapsed": 901036, "internal_node_id": "0.0-2.2-2.2-1.2"}}, {"uniqueid": "w61816170:a26130742", "current_trial": 18, "dateTime": 1691143015591, "trialdata": {"view_history": [{"page_index": 0, "viewing_time": 29241}, {"page_index": 1, "viewing_time": 3201}], "rt": 32442, "trial_id": "mouselab_instructions_2_misaligned", "trial_type": "instructions", "trial_index": 18, "time_elapsed": 933480, "internal_node_id": "0.0-2.2-3.2"}}, {"uniqueid": "w61816170:a26130742", "current_trial": 19, "dateTime": 1691143053015, "trialdata": {"rt": 37418, "response": {"Q0": "The cost for clicking on nodes may vary between nodes.", "Q1": "The better I perform the higher my bonus will be.", "Q2": "No, the amount of cash at each node of the web may be different each time.", "Q3": "To get the highest total score.", "Q4": "Only before moving the spider.", "Q5": "3 seconds"}, "question_order": [0, 1, 2, 3, 4, 5], "correct": {"Q0": "The cost for clicking on nodes may vary between nodes.", "Q1": "The better I perform the higher my bonus will be.", "Q2": "No, the amount of cash at each node of the web may be different each time.", "Q3": "To get the highest total score.", "Q4": "Only before moving the spider.", "Q5": "3 seconds"}, "trial_id": "mouselab_quiz_misaligned", "trial_type": "survey-multi-choice", "trial_index": 19, "time_elapsed": 970903, "internal_node_id": "0.0-2.2-4.2"}}, {"uniqueid": "w61816170:a26130742", "current_trial": 20, "dateTime": 1691143060810, "trialdata": {"rt": 7781, "stimulus": "\n<h1> Get ready to start the game! </h1>\n\nThank you for reading the instructions. Get ready start with the 40 rounds of this game.\n<br><br>\nIf you need to take a break, feel free to take one after the end of a round, before continuing to the next one.\n<br><br>\nRemember, the more money the spider gets, the bigger your bonus will be!\n<br><br>\n<div style='text-align: center;'>Press <code>space</code> to begin.</div>\n\n<br><br>\n(If, at any point, the <code>space</code> key does not take you to the next page, click once on the text and try again.)", "response": " ", "trial_id": "mdp_ready", "trial_type": "html-keyboard-response", "trial_index": 20, "time_elapsed": 978698, "internal_node_id": "0.0-4.0-0.0"}}, {"uniqueid": "w61816170:a26130742", "current_trial": 21, "dateTime": 1691143080856, "trialdata": {"revealed_states": [], "clicked_states": [], "num_clicks_accrued": [0, 0, 0, 0, 0, 0, 0, 0, 0, 0, 0, 0, 0], "stateRewards": ["", -2, -4, 6, 14, -34, 49, 36, -8, -3, 32, -4, 1, -2, 1, -8, -20, -71, -57, -7, -86, -62, -16, -2, -3, -5, 11, 23, -21, 53, 5, -5, 85, 73], "withholdReward": false, "trial_id": "mdp_trial_1", "block": "test", "trialIndex": 6, "score": -20, "costs": 0, "simulationMode": [null, null, null, null, null], "rewards": [-2, -4, 6, 14, -34], "path": ["0", "0", "1", "2", "3", "4", "5"], "rt": [1687, 122, 660, 284, 154], "actions": ["up", "up", "up", "right", "up"], "actionTimes": [4144, 4849, 6076, 6957, 7695], "queries": {"click": {"state": {"target": [], "time": []}, "edge": {"target": [], "time": []}}, "mouseover": {"state": {"target": [], "time": []}, "edge": {"target": [], "time": []}}, "mouseout": {"state": {"target": ["0"], "time": [9218]}, "edge": {"target": [], "time": []}}}, "displayed_time": "16.70", "trialTime": 19134, "trial_type": "mouselab-mdp", "trial_index": 21, "time_elapsed": 998745, "internal_node_id": "0.0-4.0-1.0-0.0"}}, {"uniqueid": "w61816170:a26130742", "current_trial": 22, "dateTime": 1691143101044, "trialdata": {"revealed_states": [], "clicked_states": [], "num_clicks_accrued": [0, 0, 0, 0, 0, 0, 0, 0, 0, 0, 0, 0, 0], "stateRewards": ["", -2, 1, -7, 9, 8, 25, 61, -7, -17, 69, -81, 1, 4, -4, -11, 16, 67, 44, 3, 6, -45, -54, -2, 3, 6, -11, -15, 32, -47, 3, -39, -6, -88], "withholdReward": false, "trial_id": "mdp_trial_2", "block": "test", "trialIndex": 7, "score": -19, "costs": 0, "simulationMode": [null, null, null, null, null], "rewards": [-2, 3, 6, -11, -15], "path": ["0", "0", "23", "24", "25", "26", "27"], "rt": [213, 304, 233, 184, 197], "actions": ["left", "left", "left", "up", "up"], "actionTimes": [2520, 3409, 4259, 4999, 5759], "queries": {"click": {"state": {"target": [], "time": []}, "edge": {"target": [], "time": []}}, "mouseover": {"state": {"target": [], "time": []}, "edge": {"target": [], "time": []}}, "mouseout": {"state": {"target": ["0", "0"], "time": [738, 7132]}, "edge": {"target": [], "time": []}}}, "displayed_time": "16.64", "trialTime": 18722, "trial_type": "mouselab-mdp", "trial_index": 22, "time_elapsed": 1018932, "internal_node_id": "0.0-4.0-1.0-1.0"}}, {"uniqueid": "w61816170:a26130742", "current_trial": 23, "dateTime": 1691143129175, "trialdata": {"revealed_states": [], "clicked_states": ["12", "13", "14", "1", "2", "23", "24", "25", "30", "15", "16"], "num_clicks_accrued": [0, 0, 0, 0, 0, 0, 0, 0, 0, 0, 0, 0, 0], "stateRewards": ["", -1, 1, -5, -6, -78, 47, -13, 12, 48, -88, 20, 2, -3, -2, 13, -20, 37, -57, 14, -38, 30, 31, -2, -2, 8, 2, -23, 78, 28, 12, -74, -88, 8], "withholdReward": false, "trial_id": "mdp_trial_3", "block": "test", "trialIndex": 8, "score": 28.55, "costs": -7.449999999999999, "simulationMode": [null, null, null, null, null, null], "rewards": [-1, 1, -5, -6, 47], "path": ["0", "0", "1", "2", "3", "4", "6"], "rt": [18915, 173, 123, 1, 90, 110], "actions": ["up", "up", "up", "up", "right", "right"], "actionTimes": [21255, 21470, 22176, 22798, 23467, 24157], "queries": {"click": {"state": {"target": ["12", "13", "14", "1", "2", "23", "24", "25", "30", "15", "16"], "time": [4223, 5946, 7265, 8669, 9847, 11235, 12344, 13470, 14679, 17125, 18463]}, "edge": {"target": [], "time": []}}, "mouseover": {"state": {"target": ["12", "12", "13", "14", "1", "2", "23", "24", "25", "30", "13", "14", "15", "16", "12", "2"], "time": [3490, 3796, 5472, 6718, 8241, 9561, 10803, 11934, 13110, 14240, 15613, 15819, 16678, 17884, 20380, 20801]}, "edge": {"target": [], "time": []}}, "mouseout": {"state": {"target": ["0", "12", "12", "13", "14", "1", "2", "2", "23", "24", "25", "30", "24", "13", "14", "15", "16", "15", "12", "2"], "time": [514, 3558, 5271, 6606, 8043, 9251, 10114, 10615, 11868, 13027, 14119, 15383, 15515, 15679, 16614, 17814, 19048, 20015, 20443, 20863]}, "edge": {"target": [], "time": []}}}, "displayed_time": "24.71", "trialTime": 27269, "trial_type": "mouselab-mdp", "trial_index": 23, "time_elapsed": 1047064, "internal_node_id": "0.0-4.0-1.0-2.0"}}, {"uniqueid": "w61816170:a26130742", "current_trial": 24, "dateTime": 1691143161027, "trialdata": {"revealed_states": [], "clicked_states": ["1", "2", "3", "8", "10", "23", "24", "25", "26", "28", "15", "14", "12"], "num_clicks_accrued": [0, 0, 0, 0, 0, 0, 0, 0, 0, 0, 0, 0, 0], "stateRewards": ["", -1, -3, 1, -4, -48, -63, -49, -2, -84, -19, 65, 2, -2, -2, -12, -4, 59, 9, 6, 75, 69, -13, -1, -3, -3, -2, -37, -68, -36, 13, 32, 18, -14], "withholdReward": false, "trial_id": "mdp_trial_4", "block": "test", "trialIndex": 9, "score": 61.25, "costs": -11.75, "simulationMode": [null, null, null, null, null], "rewards": [2, -2, -2, 6, 69], "path": ["0", "0", "12", "13", "14", "19", "21"], "rt": [21645, 80, 277, 47, 278], "actions": ["right", "right", "right", "down", "down"], "actionTimes": [24359, 25004, 25879, 26571, 27447], "queries": {"click": {"state": {"target": ["1", "2", "3", "8", "10", "23", "24", "25", "26", "28", "15", "14", "12"], "time": [3818, 4912, 5975, 6992, 8069, 11324, 12508, 13702, 14828, 15920, 20044, 21386, 23182]}, "edge": {"target": [], "time": []}}, "mouseover": {"state": {"target": ["1", "0", "1", "2", "3", "8", "10", "23", "23", "24", "25", "26", "28", "30", "31", "18", "15", "15", "14", "13", "12", "0"], "time": [2847, 2982, 3223, 4502, 5517, 6541, 7585, 8822, 10083, 12136, 13186, 14381, 15495, 16769, 19142, 19270, 19382, 19606, 20953, 22199, 22515, 23889]}, "edge": {"target": [], "time": []}}, "mouseout": {"state": {"target": ["3", "2", "1", "1", "0", "1", "2", "3", "8", "10", "23", "23", "24", "25", "26", "28", "30", "31", "18", "15", "15", "14", "13", "12", "0"], "time": [1037, 1094, 1205, 2923, 3172, 4045, 5447, 6478, 7516, 8684, 9882, 12015, 13119, 13967, 15427, 16410, 19089, 19203, 19325, 19436, 20886, 22077, 22380, 23876, 23961]}, "edge": {"target": [], "time": []}}}, "displayed_time": "28.04", "trialTime": 30920, "trial_type": "mouselab-mdp", "trial_index": 24, "time_elapsed": 1078916, "internal_node_id": "0.0-4.0-1.0-3.0"}}, {"uniqueid": "w61816170:a26130742", "current_trial": 25, "dateTime": 1691143181538, "trialdata": {"revealed_states": [], "clicked_states": ["1", "10"], "num_clicks_accrued": [0, 0, 0, 0, 0, 0, 0, 0, 0, 0, 0, 0, 0], "stateRewards": ["", 1, 1, -6, -2, 7, 77, 3, 16, -16, 66, 31, -1, 3, -8, -6, 33, -50, -48, 7, -60, -66, 36, 2, -3, 3, -7, -12, -61, -79, -4, 8, 74, -70], "withholdReward": false, "trial_id": "mdp_trial_5", "block": "test", "trialIndex": 10, "score": 76.1, "costs": -1.9, "simulationMode": [null, null, null, null, null, null], "rewards": [1, 1, -6, 16, 66], "path": ["0", "0", "1", "2", "3", "8", "10"], "rt": [4449, 481, 332, 146, 533, 365], "actions": ["up", "up", "up", "up", "left", "down"], "actionTimes": [6554, 7074, 8034, 8780, 9919, 10894], "queries": {"click": {"state": {"target": ["1", "10"], "time": [3112, 4254]}, "edge": {"target": [], "time": []}}, "mouseover": {"state": {"target": ["1", "10", "3"], "time": [2575, 3802, 4974]}, "edge": {"target": [], "time": []}}, "mouseout": {"state": {"target": ["0", "1", "10", "3", "2", "1", "0"], "time": [832, 3676, 4908, 13237, 13739, 13818, 13929]}, "edge": {"target": [], "time": []}}}, "displayed_time": "16.80", "trialTime": 19098, "trial_type": "mouselab-mdp", "trial_index": 25, "time_elapsed": 1099426, "internal_node_id": "0.0-4.0-1.0-4.0"}}, {"uniqueid": "w61816170:a26130742", "current_trial": 26, "dateTime": 1691143204587, "trialdata": {"revealed_states": [], "clicked_states": ["13", "15", "16", "18", "7"], "num_clicks_accrued": [0, 0, 0, 0, 0, 0, 0, 0, 0, 0, 0, 0, 0], "stateRewards": ["", 2, 3, -1, 16, -78, -11, 46, 2, -20, 79, -67, 2, 3, 2, 11, -83, -42, -58, -11, -67, -22, 55, 2, -1, -1, -16, -83, -82, 23, -11, -29, 13, 13], "withholdReward": false, "trial_id": "mdp_trial_6", "block": "test", "trialIndex": 11, "score": 0.6500000000000004, "costs": -8.35, "simulationMode": [null, null, null, null, null], "rewards": [2, 3, -1, 16, -11], "path": ["0", "0", "1", "2", "3", "4", "6"], "rt": [13863, 103, 2, 96, 142], "actions": ["up", "up", "up", "right", "right"], "actionTimes": [15898, 16600, 17176, 17814, 18532], "queries": {"click": {"state": {"target": ["13", "15", "16", "18", "7"], "time": [3319, 4575, 5758, 8729, 11685]}, "edge": {"target": [], "time": []}}, "mouseover": {"state": {"target": ["12", "13", "15", "16", "18", "2", "2", "7", "4", "28", "1"], "time": [2745, 2924, 3911, 5287, 6662, 9778, 10055, 11297, 12321, 14987, 15254]}, "edge": {"target": [], "time": []}}, "mouseout": {"state": {"target": ["1", "1", "12", "13", "15", "16", "18", "2", "2", "7", "4", "7", "28", "1", "2", "1", "31"], "time": [398, 842, 2861, 3582, 5189, 6018, 8982, 9855, 11216, 12313, 14467, 14887, 15189, 20558, 20627, 21316, 21410]}, "edge": {"target": [], "time": []}}}, "displayed_time": "19.11", "trialTime": 22161, "trial_type": "mouselab-mdp", "trial_index": 26, "time_elapsed": 1122476, "internal_node_id": "0.0-4.0-1.0-5.0"}}, {"uniqueid": "w61816170:a26130742", "current_trial": 27, "dateTime": 1691143224205, "trialdata": {"revealed_states": [], "clicked_states": ["24"], "num_clicks_accrued": [0, 0, 0, 0, 0, 0, 0, 0, 0, 0, 0, 0, 0], "stateRewards": ["", -1, 2, 6, 11, 21, -21, -21, -6, 48, -71, 88, -1, -3, 3, 7, 64, 2, 9, -4, 37, -67, 72, 2, 2, -8, -8, -10, 71, -40, -3, 73, 80, 47], "withholdReward": false, "trial_id": "mdp_trial_7", "block": "test", "trialIndex": 12, "score": 72.65, "costs": -0.35, "simulationMode": [null, null, null, null, null], "rewards": [2, 2, -8, -3, 80], "path": ["0", "0", "23", "24", "25", "30", "32"], "rt": [2544, 1, 88, 4433, 489], "actions": ["left", "left", "left", "down", "down"], "actionTimes": [4554, 5139, 5806, 10889, 11983], "queries": {"click": {"state": {"target": ["24"], "time": [3201]}, "edge": {"target": [], "time": []}}, "mouseover": {"state": {"target": ["23", "0", "23", "24"], "time": [2134, 2369, 2656, 2815]}, "edge": {"target": [], "time": []}}, "mouseout": {"state": {"target": ["1", "23", "0", "23", "24", "24", "30", "32", "30"], "time": [721, 2317, 2600, 2734, 3956, 7274, 8349, 8538, 14370]}, "edge": {"target": [], "time": []}}}, "displayed_time": "16.68", "trialTime": 18127, "trial_type": "mouselab-mdp", "trial_index": 27, "time_elapsed": 1142093, "internal_node_id": "0.0-4.0-1.0-6.0"}}, {"uniqueid": "w61816170:a26130742", "current_trial": 28, "dateTime": 1691143250413, "trialdata": {"revealed_states": [], "clicked_states": ["28", "29", "25", "24", "30", "31"], "num_clicks_accrued": [0, 0, 0, 0, 0, 0, 0, 0, 0, 0, 0, 0, 0], "stateRewards": ["", -2, 1, 6, -2, -10, -78, -69, 14, -15, 7, -1, 1, -1, -2, 13, 77, 32, 87, 5, -74, 30, -26, 1, 3, 4, 12, 39, 54, -43, 2, 10, 23, 13], "withholdReward": false, "trial_id": "mdp_trial_8", "block": "test", "trialIndex": 13, "score": 64.7, "costs": -9.299999999999999, "simulationMode": [null, null, null, null, null, null], "rewards": [1, 3, 4, 12, 54], "path": ["0", "0", "23", "24", "25", "26", "28"], "rt": [13470, 377, 3, 1, 215, 101], "actions": ["left", "left", "left", "left", "up", "right"], "actionTimes": [15808, 16226, 16864, 17575, 18394, 19061], "queries": {"click": {"state": {"target": ["28", "29", "25", "24", "30", "31"], "time": [3795, 7033, 10726, 12251, 13716, 15061]}, "edge": {"target": [], "time": []}}, "mouseover": {"state": {"target": ["23", "28", "29", "27", "26", "25", "24", "30", "31"], "time": [3195, 3380, 4525, 8007, 10103, 10244, 11448, 13303, 14602]}, "edge": {"target": [], "time": []}}, "mouseout": {"state": {"target": ["1", "0", "23", "28", "29", "27", "26", "25", "24", "30", "31"], "time": [988, 3142, 3262, 4397, 7302, 10046, 10161, 11437, 13106, 14532, 22900]}, "edge": {"target": [], "time": []}}}, "displayed_time": "19.67", "trialTime": 23987, "trial_type": "mouselab-mdp", "trial_index": 28, "time_elapsed": 1168302, "internal_node_id": "0.0-4.0-1.0-7.0"}}, {"uniqueid": "w61816170:a26130742", "current_trial": 29, "dateTime": 1691143275712, "trialdata": {"revealed_states": [], "clicked_states": ["15", "14", "20", "22", "17", "4"], "num_clicks_accrued": [0, 0, 0, 0, 0, 0, 0, 0, 0, 0, 0, 0, 0], "stateRewards": ["", -2, -1, -5, 10, -36, -70, 68, -9, 86, 71, -10, 2, -4, 7, -7, 66, 44, -66, -13, -69, 43, 15, -2, 2, 6, -13, 62, 57, 50, -10, -69, 42, -72], "withholdReward": false, "trial_id": "mdp_trial_9", "block": "test", "trialIndex": 14, "score": -78.5, "costs": -10.500000000000002, "simulationMode": [null, null, null, null, null], "rewards": [-2, -1, -5, 10, -70], "path": ["0", "0", "1", "2", "3", "4", "6"], "rt": [14191, 5, 213, 3, 363], "actions": ["up", "up", "up", "right", "right"], "actionTimes": [17209, 17798, 18600, 19179, 20115], "queries": {"click": {"state": {"target": ["15", "14", "20", "22", "17", "4"], "time": [4275, 5384, 6581, 9504, 12469, 15619]}, "edge": {"target": [], "time": []}}, "mouseover": {"state": {"target": ["15", "15", "14", "20", "19", "22", "14", "17", "4", "8"], "time": [3595, 3876, 5014, 6039, 7344, 7421, 11123, 11313, 13666, 16317]}, "edge": {"target": [], "time": []}}, "mouseout": {"state": {"target": ["31", "23", "0", "15", "15", "14", "14", "20", "19", "22", "14", "17", "4", "8", "10", "30"], "time": [977, 1071, 3531, 3649, 4485, 5614, 5970, 7330, 7413, 11115, 11187, 13223, 16254, 21323, 22278, 22676]}, "edge": {"target": [], "time": []}}}, "displayed_time": "20.67", "trialTime": 23263, "trial_type": "mouselab-mdp", "trial_index": 29, "time_elapsed": 1193600, "internal_node_id": "0.0-4.0-1.0-8.0"}}, {"uniqueid": "w61816170:a26130742", "current_trial": 30, "dateTime": 1691143383185, "trialdata": {"revealed_states": [], "clicked_states": ["1", "3"], "num_clicks_accrued": [0, 0, 0, 0, 0, 0, 0, 0, 0, 0, 0, 0, 0], "stateRewards": ["", -2, -1, -2, -15, 87, 57, 29, -10, 77, -80, -7, 1, -3, 6, 14, -11, 87, -59, 4, -71, 16, -11, 2, 2, -7, 2, -47, 61, 50, 14, -20, 17, 81], "withholdReward": false, "trial_id": "mdp_trial_10", "block": "test", "trialIndex": 15, "score": -95.7, "costs": -0.7, "simulationMode": [null, null, null, null, null], "rewards": [-2, -1, -2, -10, -80], "path": ["0", "0", "1", "2", "3", "8", "10"], "rt": [11255, 214, 141, 154, 700], "actions": ["up", "up", "up", "left", "down"], "actionTimes": [96566, 97344, 98099, 98831, 100140], "queries": {"click": {"state": {"target": ["1", "3"], "time": [88139, 89375]}, "edge": {"target": [], "time": []}}, "mouseover": {"state": {"target": ["1", "2", "3", "8", "8", "3"], "time": [87593, 88751, 89114, 92326, 92650, 95942]}, "edge": {"target": [], "time": []}}, "mouseout": {"state": {"target": ["1", "1", "2", "3", "8", "8", "3", "2"], "time": [1049, 88614, 88883, 92269, 92516, 95893, 96123, 104377]}, "edge": {"target": [], "time": []}}}, "displayed_time": "103.29", "trialTime": 105899, "trial_type": "mouselab-mdp", "trial_index": 30, "time_elapsed": 1301073, "internal_node_id": "0.0-4.0-1.0-9.0"}}, {"uniqueid": "w61816170:a26130742", "current_trial": 31, "dateTime": 1691143407316, "trialdata": {"revealed_states": [], "clicked_states": ["26", "28", "25", "29", "2", "4", "8"], "num_clicks_accrued": [0, 0, 0, 0, 0, 0, 0, 0, 0, 0, 0, 0, 0], "stateRewards": ["", -1, -3, -3, 1, -38, 2, -53, -2, -1, -81, 70, -1, 1, -5, -9, 46, 15, 35, -1, -22, 38, 59, -2, 4, -8, 13, 1, -83, -43, 4, 76, 13, 48], "withholdReward": false, "trial_id": "mdp_trial_11", "block": "test", "trialIndex": 16, "score": -2.25, "costs": -10.250000000000002, "simulationMode": [null, null, null, null, null], "rewards": [-2, 4, -8, 13, 1], "path": ["0", "0", "23", "24", "25", "26", "27"], "rt": [14549, 30, 25, 648, 305], "actions": ["left", "left", "left", "up", "up"], "actionTimes": [17197, 17826, 18458, 19713, 20587], "queries": {"click": {"state": {"target": ["26", "28", "25", "29", "2", "4", "8"], "time": [4033, 5184, 8787, 10114, 13197, 14374, 15604]}, "edge": {"target": [], "time": []}}, "mouseover": {"state": {"target": ["23", "28", "26", "26", "28", "27", "27", "25", "29", "31", "24", "2", "4", "3", "8"], "time": [3188, 3312, 3388, 3670, 4730, 5790, 6111, 7532, 9653, 11023, 12259, 12687, 13805, 14920, 14996]}, "edge": {"target": [], "time": []}}, "mouseout": {"state": {"target": ["7", "23", "28", "26", "26", "28", "27", "27", "25", "29", "31", "24", "2", "4", "3", "8", "1", "12"], "time": [1308, 3255, 3370, 3448, 4716, 5401, 5856, 7204, 9521, 10667, 12245, 12322, 13792, 14909, 14986, 16460, 22401, 22484]}, "edge": {"target": [], "time": []}}}, "displayed_time": "21.19", "trialTime": 22955, "trial_type": "mouselab-mdp", "trial_index": 31, "time_elapsed": 1325205, "internal_node_id": "0.0-4.0-1.0-10.0"}}, {"uniqueid": "w61816170:a26130742", "current_trial": 32, "dateTime": 1691143442592, "trialdata": {"revealed_states": [], "clicked_states": ["13", "14", "15"], "num_clicks_accrued": [0, 0, 0, 0, 0, 0, 0, 0, 0, 0, 0, 0, 0], "stateRewards": ["", -2, -4, -6, 12, -58, -70, -80, 2, 16, -88, -62, 1, 2, -5, 11, 77, -35, -44, -5, 18, -83, 87, 1, -3, -5, 13, -44, -21, -86, 10, -52, 8, 29], "withholdReward": false, "trial_id": "mdp_trial_12", "block": "test", "trialIndex": 17, "score": 83.15, "costs": -2.8499999999999996, "simulationMode": [null, null, null, null, null], "rewards": [1, 2, -5, 11, 77], "path": ["0", "0", "12", "13", "14", "15", "16"], "rt": [6208, 418, 602, 549, 461], "actions": ["right", "right", "right", "up", "up"], "actionTimes": [8848, 9825, 11055, 12165, 13364], "queries": {"click": {"state": {"target": ["13", "14", "15"], "time": [4150, 5953, 7044]}, "edge": {"target": [], "time": []}}, "mouseover": {"state": {"target": ["12", "13", "14", "15", "19"], "time": [3514, 3666, 5319, 6574, 7693]}, "edge": {"target": [], "time": []}}, "mouseout": {"state": {"target": ["13", "0", "12", "13", "14", "15", "14", "19", "22"], "time": [31, 2918, 3611, 5121, 6502, 7503, 7625, 8267, 14921]}, "edge": {"target": [], "time": []}}}, "displayed_time": "18.07", "trialTime": 33884, "trial_type": "mouselab-mdp", "trial_index": 32, "time_elapsed": 1360478, "internal_node_id": "0.0-4.0-1.0-11.0"}}, {"uniqueid": "w61816170:a26130742", "current_trial": 33, "dateTime": 1691143463885, "trialdata": {"revealed_states": [], "clicked_states": ["2", "8", "4", "14", "26", "30"], "num_clicks_accrued": [0, 0, 0, 0, 0, 0, 0, 0, 0, 0, 0, 0, 0], "stateRewards": ["", 1, 1, -3, 2, 22, -25, -11, -5, 50, 49, 3, 1, -1, 8, 14, -85, -30, 57, -6, -39, -16, 59, -2, -1, 5, 5, 59, -16, 8, 4, 67, 56, -9], "withholdReward": false, "trial_id": "mdp_trial_13", "block": "test", "trialIndex": 18, "score": 58.5, "costs": -7.5, "simulationMode": [null, null, null, null, null], "rewards": [-2, -1, 5, 5, 59], "path": ["0", "0", "23", "24", "25", "26", "27"], "rt": [9394, 3, 453, 661, 150], "actions": ["left", "left", "left", "up", "up"], "actionTimes": [11957, 12530, 13588, 14844, 15947], "queries": {"click": {"state": {"target": ["2", "8", "4", "14", "26", "30"], "time": [3450, 4624, 5798, 7222, 8676, 9925]}, "edge": {"target": [], "time": []}}, "mouseover": {"state": {"target": ["1", "2", "8", "3", "4", "14", "26", "30", "31"], "time": [2767, 2978, 4188, 5241, 5316, 6760, 8469, 9302, 11041]}, "edge": {"target": [], "time": []}}, "mouseout": {"state": {"target": ["0", "1", "2", "8", "3", "4", "14", "26", "26", "30", "31"], "time": [2693, 2910, 4064, 5171, 5306, 6338, 7480, 8938, 9236, 11025, 11096]}, "edge": {"target": [], "time": []}}}, "displayed_time": "18.05", "trialTime": 19715, "trial_type": "mouselab-mdp", "trial_index": 33, "time_elapsed": 1381773, "internal_node_id": "0.0-4.0-1.0-12.0"}}, {"uniqueid": "w61816170:a26130742", "current_trial": 34, "dateTime": 1691143485035, "trialdata": {"revealed_states": [], "clicked_states": [], "num_clicks_accrued": [0, 0, 0, 0, 0, 0, 0, 0, 0, 0, 0, 0, 0], "stateRewards": ["", 2, 3, 8, 11, 25, -80, 6, -4, -56, 84, -23, -2, -4, -3, 4, -51, -9, -61, -15, -64, 67, -35, 1, -1, -7, -6, 83, 59, -15, 12, -79, 56, 41], "withholdReward": false, "trial_id": "mdp_trial_14", "block": "test", "trialIndex": 19, "score": -88, "costs": 0, "simulationMode": [null, null, null, null, null], "rewards": [-2, -4, -3, -15, -64], "path": ["0", "0", "12", "13", "14", "19", "20"], "rt": [7959, 36, 108, 456, 2289], "actions": ["right", "right", "right", "down", "right"], "actionTimes": [9967, 10598, 11389, 12445, 15290], "queries": {"click": {"state": {"target": [], "time": []}, "edge": {"target": [], "time": []}}, "mouseover": {"state": {"target": ["22", "19", "14", "13", "12", "13", "14"], "time": [4771, 4980, 5247, 5435, 5845, 5958, 6297]}, "edge": {"target": [], "time": []}}, "mouseout": {"state": {"target": ["0", "22", "19", "14", "13", "12", "13", "14"], "time": [2148, 4915, 5048, 5380, 5506, 5898, 6079, 7705]}, "edge": {"target": [], "time": []}}}, "displayed_time": "16.50", "trialTime": 18486, "trial_type": "mouselab-mdp", "trial_index": 34, "time_elapsed": 1402924, "internal_node_id": "0.0-4.0-1.0-13.0"}}, {"uniqueid": "w61816170:a26130742", "current_trial": 35, "dateTime": 1691143506471, "trialdata": {"revealed_states": [], "clicked_states": ["2", "8", "4", "15", "19", "30", "26"], "num_clicks_accrued": [0, 0, 0, 0, 0, 0, 0, 0, 0, 0, 0, 0, 0], "stateRewards": ["", -2, -2, -7, -13, -10, 49, -68, -1, 84, 70, 88, 1, 4, 4, 12, -57, 25, 30, 8, -1, -77, 57, 2, 3, 2, 3, -18, -80, 23, -15, -41, 70, 11], "withholdReward": false, "trial_id": "mdp_trial_15", "block": "test", "trialIndex": 20, "score": -45.65, "costs": -9.65, "simulationMode": [null, null, null, null, null], "rewards": [1, 4, 4, 12, -57], "path": ["0", "0", "12", "13", "14", "15", "16"], "rt": [10684, 371, 164, 200, 215], "actions": ["right", "right", "right", "up", "up"], "actionTimes": [13711, 14695, 15425, 16214, 17002], "queries": {"click": {"state": {"target": ["2", "8", "4", "15", "19", "30", "26"], "time": [4472, 5475, 7181, 8562, 9717, 11191, 12363]}, "edge": {"target": [], "time": []}}, "mouseover": {"state": {"target": ["1", "2", "8", "4", "6", "4", "15", "19", "25", "30", "25", "26", "24"], "time": [3790, 3911, 5021, 6165, 6313, 6560, 8090, 9144, 10556, 10826, 11687, 11762, 13082]}, "edge": {"target": [], "time": []}}, "mouseout": {"state": {"target": ["0", "0", "1", "2", "8", "4", "6", "4", "15", "19", "25", "30", "25", "26", "24"], "time": [1584, 3735, 3855, 4678, 6028, 6237, 6500, 7727, 9007, 10359, 10815, 11672, 11755, 13074, 13145]}, "edge": {"target": [], "time": []}}}, "displayed_time": "18.25", "trialTime": 19612, "trial_type": "mouselab-mdp", "trial_index": 35, "time_elapsed": 1424360, "internal_node_id": "0.0-4.0-1.0-14.0"}}, {"uniqueid": "w61816170:a26130742", "current_trial": 36, "dateTime": 1691143531636, "trialdata": {"revealed_states": [], "clicked_states": ["14", "2", "3", "26", "30", "31"], "num_clicks_accrued": [0, 0, 0, 0, 0, 0, 0, 0, 0, 0, 0, 0, 0], "stateRewards": ["", -2, 2, -2, -7, -50, -62, -45, 7, 36, -24, -72, -1, -1, 8, -1, -67, 20, -52, 2, 35, -50, 80, -1, 1, 6, -6, -70, 6, 88, 8, -47, 74, -19], "withholdReward": false, "trial_id": "mdp_trial_16", "block": "test", "trialIndex": 21, "score": -12.5, "costs": -7.5, "simulationMode": [null, null, null, null, null, null], "rewards": [-1, 1, 6, 8, -19], "path": ["0", "0", "23", "24", "25", "30", "33"], "rt": [11651, 1121, 929, 136, 65, 267], "actions": ["left", "left", "left", "left", "down", "left"], "actionTimes": [15126, 16284, 17802, 18601, 19229, 20094], "queries": {"click": {"state": {"target": ["14", "2", "3", "26", "30", "31"], "time": [5162, 6548, 7658, 8945, 10085, 12371]}, "edge": {"target": [], "time": []}}, "mouseover": {"state": {"target": ["13", "14", "18", "7", "2", "3", "26", "25", "30", "31", "32"], "time": [4524, 4646, 5784, 5864, 6181, 7222, 8526, 9555, 9641, 11908, 12976]}, "edge": {"target": [], "time": []}}, "mouseout": {"state": {"target": ["0", "13", "14", "18", "7", "2", "3", "3", "26", "25", "30", "31", "32"], "time": [3608, 4596, 5769, 5856, 5926, 7150, 7880, 8169, 9484, 9623, 11840, 12903, 21783]}, "edge": {"target": [], "time": []}}}, "displayed_time": "20.66", "trialTime": 22898, "trial_type": "mouselab-mdp", "trial_index": 36, "time_elapsed": 1449525, "internal_node_id": "0.0-4.0-1.0-15.0"}}, {"uniqueid": "w61816170:a26130742", "current_trial": 37, "dateTime": 1691143554560, "trialdata": {"revealed_states": [], "clicked_states": ["3", "11", "4", "26", "30"], "num_clicks_accrued": [0, 0, 0, 0, 0, 0, 0, 0, 0, 0, 0, 0, 0], "stateRewards": ["", -1, -1, 7, -15, -43, -21, -84, -9, -45, -66, 2, 1, -2, 2, 8, -27, 44, -52, -5, -84, 11, 53, 1, 4, -4, 16, 83, -82, -15, -16, 68, -43, 81], "withholdReward": false, "trial_id": "mdp_trial_17", "block": "test", "trialIndex": 22, "score": 92.25, "costs": -7.749999999999999, "simulationMode": [null, null, null, null, null], "rewards": [1, 4, -4, 16, 83], "path": ["0", "0", "23", "24", "25", "26", "27"], "rt": [10454, 451, 83, 286, 142], "actions": ["left", "left", "left", "up", "up"], "actionTimes": [13056, 14084, 14752, 15633, 16338], "queries": {"click": {"state": {"target": ["3", "11", "4", "26", "30"], "time": [3324, 4671, 8328, 9745, 11192]}, "edge": {"target": [], "time": []}}, "mouseover": {"state": {"target": ["3", "8", "11", "8", "4", "4", "10", "26", "25", "30", "24", "23"], "time": [2760, 3891, 4306, 5371, 5566, 5944, 9054, 9315, 10501, 10696, 12117, 12683]}, "edge": {"target": [], "time": []}}, "mouseout": {"state": {"target": ["22", "0", "3", "8", "11", "8", "4", "4", "10", "26", "25", "30", "24", "23"], "time": [255, 2679, 3878, 3962, 5358, 5437, 5762, 8976, 9129, 10433, 10566, 11984, 12191, 12943]}, "edge": {"target": [], "time": []}}}, "displayed_time": "19.46", "trialTime": 20844, "trial_type": "mouselab-mdp", "trial_index": 37, "time_elapsed": 1472449, "internal_node_id": "0.0-4.0-1.0-16.0"}}, {"uniqueid": "w61816170:a26130742", "current_trial": 38, "dateTime": 1691143574616, "trialdata": {"revealed_states": [], "clicked_states": ["19", "15", "2", "4", "8", "26", "30"], "num_clicks_accrued": [0, 0, 0, 0, 0, 0, 0, 0, 0, 0, 0, 0, 0], "stateRewards": ["", -1, 2, 7, 8, 75, 67, -11, 6, 52, -17, 38, -1, 4, -8, 14, 74, -37, -17, -12, 52, 55, 71, -2, -1, -5, 2, 21, 6, -88, -14, 64, -61, -47], "withholdReward": false, "trial_id": "mdp_trial_18", "block": "test", "trialIndex": 23, "score": -37.65, "costs": -9.65, "simulationMode": [null, null, null, null, null], "rewards": [-1, 4, -8, 14, -37], "path": ["0", "0", "12", "13", "14", "15", "17"], "rt": [9948, 4, 197, 130, 468], "actions": ["right", "right", "right", "up", "right"], "actionTimes": [12532, 13159, 13966, 14694, 15736], "queries": {"click": {"state": {"target": ["19", "15", "2", "4", "8", "26", "30"], "time": [4511, 5676, 7247, 8456, 9661, 11128, 12231]}, "edge": {"target": [], "time": []}}, "mouseover": {"state": {"target": ["22", "19", "14", "15", "2", "3", "4", "3", "8", "26", "25", "30"], "time": [3845, 3978, 5068, 5204, 6793, 7843, 8048, 9105, 9249, 10803, 11678, 11896]}, "edge": {"target": [], "time": []}}, "mouseout": {"state": {"target": ["0", "0", "22", "19", "14", "15", "2", "3", "4", "3", "8", "26", "25", "30"], "time": [1235, 3317, 3916, 5061, 5141, 5934, 7513, 7979, 8684, 9178, 10292, 11672, 11770, 12405]}, "edge": {"target": [], "time": []}}}, "displayed_time": "17.59", "trialTime": 18795, "trial_type": "mouselab-mdp", "trial_index": 38, "time_elapsed": 1492504, "internal_node_id": "0.0-4.0-1.0-17.0"}}, {"uniqueid": "w61816170:a26130742", "current_trial": 39, "dateTime": 1691143597211, "trialdata": {"revealed_states": [], "clicked_states": ["14", "15", "18", "19", "21"], "num_clicks_accrued": [0, 0, 0, 0, 0, 0, 0, 0, 0, 0, 0, 0, 0], "stateRewards": ["", -2, 3, -5, -7, 66, 43, -60, -4, -70, -75, 4, -1, 2, 2, -13, 54, 11, -40, -1, 77, 32, 15, -2, 3, -8, -9, -35, 83, -27, 6, -74, -34, 44], "withholdReward": false, "trial_id": "mdp_trial_19", "block": "test", "trialIndex": 24, "score": 25.65, "costs": -8.35, "simulationMode": [null, null, null, null, null], "rewards": [-1, 2, 2, -1, 32], "path": ["0", "0", "12", "13", "14", "19", "21"], "rt": [12709, 2, 445, 234, 837], "actions": ["right", "right", "right", "down", "down"], "actionTimes": [15098, 15686, 16708, 17503, 18939], "queries": {"click": {"state": {"target": ["14", "15", "18", "19", "21"], "time": [3993, 5087, 6226, 9106, 10540]}, "edge": {"target": [], "time": []}}, "mouseover": {"state": {"target": ["12", "13", "14", "15", "18", "19", "21", "20"], "time": [3233, 3299, 3633, 4625, 5837, 7350, 10107, 11257]}, "edge": {"target": [], "time": []}}, "mouseout": {"state": {"target": ["25", "33", "30", "31", "23", "0", "12", "13", "14", "15", "18", "19", "21", "20"], "time": [103, 570, 652, 735, 1039, 2628, 3282, 3357, 4619, 5749, 6796, 9981, 10755, 14300]}, "edge": {"target": [], "time": []}}}, "displayed_time": "19.52", "trialTime": 20848, "trial_type": "mouselab-mdp", "trial_index": 39, "time_elapsed": 1515100, "internal_node_id": "0.0-4.0-1.0-18.0"}}, {"uniqueid": "w61816170:a26130742", "current_trial": 40, "dateTime": 1691143640262, "trialdata": {"revealed_states": [], "clicked_states": ["27", "5", "9", "32", "21", "20", "17", "16", "18"], "num_clicks_accrued": [0, 0, 0, 0, 0, 0, 0, 0, 0, 0, 0, 0, 0], "stateRewards": ["", -2, 2, -5, -6, 10, -66, -58, -10, -11, -63, -70, -1, -4, -5, 7, 66, -64, -43, -3, 45, -37, 4, -2, -2, -6, -4, -30, 33, 43, 15, -32, -65, -59], "withholdReward": false, "trial_id": "mdp_trial_20", "block": "test", "trialIndex": 25, "score": 43.650000000000006, "costs": -19.349999999999998, "simulationMode": [null, null, null, null, null], "rewards": [-1, -4, -5, 7, 66], "path": ["0", "0", "12", "13", "14", "15", "16"], "rt": [33482, 109, 133, 411, 109], "actions": ["right", "right", "right", "up", "up"], "actionTimes": [35794, 36465, 37198, 38206, 38870], "queries": {"click": {"state": {"target": ["27", "5", "9", "32", "21", "20", "17", "16", "18"], "time": [4301, 7680, 10756, 15063, 18104, 21720, 25095, 28680, 32101]}, "edge": {"target": [], "time": []}}, "mouseover": {"state": {"target": ["23", "27", "11", "9", "5", "9", "11", "30", "32", "32", "32", "21", "20", "17", "16", "16", "18"], "time": [3518, 3908, 4773, 5167, 6563, 8475, 11453, 11597, 11676, 11984, 14695, 16225, 18940, 22466, 27872, 28192, 29799]}, "edge": {"target": [], "time": []}}, "mouseout": {"state": {"target": ["23", "0", "23", "27", "11", "9", "5", "9", "11", "30", "32", "32", "32", "21", "20", "17", "16", "16", "18"], "time": [744, 961, 3589, 4703, 4837, 6247, 8391, 11439, 11524, 11670, 11858, 14458, 15741, 18811, 22265, 27861, 27948, 29489, 40548]}, "edge": {"target": [], "time": []}}}, "displayed_time": "39.47", "trialTime": 41103, "trial_type": "mouselab-mdp", "trial_index": 40, "time_elapsed": 1558150, "internal_node_id": "0.0-4.0-1.0-19.0"}}, {"uniqueid": "w61816170:a26130742", "current_trial": 41, "dateTime": 1691143660569, "trialdata": {"revealed_states": [], "clicked_states": [], "num_clicks_accrued": [0, 0, 0, 0, 0, 0, 0, 0, 0, 0, 0, 0, 0], "stateRewards": ["", 1, 1, -2, 7, -31, -6, 76, 1, -36, -16, -53, 2, 1, 7, 13, -47, -10, 47, -7, 72, 46, -56, -2, -2, -2, 11, -80, 44, 38, 16, 67, 85, -78], "withholdReward": false, "trial_id": "mdp_trial_21", "block": "test", "trialIndex": 26, "score": 1, "costs": 0, "simulationMode": [null, null, null, null, null], "rewards": [1, 1, -2, 7, -6], "path": ["0", "0", "1", "2", "3", "4", "6"], "rt": [8054, 2, 15, 57, 38], "actions": ["up", "up", "up", "right", "right"], "actionTimes": [11116, 11721, 12334, 13005, 13647], "queries": {"click": {"state": {"target": [], "time": []}, "edge": {"target": [], "time": []}}, "mouseover": {"state": {"target": ["1", "2", "3", "6", "7", "1", "12"], "time": [4869, 4984, 5152, 6003, 10011, 10255, 10684]}, "edge": {"target": [], "time": []}}, "mouseout": {"state": {"target": ["0", "1", "2", "3", "6", "7", "1", "12"], "time": [2181, 4924, 5046, 5272, 9954, 10074, 10620, 10745]}, "edge": {"target": [], "time": []}}}, "displayed_time": "17.38", "trialTime": 19230, "trial_type": "mouselab-mdp", "trial_index": 41, "time_elapsed": 1578458, "internal_node_id": "0.0-4.0-1.0-20.0"}}, {"uniqueid": "w61816170:a26130742", "current_trial": 42, "dateTime": 1691143683007, "trialdata": {"revealed_states": [], "clicked_states": ["14", "17", "16", "18"], "num_clicks_accrued": [0, 0, 0, 0, 0, 0, 0, 0, 0, 0, 0, 0, 0], "stateRewards": ["", -1, 4, -5, 9, 29, -75, -42, -16, 24, -28, -41, 2, -3, 1, 10, 60, 47, 55, -1, -53, 22, -40, 2, -3, -6, 4, -26, 44, 54, 15, -76, 42, 14], "withholdReward": false, "trial_id": "mdp_trial_22", "block": "test", "trialIndex": 27, "score": 62.6, "costs": -7.4, "simulationMode": [null, null, null, null, null], "rewards": [2, -3, 1, 10, 60], "path": ["0", "0", "12", "13", "14", "15", "16"], "rt": [13646, 33, 21, 163, 52], "actions": ["right", "right", "right", "up", "up"], "actionTimes": [16276, 16895, 17521, 18300, 18948], "queries": {"click": {"state": {"target": ["14", "17", "16", "18"], "time": [4920, 6437, 9888, 12972]}, "edge": {"target": [], "time": []}}, "mouseover": {"state": {"target": ["13", "14", "14", "17", "16", "18", "15", "14"], "time": [4146, 4267, 4530, 5852, 7108, 10719, 13852, 13984]}, "edge": {"target": [], "time": []}}, "mouseout": {"state": {"target": ["12", "0", "13", "14", "14", "17", "16", "18", "15", "14"], "time": [1277, 3345, 4208, 4411, 5603, 7045, 10516, 13786, 13922, 14061]}, "edge": {"target": [], "time": []}}}, "displayed_time": "19.53", "trialTime": 20696, "trial_type": "mouselab-mdp", "trial_index": 42, "time_elapsed": 1600896, "internal_node_id": "0.0-4.0-1.0-21.0"}}, {"uniqueid": "w61816170:a26130742", "current_trial": 43, "dateTime": 1691143715289, "trialdata": {"revealed_states": [], "clicked_states": ["13", "17", "16", "20", "21", "22"], "num_clicks_accrued": [0, 0, 0, 0, 0, 0, 0, 0, 0, 0, 0, 0, 0], "stateRewards": ["", -2, -3, -3, 9, 79, 67, 22, -15, -56, 27, -85, -2, 4, -4, -15, -20, -32, 60, 15, 71, 57, 17, 1, 2, -8, 15, -37, -81, 82, 15, 21, -3, 2], "withholdReward": false, "trial_id": "mdp_trial_23", "block": "test", "trialIndex": 28, "score": 72.9, "costs": -11.100000000000001, "simulationMode": [null, null, null, null, null, null], "rewards": [-2, 4, -4, 15, 71], "path": ["0", "0", "12", "13", "14", "19", "20"], "rt": [20444, 1237, 13, 71, 202, 149], "actions": ["right", "right", "right", "right", "down", "right"], "actionTimes": [22976, 24251, 24878, 25562, 26374, 27127], "queries": {"click": {"state": {"target": ["13", "17", "16", "20", "21", "22"], "time": [4684, 6221, 10592, 13939, 17332, 21059]}, "edge": {"target": [], "time": []}}, "mouseover": {"state": {"target": ["0", "0", "12", "13", "15", "17", "16", "20", "21", "22", "14"], "time": [3283, 3793, 3867, 3982, 5588, 5737, 6997, 11726, 15095, 18532, 21936]}, "edge": {"target": [], "time": []}}, "mouseout": {"state": {"target": ["14", "0", "0", "0", "12", "13", "15", "17", "16", "20", "21", "22", "14", "14"], "time": [640, 1566, 3343, 3859, 3929, 5398, 5664, 6489, 11224, 15024, 18467, 21921, 22003, 29672]}, "edge": {"target": [], "time": []}}}, "displayed_time": "27.72", "trialTime": 30112, "trial_type": "mouselab-mdp", "trial_index": 43, "time_elapsed": 1633178, "internal_node_id": "0.0-4.0-1.0-22.0"}}, {"uniqueid": "w61816170:a26130742", "current_trial": 44, "dateTime": 1691143740901, "trialdata": {"revealed_states": [], "clicked_states": [], "num_clicks_accrued": [0, 0, 0, 0, 0, 0, 0, 0, 0, 0, 0, 0, 0], "stateRewards": ["", -2, 3, -1, -9, 44, 48, -37, -3, 71, -39, 87, -1, 3, -4, 4, -21, 59, -15, -8, -1, 28, -38, 2, 4, 4, 8, -85, -72, -63, 14, 58, 63, -46], "withholdReward": false, "trial_id": "mdp_trial_24", "block": "test", "trialIndex": 29, "score": 87, "costs": 0, "simulationMode": [null, null, null, null, null], "rewards": [2, 4, 4, 14, 63], "path": ["0", "0", "23", "24", "25", "30", "32"], "rt": [5325, 98, 6, 58, 338], "actions": ["left", "left", "left", "down", "down"], "actionTimes": [11198, 11861, 12597, 13620, 14537], "queries": {"click": {"state": {"target": [], "time": []}, "edge": {"target": [], "time": []}}, "mouseover": {"state": {"target": ["31", "32"], "time": [7472, 9173]}, "edge": {"target": [], "time": []}}, "mouseout": {"state": {"target": ["0", "31", "32"], "time": [6934, 7530, 10608]}, "edge": {"target": [], "time": []}}}, "displayed_time": "21.03", "trialTime": 23697, "trial_type": "mouselab-mdp", "trial_index": 44, "time_elapsed": 1658790, "internal_node_id": "0.0-4.0-1.0-23.0"}}, {"uniqueid": "w61816170:a26130742", "current_trial": 45, "dateTime": 1691143804867, "trialdata": {"revealed_states": [], "clicked_states": ["1", "27", "29", "28", "33", "32", "31", "20", "21", "22", "17", "5", "16", "9"], "num_clicks_accrued": [0, 0, 0, 0, 0, 0, 0, 0, 0, 0, 0, 0, 0], "stateRewards": ["", 1, -3, -2, 14, 49, -40, -39, 2, 26, -61, 73, 1, -4, -8, 12, 79, 29, -65, -13, 55, -26, 27, -1, 3, 3, 9, -17, -60, -18, -8, 35, -88, 69], "withholdReward": false, "trial_id": "mdp_trial_25", "block": "test", "trialIndex": 30, "score": 52.30000000000001, "costs": -27.699999999999992, "simulationMode": [null, null, null, null, null], "rewards": [1, -4, -8, 12, 79], "path": ["0", "0", "12", "13", "14", "15", "16"], "rt": [51467, 42, 1423, 111, 130], "actions": ["right", "right", "right", "up", "up"], "actionTimes": [55608, 56208, 58230, 58928, 59637], "queries": {"click": {"state": {"target": ["1", "27", "29", "28", "33", "32", "31", "20", "21", "22", "17", "5", "16", "9"], "time": [5796, 7705, 10641, 13989, 18183, 21350, 25533, 29176, 32546, 35972, 39652, 43043, 45983, 51260]}, "edge": {"target": [], "time": []}}, "mouseover": {"state": {"target": ["1", "28", "27", "29", "26", "28", "25", "33", "32", "31", "22", "19", "20", "21", "22", "14", "17", "6", "5", "16", "3", "9"], "time": [5203, 7027, 7287, 8719, 11450, 11718, 14819, 15155, 19219, 22220, 26332, 26415, 26610, 29941, 33415, 37161, 37291, 40331, 40636, 44293, 47402, 47540]}, "edge": {"target": [], "time": []}}, "mouseout": {"state": {"target": ["25", "24", "23", "0", "1", "28", "27", "29", "26", "28", "25", "33", "32", "31", "22", "19", "20", "21", "22", "14", "17", "6", "5", "16", "3", "9"], "time": [2444, 2545, 2726, 5146, 6973, 7089, 8596, 11443, 11558, 14813, 14905, 18886, 22038, 26202, 26407, 26482, 29879, 33109, 37140, 37224, 40255, 40399, 43746, 47331, 47471, 52360]}, "edge": {"target": [], "time": []}}}, "displayed_time": "60.24", "trialTime": 62403, "trial_type": "mouselab-mdp", "trial_index": 45, "time_elapsed": 1722755, "internal_node_id": "0.0-4.0-1.0-24.0"}}, {"uniqueid": "w61816170:a26130742", "current_trial": 46, "dateTime": 1691143841727, "trialdata": {"revealed_states": [], "clicked_states": ["16", "5", "9", "11", "6", "17"], "num_clicks_accrued": [0, 0, 0, 0, 0, 0, 0, 0, 0, 0, 0, 0, 0], "stateRewards": ["", 1, 4, 5, 8, -55, -11, 8, 16, -37, 77, -22, -2, 3, -8, -10, 45, 87, -67, 4, 17, -33, -22, -1, -3, 7, 6, -39, -85, 75, -1, 7, -48, 45], "withholdReward": false, "trial_id": "mdp_trial_26", "block": "test", "trialIndex": 31, "score": 57.1, "costs": -12.9, "simulationMode": [null, null, null, null, null], "rewards": [-2, 3, -8, -10, 87], "path": ["0", "0", "12", "13", "14", "15", "17"], "rt": [25464, 622, 185, 210, 20], "actions": ["right", "right", "right", "up", "right"], "actionTimes": [28500, 29750, 30504, 31317, 31969], "queries": {"click": {"state": {"target": ["16", "5", "9", "11", "6", "17"], "time": [4707, 7650, 11279, 15037, 18685, 23033]}, "edge": {"target": [], "time": []}}, "mouseover": {"state": {"target": ["12", "16", "5", "9", "11", "8", "4", "6", "17", "15", "18", "15"], "time": [3855, 4278, 6075, 8563, 12482, 15487, 15623, 15813, 19585, 24052, 24301, 27649]}, "edge": {"target": [], "time": []}}, "mouseout": {"state": {"target": ["16", "18", "0", "12", "16", "5", "9", "11", "8", "4", "6", "17", "15", "18", "15", "17"], "time": [1266, 1350, 3299, 3916, 5712, 8424, 12338, 15453, 15559, 15693, 19218, 24041, 24114, 27598, 27707, 33712]}, "edge": {"target": [], "time": []}}}, "displayed_time": "32.57", "trialTime": 34976, "trial_type": "mouselab-mdp", "trial_index": 46, "time_elapsed": 1759615, "internal_node_id": "0.0-4.0-1.0-25.0"}}, {"uniqueid": "w61816170:a26130742", "current_trial": 47, "dateTime": 1691143886294, "trialdata": {"revealed_states": [], "clicked_states": ["33", "31", "32", "27", "29", "6", "28"], "num_clicks_accrued": [0, 0, 0, 0, 0, 0, 0, 0, 0, 0, 0, 0, 0], "stateRewards": ["", 2, -2, -3, 10, -4, -1, -11, -8, -9, -36, -78, 2, 1, 7, -7, 44, -1, -31, -1, 26, 47, 83, 2, -4, -4, -6, -52, -76, -81, -1, -59, 45, 67], "withholdReward": false, "trial_id": "mdp_trial_27", "block": "test", "trialIndex": 32, "score": 44.95, "costs": -15.05, "simulationMode": [null, null, null, null, null], "rewards": [2, -4, -4, -1, 67], "path": ["0", "0", "23", "24", "25", "30", "33"], "rt": [31567, 243, 534, 134, 341], "actions": ["left", "left", "left", "down", "left"], "actionTimes": [36306, 37134, 38268, 38990, 39938], "queries": {"click": {"state": {"target": ["33", "31", "32", "27", "29", "6", "28"], "time": [6982, 10689, 14256, 18480, 22031, 27335, 30861]}, "edge": {"target": [], "time": []}}, "mouseover": {"state": {"target": ["33", "31", "31", "32", "30", "25", "26", "27", "29", "3", "6", "6", "4", "10", "28"], "time": [6393, 8246, 8549, 11805, 17711, 17784, 17851, 17978, 19644, 22888, 23156, 26912, 29665, 29926, 30228]}, "edge": {"target": [], "time": []}}, "mouseout": {"state": {"target": ["18", "0", "33", "31", "31", "32", "30", "25", "26", "27", "29", "3", "6", "6", "4", "10", "28", "1", "13"], "time": [3262, 6200, 8105, 8312, 11680, 17654, 17769, 17840, 17907, 18738, 22823, 22974, 26645, 29653, 29732, 30048, 41402, 41503, 41754]}, "edge": {"target": [], "time": []}}}, "displayed_time": "40.51", "trialTime": 43147, "trial_type": "mouselab-mdp", "trial_index": 47, "time_elapsed": 1804182, "internal_node_id": "0.0-4.0-1.0-26.0"}}, {"uniqueid": "w61816170:a26130742", "current_trial": 48, "dateTime": 1691143915793, "trialdata": {"revealed_states": [], "clicked_states": ["9", "5", "6", "11"], "num_clicks_accrued": [0, 0, 0, 0, 0, 0, 0, 0, 0, 0, 0, 0, 0], "stateRewards": ["", 1, -2, 4, 7, -43, -83, -60, -5, -86, -80, 83, -1, -2, 6, 11, -15, 21, 13, 9, 29, -49, 11, -1, 4, -6, -11, 87, 40, 63, -8, -39, -11, 62], "withholdReward": false, "trial_id": "mdp_trial_28", "block": "test", "trialIndex": 33, "score": 72.4, "costs": -8.6, "simulationMode": [null, null, null, null, null], "rewards": [1, -2, 4, -5, 83], "path": ["0", "0", "1", "2", "3", "8", "11"], "rt": [18183, 2, 100, 115, 206], "actions": ["up", "up", "up", "left", "left"], "actionTimes": [22732, 23374, 24089, 24798, 25595], "queries": {"click": {"state": {"target": ["9", "5", "6", "11"], "time": [6583, 10526, 13935, 17246]}, "edge": {"target": [], "time": []}}, "mouseover": {"state": {"target": ["1", "9", "5", "6", "3", "8", "11", "10", "27", "27"], "time": [5845, 6186, 7647, 11498, 14568, 14881, 15194, 18018, 19059, 19371]}, "edge": {"target": [], "time": []}}, "mouseout": {"state": {"target": ["0", "0", "1", "9", "5", "6", "3", "8", "11", "10", "27"], "time": [3195, 5785, 5908, 7339, 11428, 14496, 14694, 14942, 17893, 18936, 19118]}, "edge": {"target": [], "time": []}}}, "displayed_time": "26.21", "trialTime": 27900, "trial_type": "mouselab-mdp", "trial_index": 48, "time_elapsed": 1833682, "internal_node_id": "0.0-4.0-1.0-27.0"}}, {"uniqueid": "w61816170:a26130742", "current_trial": 49, "dateTime": 1691143947991, "trialdata": {"revealed_states": [], "clicked_states": ["20", "21", "22", "17", "16", "18"], "num_clicks_accrued": [0, 0, 0, 0, 0, 0, 0, 0, 0, 0, 0, 0, 0], "stateRewards": ["", -1, -3, -7, -4, -85, -70, 79, 8, 84, -66, 42, 2, -2, -3, -16, -54, -66, 68, -3, 21, -14, 7, -2, -1, -3, -8, 75, 80, 86, -7, -84, 73, -16], "withholdReward": false, "trial_id": "mdp_trial_29", "block": "test", "trialIndex": 34, "score": 36.1, "costs": -12.9, "simulationMode": [null, null, null, null, null], "rewards": [2, -2, -3, -16, 68], "path": ["0", "0", "12", "13", "14", "15", "18"], "rt": [24031, 20, 30, 107, 62], "actions": ["right", "right", "right", "up", "left"], "actionTimes": [26047, 26637, 27269, 27963, 28629], "queries": {"click": {"state": {"target": ["20", "21", "22", "17", "16", "18"], "time": [3201, 6952, 10571, 14067, 17545, 21090]}, "edge": {"target": [], "time": []}}, "mouseover": {"state": {"target": ["12", "20", "21", "22", "17", "16", "18", "5"], "time": [2156, 2634, 3975, 7651, 11469, 14766, 18169, 21943]}, "edge": {"target": [], "time": []}}, "mouseout": {"state": {"target": ["11", "8", "11", "10", "0", "12", "20", "21", "22", "17", "16", "18", "5", "13"], "time": [105, 320, 452, 619, 2145, 2212, 3793, 7453, 11285, 14696, 18106, 21615, 25323, 30491]}, "edge": {"target": [], "time": []}}}, "displayed_time": "29.23", "trialTime": 30984, "trial_type": "mouselab-mdp", "trial_index": 49, "time_elapsed": 1865880, "internal_node_id": "0.0-4.0-1.0-28.0"}}, {"uniqueid": "w61816170:a26130742", "current_trial": 50, "dateTime": 1691143985074, "trialdata": {"revealed_states": [], "clicked_states": ["9", "27", "33", "31", "21", "17", "6"], "num_clicks_accrued": [0, 0, 0, 0, 0, 0, 0, 0, 0, 0, 0, 0, 0], "stateRewards": ["", 1, 2, -3, 6, -88, 74, -45, 7, -46, 40, -77, 1, -4, 4, 3, 22, -25, -59, 8, -83, 19, -60, -1, -1, -1, -8, 26, -29, 64, -7, -88, -51, -55], "withholdReward": false, "trial_id": "mdp_trial_30", "block": "test", "trialIndex": 35, "score": 64.95, "costs": -15.05, "simulationMode": [null, null, null, null, null], "rewards": [1, 2, -3, 6, 74], "path": ["0", "0", "1", "2", "3", "4", "6"], "rt": [27631, 381, 147, 647, 102], "actions": ["up", "up", "up", "right", "right"], "actionTimes": [29835, 30783, 31549, 32785, 33493], "queries": {"click": {"state": {"target": ["9", "27", "33", "31", "21", "17", "6"], "time": [3353, 6806, 10363, 13911, 17962, 21462, 24942]}, "edge": {"target": [], "time": []}}, "mouseover": {"state": {"target": ["10", "11", "9", "27", "33", "31", "22", "22", "21", "20", "17", "17", "6", "7", "18"], "time": [2411, 2573, 2942, 4323, 7688, 12933, 15662, 16008, 17462, 18779, 18966, 19334, 23003, 27777, 29323]}, "edge": {"target": [], "time": []}}, "mouseout": {"state": {"target": ["12", "0", "10", "11", "9", "27", "33", "31", "22", "22", "21", "20", "17", "17", "6", "7", "18"], "time": [801, 2353, 2470, 2629, 4075, 7025, 12737, 15468, 15721, 17310, 18653, 18843, 19095, 22762, 27645, 29269, 29382]}, "edge": {"target": [], "time": []}}}, "displayed_time": "34.09", "trialTime": 35619, "trial_type": "mouselab-mdp", "trial_index": 50, "time_elapsed": 1902963, "internal_node_id": "0.0-4.0-1.0-29.0"}}, {"uniqueid": "w61816170:a26130742", "current_trial": 51, "dateTime": 1691144011376, "trialdata": {"revealed_states": [], "clicked_states": ["6", "5", "11", "29"], "num_clicks_accrued": [0, 0, 0, 0, 0, 0, 0, 0, 0, 0, 0, 0, 0], "stateRewards": ["", -2, 2, 8, -6, -25, 3, 87, 2, -62, -2, 74, -2, -1, 2, -1, 79, 49, -37, -14, 5, 67, -9, -1, 2, -2, 5, 15, 38, 32, -14, -38, -38, 30], "withholdReward": false, "trial_id": "mdp_trial_31", "block": "test", "trialIndex": 36, "score": 75.4, "costs": -8.6, "simulationMode": [null, null, null, null, null], "rewards": [-2, 2, 8, 2, 74], "path": ["0", "0", "1", "2", "3", "8", "11"], "rt": [17710, 2, 50, 2, 118], "actions": ["up", "up", "up", "left", "left"], "actionTimes": [20161, 20769, 21428, 22028, 22716], "queries": {"click": {"state": {"target": ["6", "5", "11", "29"], "time": [4727, 8121, 11759, 15637]}, "edge": {"target": [], "time": []}}, "mouseover": {"state": {"target": ["6", "9", "5", "5", "9", "11", "8", "10", "2", "7", "2", "27", "29", "3"], "time": [3990, 5787, 6806, 7228, 8950, 9353, 12681, 13104, 13419, 13786, 14153, 14453, 15134, 19158]}, "edge": {"target": [], "time": []}}, "mouseout": {"state": {"target": ["13", "12", "0", "6", "9", "5", "5", "9", "11", "8", "10", "2", "7", "2", "27", "29", "29", "3"], "time": [961, 1044, 3746, 4950, 6733, 6876, 8744, 9278, 12671, 12791, 13189, 13660, 14139, 14220, 14847, 15860, 19084, 19212]}, "edge": {"target": [], "time": []}}}, "displayed_time": "23.30", "trialTime": 24434, "trial_type": "mouselab-mdp", "trial_index": 51, "time_elapsed": 1929265, "internal_node_id": "0.0-4.0-1.0-30.0"}}, {"uniqueid": "w61816170:a26130742", "current_trial": 52, "dateTime": 1691144035210, "trialdata": {"revealed_states": [], "clicked_states": ["21", "20", "16"], "num_clicks_accrued": [0, 0, 0, 0, 0, 0, 0, 0, 0, 0, 0, 0, 0], "stateRewards": ["", -2, 1, -3, -16, -39, -52, 30, -7, -41, -59, 11, 2, 1, 8, 2, -11, -26, -42, -13, 87, -59, -48, -1, -1, -1, 16, -79, 31, 50, -1, -84, 34, -82], "withholdReward": false, "trial_id": "mdp_trial_32", "block": "test", "trialIndex": 37, "score": 78.55, "costs": -6.449999999999999, "simulationMode": [null, null, null, null, null], "rewards": [2, 1, 8, -13, 87], "path": ["0", "0", "12", "13", "14", "19", "20"], "rt": [13782, 731, 230, 672, 336], "actions": ["right", "right", "right", "down", "right"], "actionTimes": [16203, 17552, 18398, 19711, 20616], "queries": {"click": {"state": {"target": ["21", "20", "16"], "time": [5281, 9607, 13037]}, "edge": {"target": [], "time": []}}, "mouseover": {"state": {"target": ["22", "21", "20", "15", "16", "15"], "time": [4645, 4823, 6197, 10423, 10562, 13851]}, "edge": {"target": [], "time": []}}, "mouseout": {"state": {"target": ["0", "22", "21", "20", "15", "16", "16", "15"], "time": [4130, 4732, 6058, 10302, 10489, 13361, 13815, 13948]}, "edge": {"target": [], "time": []}}}, "displayed_time": "21.22", "trialTime": 22384, "trial_type": "mouselab-mdp", "trial_index": 52, "time_elapsed": 1953099, "internal_node_id": "0.0-4.0-1.0-31.0"}}, {"uniqueid": "w61816170:a26130742", "current_trial": 53, "dateTime": 1691144073732, "trialdata": {"revealed_states": [], "clicked_states": ["21", "17", "6", "9", "27", "33", "31"], "num_clicks_accrued": [0, 0, 0, 0, 0, 0, 0, 0, 0, 0, 0, 0, 0], "stateRewards": ["", -2, 2, 2, -6, 9, 37, 50, -13, -7, -18, -75, -2, -4, 4, 7, 23, -57, -66, -7, -81, -48, -76, 1, 1, -8, 1, 51, -2, 70, 14, 59, 71, -37], "withholdReward": false, "trial_id": "mdp_trial_33", "block": "test", "trialIndex": 38, "score": 51.95, "costs": -15.05, "simulationMode": [null, null, null, null, null], "rewards": [1, 1, -8, 14, 59], "path": ["0", "0", "23", "24", "25", "30", "31"], "rt": [29634, 245, 3, 212, 310], "actions": ["left", "left", "left", "down", "right"], "actionTimes": [31597, 32410, 32979, 33754, 34614], "queries": {"click": {"state": {"target": ["21", "17", "6", "9", "27", "33", "31"], "time": [3578, 7085, 10536, 14014, 17649, 22296, 25971]}, "edge": {"target": [], "time": []}}, "mouseover": {"state": {"target": ["22", "21", "17", "16", "6", "9", "11", "27", "29", "33", "30", "31", "31", "32"], "time": [2772, 3114, 4704, 7804, 8051, 11655, 14666, 14972, 18297, 18696, 24848, 24928, 25282, 27125]}, "edge": {"target": [], "time": []}}, "mouseout": {"state": {"target": ["17", "15", "18", "12", "0", "22", "21", "17", "16", "6", "9", "11", "27", "29", "33", "30", "31", "31", "32"], "time": [41, 111, 231, 745, 2113, 2831, 3804, 7797, 7870, 11220, 14652, 14730, 18233, 18380, 24778, 24919, 24991, 27057, 29693]}, "edge": {"target": [], "time": []}}}, "displayed_time": "35.22", "trialTime": 36711, "trial_type": "mouselab-mdp", "trial_index": 53, "time_elapsed": 1991621, "internal_node_id": "0.0-4.0-1.0-32.0"}}, {"uniqueid": "w61816170:a26130742", "current_trial": 54, "dateTime": 1691144097758, "trialdata": {"revealed_states": [], "clicked_states": ["14", "16"], "num_clicks_accrued": [0, 0, 0, 0, 0, 0, 0, 0, 0, 0, 0, 0, 0], "stateRewards": ["", 2, -3, -2, 14, -4, 85, 46, 15, -28, 41, 31, -1, -1, -1, 5, 62, 79, 57, 12, -73, -64, 86, -1, 1, -3, -5, 68, 11, -32, 8, -80, -21, -56], "withholdReward": false, "trial_id": "mdp_trial_34", "block": "test", "trialIndex": 39, "score": 60.9, "costs": -3.0999999999999996, "simulationMode": [null, null, null, null, null], "rewards": [-1, -1, -1, 5, 62], "path": ["0", "0", "12", "13", "14", "15", "16"], "rt": [8701, 362, 119, 163, 5], "actions": ["right", "right", "right", "up", "up"], "actionTimes": [11093, 12037, 12752, 13508, 14209], "queries": {"click": {"state": {"target": ["14", "16"], "time": [4668, 6239]}, "edge": {"target": [], "time": []}}, "mouseover": {"state": {"target": ["12", "13", "14", "15", "16", "17"], "time": [3984, 4066, 4133, 5423, 5677, 7173]}, "edge": {"target": [], "time": []}}, "mouseout": {"state": {"target": ["0", "12", "13", "14", "15", "16", "17", "20", "21", "22", "6", "12"], "time": [875, 4052, 4121, 5359, 5546, 7047, 18486, 19069, 19447, 20446, 21145, 21495]}, "edge": {"target": [], "time": []}}}, "displayed_time": "17.47", "trialTime": 22269, "trial_type": "mouselab-mdp", "trial_index": 54, "time_elapsed": 2015647, "internal_node_id": "0.0-4.0-1.0-33.0"}}, {"uniqueid": "w61816170:a26130742", "current_trial": 55, "dateTime": 1691144117328, "trialdata": {"revealed_states": [], "clicked_states": [], "num_clicks_accrued": [0, 0, 0, 0, 0, 0, 0, 0, 0, 0, 0, 0, 0], "stateRewards": ["", -1, -3, 1, 13, -64, -29, 12, -4, -33, 50, 56, 2, -3, 4, 11, -64, -58, -55, 12, 47, 38, -25, -2, 2, 5, -15, 85, 7, 84, 10, 8, 57, 26], "withholdReward": false, "trial_id": "mdp_trial_35", "block": "test", "trialIndex": 40, "score": 49, "costs": 0, "simulationMode": [null, null, null, null, null], "rewards": [-1, -3, 1, -4, 56], "path": ["0", "0", "1", "2", "3", "8", "11"], "rt": [4972, 3, 70, 1033, 169], "actions": ["up", "up", "up", "left", "left"], "actionTimes": [6979, 7542, 8220, 9868, 10596], "queries": {"click": {"state": {"target": [], "time": []}, "edge": {"target": [], "time": []}}, "mouseover": {"state": {"target": ["0", "1", "3", "9", "8"], "time": [3870, 3943, 4097, 6040, 6182]}, "edge": {"target": [], "time": []}}, "mouseout": {"state": {"target": ["0", "0", "1", "3", "9", "8"], "time": [987, 3929, 3999, 5874, 6109, 6252]}, "edge": {"target": [], "time": []}}}, "displayed_time": "16.35", "trialTime": 18086, "trial_type": "mouselab-mdp", "trial_index": 55, "time_elapsed": 2035217, "internal_node_id": "0.0-4.0-1.0-34.0"}}, {"uniqueid": "w61816170:a26130742", "current_trial": 56, "dateTime": 1691144146542, "trialdata": {"revealed_states": [], "clicked_states": ["33", "27", "9", "6"], "num_clicks_accrued": [0, 0, 0, 0, 0, 0, 0, 0, 0, 0, 0, 0, 0], "stateRewards": ["", -1, -3, -7, -7, -76, 30, -49, 11, -70, 56, 2, 1, 4, -3, -14, -59, -83, -25, -9, -21, -67, -73, -2, 4, 4, -9, -11, -32, 60, 9, -87, 22, -64], "withholdReward": false, "trial_id": "mdp_trial_36", "block": "test", "trialIndex": 41, "score": 3.3999999999999986, "costs": -8.6, "simulationMode": [null, null, null, null, null], "rewards": [-1, -3, -7, -7, 30], "path": ["0", "0", "1", "2", "3", "4", "6"], "rt": [16605, 68, 2, 41, 8], "actions": ["up", "up", "up", "right", "right"], "actionTimes": [19211, 19867, 20473, 21139, 21748], "queries": {"click": {"state": {"target": ["33", "27", "9", "6"], "time": [4098, 7903, 11377, 14936]}, "edge": {"target": [], "time": []}}, "mouseover": {"state": {"target": ["23", "24", "25", "33", "29", "27", "27", "9", "5", "6", "16"], "time": [3270, 3346, 3420, 3664, 4941, 5631, 5939, 9805, 12011, 12322, 18315]}, "edge": {"target": [], "time": []}}, "mouseout": {"state": {"target": ["1", "23", "24", "25", "33", "29", "27", "27", "9", "5", "6", "6", "16"], "time": [1295, 3332, 3404, 3485, 4862, 5619, 5749, 9563, 11931, 12114, 15211, 18180, 26992]}, "edge": {"target": [], "time": []}}}, "displayed_time": "22.31", "trialTime": 27653, "trial_type": "mouselab-mdp", "trial_index": 56, "time_elapsed": 2064430, "internal_node_id": "0.0-4.0-1.0-35.0"}}, {"uniqueid": "w61816170:a26130742", "current_trial": 57, "dateTime": 1691144210033, "trialdata": {"revealed_states": [], "clicked_states": [], "num_clicks_accrued": [0, 0, 0, 0, 0, 0, 0, 0, 0, 0, 0, 0, 0], "stateRewards": ["", 2, -1, -1, 7, 11, -40, -22, -2, 69, 37, 8, -2, 4, -8, -12, -2, -72, -3, -12, 17, 63, 12, 1, 3, -7, 6, 25, 61, 61, -9, 28, -17, 27], "withholdReward": false, "trial_id": "mdp_trial_37", "block": "test", "trialIndex": 42, "score": -33, "costs": 0, "simulationMode": [null, null, null, null, null], "rewards": [2, -1, -1, 7, -40], "path": ["0", "0", "1", "2", "3", "4", "6"], "rt": [16402, 497, 32, 347, 5], "actions": ["up", "up", "up", "right", "right"], "actionTimes": [25498, 26566, 27219, 28173, 28771], "queries": {"click": {"state": {"target": [], "time": []}, "edge": {"target": [], "time": []}}, "mouseover": {"state": {"target": ["6"], "time": [22835]}, "edge": {"target": [], "time": []}}, "mouseout": {"state": {"target": ["16", "15", "18", "12", "0", "6", "6"], "time": [7355, 7598, 7662, 7812, 8044, 24716, 61204]}, "edge": {"target": [], "time": []}}}, "displayed_time": "29.35", "trialTime": 61750, "trial_type": "mouselab-mdp", "trial_index": 57, "time_elapsed": 2127922, "internal_node_id": "0.0-4.0-1.0-36.0"}}, {"uniqueid": "w61816170:a26130742", "current_trial": 58, "dateTime": 1691144261665, "trialdata": {"revealed_states": [], "clicked_states": ["17"], "num_clicks_accrued": [0, 0, 0, 0, 0, 0, 0, 0, 0, 0, 0, 0, 0], "stateRewards": ["", -2, 4, -5, -12, 85, -24, -18, -15, -78, -22, 26, -1, -1, 2, 14, -45, 52, -23, 7, -33, 24, -6, -2, -4, 5, -7, -16, 36, -39, 5, 71, -87, -23], "withholdReward": false, "trial_id": "mdp_trial_38", "block": "test", "trialIndex": 43, "score": 63.85, "costs": -2.15, "simulationMode": [null, null, null, null, null], "rewards": [-1, -1, 2, 14, 52], "path": ["0", "0", "12", "13", "14", "15", "17"], "rt": [7315, 4, 593, 178, 150], "actions": ["right", "right", "right", "up", "right"], "actionTimes": [19026, 19625, 20801, 21546, 22269], "queries": {"click": {"state": {"target": ["17"], "time": [12894]}, "edge": {"target": [], "time": []}}, "mouseover": {"state": {"target": ["18", "15", "17", "6", "4", "9", "3", "15"], "time": [12147, 12214, 12330, 13841, 15252, 15600, 18450, 18574]}, "edge": {"target": [], "time": []}}, "mouseout": {"state": {"target": ["16", "0", "18", "15", "17", "6", "4", "9", "3", "15"], "time": [10418, 12015, 12207, 12276, 13507, 15241, 15319, 18388, 18509, 18635]}, "edge": {"target": [], "time": []}}}, "displayed_time": "26.08", "trialTime": 50601, "trial_type": "mouselab-mdp", "trial_index": 58, "time_elapsed": 2179554, "internal_node_id": "0.0-4.0-1.0-37.0"}}, {"uniqueid": "w61816170:a26130742", "current_trial": 59, "dateTime": 1691144438200, "trialdata": {"revealed_states": [], "clicked_states": [], "num_clicks_accrued": [0, 0, 0, 0, 0, 0, 0, 0, 0, 0, 0, 0, 0], "stateRewards": ["", -1, 1, 3, -8, -23, -15, -14, -11, -23, 58, 68, 1, 3, 5, 12, -17, -41, -7, -10, -4, 82, 10, 1, 4, -4, 11, 73, 55, -55, -1, -86, -86, 54], "withholdReward": false, "trial_id": "mdp_trial_39", "block": "test", "trialIndex": 44, "score": 50, "costs": 0, "simulationMode": [null, null, null, null, null], "rewards": [-1, 1, 3, -11, 58], "path": ["0", "0", "1", "2", "3", "8", "10"], "rt": [42157, 45, 815, 423, 357], "actions": ["up", "up", "up", "left", "down"], "actionTimes": [169339, 169977, 171405, 172434, 173406], "queries": {"click": {"state": {"target": [], "time": []}, "edge": {"target": [], "time": []}}, "mouseover": {"state": {"target": ["1", "6", "5", "3"], "time": [165661, 166009, 167263, 168918]}, "edge": {"target": [], "time": []}}, "mouseout": {"state": {"target": ["14", "13", "12", "0", "1", "6", "5", "3"], "time": [125767, 125819, 126040, 165521, 165715, 167176, 168856, 174870]}, "edge": {"target": [], "time": []}}}, "displayed_time": "173.97", "trialTime": 175660, "trial_type": "mouselab-mdp", "trial_index": 59, "time_elapsed": 2356088, "internal_node_id": "0.0-4.0-1.0-38.0"}}, {"uniqueid": "w61816170:a26130742", "current_trial": 60, "dateTime": 1691144546401, "trialdata": {"revealed_states": [], "clicked_states": [], "num_clicks_accrued": [0, 0, 0, 0, 0, 0, 0, 0, 0, 0, 0, 0, 0], "stateRewards": ["", -2, -3, 1, -14, 48, -49, 67, -1, -35, -48, 3, -2, 1, -4, -5, 86, -84, 39, 1, 48, 41, -42, -1, -4, 2, -7, 18, -86, 17, 7, -9, 57, -69], "withholdReward": false, "trial_id": "mdp_trial_40", "block": "test", "trialIndex": 45, "score": 44, "costs": 0, "simulationMode": [null, null, null, null, null], "rewards": [-2, 1, -4, 1, 48], "path": ["0", "0", "12", "13", "14", "19", "20"], "rt": [11384, 425, 228, 7, 526], "actions": ["right", "right", "right", "down", "right"], "actionTimes": [101582, 102580, 103363, 103984, 105097], "queries": {"click": {"state": {"target": [], "time": []}, "edge": {"target": [], "time": []}}, "mouseover": {"state": {"target": ["18", "15", "17", "15"], "time": [98632, 98762, 98985, 100573]}, "edge": {"target": [], "time": []}}, "mouseout": {"state": {"target": ["3", "9", "11", "1", "0", "18", "15", "17", "15"], "time": [88569, 88655, 88805, 88955, 98575, 98695, 98813, 100521, 100634]}, "edge": {"target": [], "time": []}}}, "displayed_time": "105.70", "trialTime": 107110, "trial_type": "mouselab-mdp", "trial_index": 60, "time_elapsed": 2464290, "internal_node_id": "0.0-4.0-1.0-39.0"}}, {"uniqueid": "w61816170:a26130742", "current_trial": 61, "dateTime": 1691144602031, "trialdata": {"rt": 55616, "response": {"Q0": "$-2 to $2", "Q1": "$-4 to $4", "Q2": "$-16 to $16", "Q3": "The cost for clicking on nodes varied between nodes.", "Q4": "Very motivated"}, "question_order": [0, 1, 2, 3, 4], "trial_id": "final_quiz_control", "trial_type": "survey-multi-choice", "trial_index": 61, "time_elapsed": 2519919, "internal_node_id": "0.0-4.0-2.0"}}, {"uniqueid": "w61816170:a26130742", "current_trial": 62, "dateTime": 1691144678028, "trialdata": {"rt": 75948, "response": {"Q0": "to see how much th eend nodes were worth first", "Q1": "Towards the end i decided to just see the number of the exit nodes", "Q2": "n/a"}, "trial_id": "self_report_control", "trial_type": "survey-text", "trial_index": 62, "time_elapsed": 2595916, "internal_node_id": "0.0-4.0-3.0"}}, {"uniqueid": "w61816170:a26130742", "current_trial": 63, "dateTime": 1691144716958, "trialdata": {"rt": 38919, "response": {"Q0": "Neither disagree nor agree", "Q1": "Strongly disagree", "Q2": "Strongly disagree", "Q3": "Strongly agree", "Q4": "Neither disagree nor agree", "Q5": "Strongly agree", "Q6": "Strongly disagree"}, "question_order": [0, 1, 2, 3, 4, 5, 6], "trial_id": "self_report_2", "trial_type": "survey-multi-choice", "trial_index": 63, "time_elapsed": 2634847, "internal_node_id": "0.0-4.0-4.0"}}, {"uniqueid": "w61816170:a26130742", "current_trial": 64, "dateTime": 1691144740798, "trialdata": {"rt": 23819, "response": {"gender": "female", "age": "47", "colorblind": "0", "effort": "0"}, "trial_type": "survey-html-form", "trial_index": 64, "time_elapsed": 2658687, "internal_node_id": "0.0-4.0-5.0"}}, {"uniqueid": "w61816170:a26130742", "current_trial": 65, "dateTime": 1691144764959, "trialdata": {"rt": 24142, "response": {"Q0": "No easy to follow", "Q1": "no", "Q2": ""}, "trial_type": "survey-text", "trial_index": 65, "time_elapsed": 2682847, "internal_node_id": "0.0-4.0-6.0"}}, {"uniqueid": "w61816170:a26130742", "current_trial": 66, "dateTime": 1691144769733, "trialdata": {"rt": 4767, "stimulus": "Press 'Finish HIT' in order to reach the completion code. Once the data has been saved, you will receive the code either in this window or in the original browser window where you started the experiment.\n", "response": 0, "trial_type": "html-button-response", "trial_index": 66, "time_elapsed": 2687622, "internal_node_id": "0.0-5.0"}}, {"uniqueid": "w61816170:a26130742", "current_trial": 67, "dateTime": 1691144770750, "trialdata": {"success": true, "trial_type": "fullscreen", "trial_index": 67, "time_elapsed": 2688639, "internal_node_id": "0.0-6.0"}}], "questiondata": {"params": {"CODE": "C6DMOQA6", "MIN_TIME": 14, "inspectCost": 1, "startTime": "Fri Aug 04 2023 10:41:21 GMT+0100 (British Summer Time)", "bonusRate": 0.002, "variance": "1_2_4_8_44", "branching": "31123"}, "final_score": 1203.2}, "eventdata": [{"eventtype": "initialized", "value": null, "timestamp": 1691142080772, "interval": 0}, {"eventtype": "window_resize", "value": [1024, 594], "timestamp": 1691142080772, "interval": 0}, {"eventtype": "focus", "value": "on", "timestamp": 1691142080900, "interval": 128}, {"eventtype": "window_resize", "value": [1024, 594], "timestamp": 1691142081104, "interval": 204}, {"eventtype": "window_resize", "value": [1280, 609], "timestamp": 1691142092538, "interval": 11434}, {"eventtype": "window_resize", "value": [1280, 720], "timestamp": 1691142094636, "interval": 2098}, {"eventtype": "focus", "value": "off", "timestamp": 1691142328353, "interval": 233717}, {"eventtype": "focus", "value": "on", "timestamp": 1691142328353, "interval": 0}, {"eventtype": "focus", "value": "off", "timestamp": 1691142533149, "interval": 204796}, {"eventtype": "focus", "value": "on", "timestamp": 1691142533149, "interval": 0}, {"eventtype": "focus", "value": "off", "timestamp": 1691142851755, "interval": 318606}, {"eventtype": "focus", "value": "on", "timestamp": 1691142852929, "interval": 1174}, {"eventtype": "window_resize", "value": [1280, 609], "timestamp": 1691144770297, "interval": 1917368}], "useragent": "Mozilla/5.0 (Windows NT 10.0; Win64; x64; rv:109.0) Gecko/20100101 Firefox/115.0", "mode": "live", "id": "w61816170:a26130742", "status": "user data saved", "Beginhit": "2023-08-04 09:41:19.48917", "Beginexp": "2023-08-04 09:41:35.340375", "Endhit": "2023-08-04 10:26:11.853808", "psiturkStatus": 3, "browser": "<redacted>", "platform": "windows", "language": "en-GB"}