{"condition": 1, "counterbalance": 0, "assignmentId": "a63904059", "workerId": "w22423378", "hitId": "h41671132", "currenttrial": 56, "bonus": 0, "data": [{"uniqueid": "w22423378:a63904059", "current_trial": 0, "dateTime": 1693567964799, "trialdata": {"success": true, "trial_type": "fullscreen", "trial_index": 0, "time_elapsed": 8492, "internal_node_id": "0.0-0.0"}}, {"uniqueid": "w22423378:a63904059", "current_trial": 1, "dateTime": 1693568000853, "trialdata": {"view_history": [{"page_index": 0, "viewing_time": 36042}], "rt": 36044, "trial_id": "exp_instructions_misaligned", "trial_type": "instructions", "trial_index": 1, "time_elapsed": 44546, "internal_node_id": "0.0-1.0"}}, {"uniqueid": "w22423378:a63904059", "current_trial": 2, "dateTime": 1693568695451, "trialdata": {"view_history": [{"page_index": 0, "viewing_time": 196813}, {"page_index": 1, "viewing_time": 189067}, {"page_index": 2, "viewing_time": 26237}, {"page_index": 3, "viewing_time": 282477}], "rt": 694595, "trial_id": "mouselab_instructions_1_misaligned", "trial_type": "instructions", "trial_index": 2, "time_elapsed": 739145, "internal_node_id": "0.0-2.0-1.0"}}, {"uniqueid": "w22423378:a63904059", "current_trial": 3, "dateTime": 1693568782589, "trialdata": {"revealed_states": [], "clicked_states": ["1", "5", "9", "27", "29", "32", "19", "17", "12", "23", "24", "25", "13", "2", "3", "4", "6", "7", "10", "8", "11", "33"], "num_clicks_accrued": [0, 0, 0, 0, 0, 0, 0, 0, 0, 0, 0, 0, 0], "stateRewards": ["", -10, 10, -10, -10, 10, 10, -10, 10, 10, -10, -10, -10, -10, 10, -10, -10, -10, -10, -10, -10, -10, -10, 10, -10, -10, 10, 10, 10, -10, -10, -10, -10, 10], "withholdReward": false, "trial_id": "practice_1", "block": "test", "trialIndex": 0, "score": -17.5, "costs": -11, "simulationMode": [null, null, null, null, null], "rewards": [-10, 10, -10, -10, 10], "path": ["0", "0", "1", "2", "3", "4", "5"], "rt": [72717, 2725, 959, 619, 292], "actions": ["up", "up", "up", "right", "up"], "actionTimes": [75807, 79046, 80517, 81657, 82467], "queries": {"click": {"state": {"target": ["1", "5", "9", "27", "29", "32", "19", "17", "12", "23", "24", "25", "13", "2", "3", "4", "6", "7", "10", "8", "11", "33"], "time": [5284, 6972, 8343, 10094, 11442, 13364, 14987, 16515, 18665, 21759, 29231, 31499, 35439, 37852, 40223, 43043, 44776, 46904, 49507, 51766, 55296, 62591]}, "edge": {"target": [], "time": []}}, "mouseover": {"state": {"target": ["1", "4", "5", "9", "11", "27", "29", "33", "32", "21", "19", "14", "17", "15", "13", "12", "0", "12", "23", "1", "1", "2", "10", "28", "24", "25", "26", "30", "30", "12", "13", "2", "1", "2", "3", "4", "6", "7", "2", "10", "10", "8", "11", "9", "9", "11", "28", "24", "30", "33", "30", "31"], "time": [3962, 6060, 6410, 7594, 9193, 9512, 10709, 12432, 12795, 14076, 14377, 15658, 15877, 17009, 17192, 17325, 17695, 18144, 20794, 22608, 23230, 25492, 27947, 28409, 28781, 30007, 33463, 33908, 34357, 34641, 34842, 36613, 36741, 37308, 39606, 42222, 43940, 46225, 48506, 48688, 49044, 50890, 54387, 57190, 57254, 61038, 61624, 61802, 61974, 62053, 63186, 63654]}, "edge": {"target": [], "time": []}}, "mouseout": {"state": {"target": ["0", "1", "4", "5", "9", "11", "27", "27", "29", "33", "32", "21", "19", "14", "17", "15", "13", "12", "0", "12", "23", "1", "1", "2", "10", "28", "24", "25", "26", "25", "30", "30", "12", "13", "2", "1", "2", "3", "4", "6", "7", "7", "2", "10", "10", "8", "11", "9", "9", "11", "28", "24", "30", "33", "33", "30"], "time": [848, 5978, 6293, 7493, 9095, 9259, 10291, 10559, 11976, 12575, 13876, 14360, 15196, 15675, 16992, 17059, 17293, 17592, 18130, 19408, 22330, 22759, 25201, 25624, 28141, 28541, 29824, 32324, 33859, 33906, 33940, 34412, 34827, 36123, 36708, 37210, 39569, 41289, 43839, 46028, 47109, 48474, 48611, 48762, 50847, 51976, 57068, 57204, 60990, 61073, 61753, 61836, 62020, 62808, 63153, 63321]}, "edge": {"target": [], "time": []}}}, "displayed_time": "82.99", "trialTime": 86620, "trial_type": "mouselab-mdp", "trial_index": 3, "time_elapsed": 826283, "internal_node_id": "0.0-2.0-2.0-0.0"}}, {"uniqueid": "w22423378:a63904059", "current_trial": 4, "dateTime": 1693568800693, "trialdata": {"revealed_states": [], "clicked_states": [], "num_clicks_accrued": [0, 0, 0, 0, 0, 0, 0, 0, 0, 0, 0, 0, 0], "stateRewards": ["", 10, -10, -10, 10, 10, 10, -10, -10, -10, 10, -10, -10, -10, 10, -10, -10, -10, 10, 10, 10, -10, 10, 10, 10, 10, -10, 10, 10, 10, -10, 10, 10, 10], "withholdReward": false, "trial_id": "practice_2", "block": "test", "trialIndex": 1, "score": 33.5, "costs": 0, "simulationMode": [null, null, null, null, null], "rewards": [10, 10, 10, -10, 10], "path": ["0", "0", "23", "24", "25", "26", "27"], "rt": [996, 1007, 1584, 1676, 309], "actions": ["left", "left", "left", "up", "up"], "actionTimes": [7633, 9158, 11251, 13441, 14255], "queries": {"click": {"state": {"target": [], "time": []}, "edge": {"target": [], "time": []}}, "mouseover": {"state": {"target": [], "time": []}, "edge": {"target": [], "time": []}}, "mouseout": {"state": {"target": ["31"], "time": [5499]}, "edge": {"target": [], "time": []}}}, "displayed_time": "14.76", "trialTime": 17900, "trial_type": "mouselab-mdp", "trial_index": 4, "time_elapsed": 844386, "internal_node_id": "0.0-2.0-2.0-1.0"}}, {"uniqueid": "w22423378:a63904059", "current_trial": 5, "dateTime": 1693568829332, "trialdata": {"view_history": [{"page_index": 0, "viewing_time": 20881}, {"page_index": 1, "viewing_time": 7755}], "rt": 28637, "trial_id": "mouselab_instructions_2_misaligned", "trial_type": "instructions", "trial_index": 5, "time_elapsed": 873026, "internal_node_id": "0.0-2.0-3.0"}}, {"uniqueid": "w22423378:a63904059", "current_trial": 6, "dateTime": 1693568864407, "trialdata": {"rt": 35067, "response": {"Q0": "The cost for clicking on nodes may vary between nodes.", "Q1": "The better I perform the higher my bonus will be.", "Q2": "No, the amount of cash at each node of the web may be different each time.", "Q3": "To get the highest total score.", "Q4": "Only before moving the spider.", "Q5": "3 seconds"}, "question_order": [0, 1, 2, 3, 4, 5], "correct": {"Q0": "The cost for clicking on nodes may vary between nodes.", "Q1": "The better I perform the higher my bonus will be.", "Q2": "No, the amount of cash at each node of the web may be different each time.", "Q3": "To get the highest total score.", "Q4": "Only before moving the spider.", "Q5": "3 seconds"}, "trial_id": "mouselab_quiz_misaligned", "trial_type": "survey-multi-choice", "trial_index": 6, "time_elapsed": 908101, "internal_node_id": "0.0-2.0-4.0"}}, {"uniqueid": "w22423378:a63904059", "current_trial": 7, "dateTime": 1693568874157, "trialdata": {"rt": 9737, "response": {"Q0": "No"}, "question_order": [0], "trial_id": "repeat_check", "trial_type": "survey-multi-choice", "trial_index": 7, "time_elapsed": 917850, "internal_node_id": "0.0-4.0-0.0"}}, {"uniqueid": "w22423378:a63904059", "current_trial": 8, "dateTime": 1693568888978, "trialdata": {"rt": 14815, "stimulus": "\n<h1> Get ready to start the game! </h1>\n\nThank you for reading the instructions. Get ready start with the 40 rounds of this game.\n<br><br>\nIf you need to take a break, feel free to take one after the end of a round, before continuing to the next one.\n<br><br>\nRemember, the more money the spider gets, the bigger your bonus will be!\n<br><br>\n<div style='text-align: center;'>Press <code>space</code> to begin.</div>\n\n<br><br>\n(If, at any point, the <code>space</code> key does not take you to the next page, click once on the text and try again.)", "response": " ", "trial_id": "mdp_ready", "trial_type": "html-keyboard-response", "trial_index": 8, "time_elapsed": 932672, "internal_node_id": "0.0-6.0-0.0"}}, {"uniqueid": "w22423378:a63904059", "current_trial": 9, "dateTime": 1693568936714, "trialdata": {"revealed_states": [], "clicked_states": ["4", "8", "2", "1", "3", "6", "5", "11", "10", "9"], "num_clicks_accrued": [0, 0, 0, 0, 0, 0, 0, 0, 0, 0, 0, 0, 0], "stateRewards": ["", -1, 3, -7, 16, -32, -74, -48, 2, 10, 15, -30, 1, 1, -2, 10, 12, -83, 67, 13, -66, 47, 65, -2, 4, 2, -14, -8, -57, 24, 9, 65, 12, 46], "withholdReward": false, "trial_id": "mdp_trial_1", "block": "test", "trialIndex": 2, "score": -7.900000000000002, "costs": -14.900000000000002, "simulationMode": [null, null, null, null, null], "rewards": [-1, 3, -7, 2, 10], "path": ["0", "0", "1", "2", "3", "8", "9"], "rt": [35644, 346, 323, 377, 1227], "actions": ["up", "up", "up", "left", "up"], "actionTimes": [38833, 39677, 40520, 41392, 43122], "queries": {"click": {"state": {"target": ["4", "8", "2", "1", "3", "6", "5", "11", "10", "9"], "time": [4833, 7219, 9320, 10845, 12458, 14010, 17872, 22135, 25608, 29955]}, "edge": {"target": [], "time": []}}, "mouseover": {"state": {"target": ["7", "4", "3", "8", "11", "8", "3", "2", "1", "2", "1", "3", "4", "6", "5", "8", "11", "10", "2", "18", "15", "16", "6", "5", "9", "5", "6", "7", "1"], "time": [3852, 4188, 5499, 5865, 6287, 6489, 8199, 8465, 8615, 8831, 10066, 11983, 13281, 13347, 14748, 21582, 21702, 22913, 26736, 26796, 26864, 29095, 29164, 29229, 29500, 30681, 33651, 33784, 33987]}, "edge": {"target": [], "time": []}}, "mouseout": {"state": {"target": ["1", "7", "4", "3", "8", "11", "8", "3", "2", "1", "2", "1", "2", "3", "4", "6", "5", "8", "11", "10", "2", "18", "15", "16", "6", "5", "9", "5", "6", "7", "1"], "time": [701, 3898, 5468, 5699, 6050, 6332, 8115, 8364, 8566, 8764, 10016, 11566, 11648, 13248, 13314, 14650, 19865, 21596, 22681, 26733, 26746, 26829, 28680, 29162, 29179, 29262, 30168, 30696, 33681, 33830, 34449]}, "edge": {"target": [], "time": []}}}, "displayed_time": "43.61", "trialTime": 47536, "trial_type": "mouselab-mdp", "trial_index": 9, "time_elapsed": 980406, "internal_node_id": "0.0-6.0-1.0-0.0"}}, {"uniqueid": "w22423378:a63904059", "current_trial": 10, "dateTime": 1693568971718, "trialdata": {"revealed_states": [], "clicked_states": ["23", "32", "30", "25", "24", "33", "31"], "num_clicks_accrued": [0, 0, 0, 0, 0, 0, 0, 0, 0, 0, 0, 0, 0], "stateRewards": ["", 1, 1, -7, -9, -44, 24, -83, -15, 44, -24, 72, -2, -3, 4, -5, 57, 55, 29, -11, 22, 12, -25, -1, 2, 7, 12, 33, -8, 47, -4, 8, 50, -4], "withholdReward": false, "trial_id": "mdp_trial_2", "block": "test", "trialIndex": 3, "score": 44.95, "costs": -9.05, "simulationMode": [null, null, null, null, null], "rewards": [-1, 2, 7, -4, 50], "path": ["0", "0", "23", "24", "25", "30", "32"], "rt": [21307, 271, 532, 404, 443], "actions": ["left", "left", "left", "down", "down"], "actionTimes": [27137, 27906, 28950, 29857, 30795], "queries": {"click": {"state": {"target": ["23", "32", "30", "25", "24", "33", "31"], "time": [7002, 8581, 12035, 13447, 15157, 17234, 20678]}, "edge": {"target": [], "time": []}}, "mouseover": {"state": {"target": ["23", "31", "30", "32", "30", "25", "24", "23", "25", "33", "30", "31", "25", "24", "23", "0"], "time": [6435, 7518, 7585, 7817, 9584, 12951, 14350, 16184, 16468, 16516, 18050, 18283, 21316, 21949, 22016, 22150]}, "edge": {"target": [], "time": []}}, "mouseout": {"state": {"target": ["0", "0", "23", "31", "30", "32", "30", "25", "24", "23", "24", "25", "33", "30", "31", "25", "24", "23"], "time": [4366, 6417, 7486, 7553, 7734, 9334, 12767, 14301, 16051, 16452, 16467, 16483, 18019, 18168, 21183, 21933, 21983, 22071]}, "edge": {"target": [], "time": []}}}, "displayed_time": "31.29", "trialTime": 34817, "trial_type": "mouselab-mdp", "trial_index": 10, "time_elapsed": 1015411, "internal_node_id": "0.0-6.0-1.0-1.0"}}, {"uniqueid": "w22423378:a63904059", "current_trial": 11, "dateTime": 1693569016473, "trialdata": {"revealed_states": [], "clicked_states": ["12", "13", "14", "19", "21", "22", "20", "16", "15", "18", "17"], "num_clicks_accrued": [0, 0, 0, 0, 0, 0, 0, 0, 0, 0, 0, 0, 0], "stateRewards": ["", -1, -3, -5, -14, -13, -47, 79, 8, -60, -64, 41, -1, 2, 3, 13, -46, 61, -79, -11, -64, -65, 23, 1, -2, 6, -14, 46, 32, 21, 7, 75, -66, 15], "withholdReward": false, "trial_id": "mdp_trial_3", "block": "test", "trialIndex": 4, "score": 60.95, "costs": -17.05, "simulationMode": [null, null, null, null, null], "rewards": [-1, 2, 3, 13, 61], "path": ["0", "0", "12", "13", "14", "15", "17"], "rt": [35540, 323, 327, 260, 352], "actions": ["right", "right", "right", "up", "right"], "actionTimes": [38621, 39446, 40268, 41030, 41872], "queries": {"click": {"state": {"target": ["12", "13", "14", "19", "21", "22", "20", "16", "15", "18", "17"], "time": [5333, 6819, 8291, 9645, 10929, 14625, 19237, 23901, 27571, 28906, 32393]}, "edge": {"target": [], "time": []}}, "mouseover": {"state": {"target": ["12", "13", "14", "19", "21", "22", "19", "20", "17", "16", "20", "14", "15", "16", "15", "18", "17", "15", "7", "6", "7", "1", "12"], "time": [4088, 6005, 7322, 8821, 10337, 12521, 15187, 15371, 16788, 16937, 18639, 22953, 23121, 23422, 24604, 28186, 29604, 33103, 33555, 33636, 34852, 35291, 36741]}, "edge": {"target": [], "time": []}}, "mouseout": {"state": {"target": ["0", "12", "13", "14", "19", "21", "22", "19", "20", "17", "16", "20", "14", "15", "16", "15", "18", "15", "17", "15", "18", "7", "6", "7", "1", "12", "12"], "time": [3993, 5889, 7272, 8773, 10171, 11804, 15171, 15256, 16639, 16804, 18290, 20223, 23038, 23388, 24321, 28170, 29370, 29471, 33087, 33119, 33202, 33569, 34419, 35035, 35961, 36855, 43706]}, "edge": {"target": [], "time": []}}}, "displayed_time": "42.38", "trialTime": 44562, "trial_type": "mouselab-mdp", "trial_index": 11, "time_elapsed": 1060165, "internal_node_id": "0.0-6.0-1.0-2.0"}}, {"uniqueid": "w22423378:a63904059", "current_trial": 12, "dateTime": 1693569042946, "trialdata": {"revealed_states": [], "clicked_states": ["1", "2", "3", "7", "10", "4"], "num_clicks_accrued": [0, 0, 0, 0, 0, 0, 0, 0, 0, 0, 0, 0, 0], "stateRewards": ["", 1, -1, 1, 13, 31, -56, 72, 2, 41, 5, 63, -2, -3, -2, 3, -71, -26, 52, 13, -31, 24, -67, 2, -2, 5, 4, 66, 43, 72, 9, 86, -26, 44], "withholdReward": false, "trial_id": "mdp_trial_4", "block": "test", "trialIndex": 5, "score": 79.1, "costs": -6.8999999999999995, "simulationMode": [null, null, null, null, null], "rewards": [1, -1, 1, 13, 72], "path": ["0", "0", "1", "2", "3", "4", "7"], "rt": [17434, 388, 262, 172, 588], "actions": ["up", "up", "up", "right", "down"], "actionTimes": [19889, 20770, 21528, 22220, 23324], "queries": {"click": {"state": {"target": ["1", "2", "3", "7", "10", "4"], "time": [4368, 6002, 7440, 9143, 12691, 15876]}, "edge": {"target": [], "time": []}}, "mouseover": {"state": {"target": ["1", "2", "3", "7", "2", "10", "3", "4", "7", "1"], "time": [3265, 5130, 6897, 8197, 9580, 9647, 13830, 14079, 17334, 17700]}, "edge": {"target": [], "time": []}}, "mouseout": {"state": {"target": ["0", "1", "2", "3", "7", "2", "10", "3", "4", "7", "1", "0"], "time": [1800, 4983, 6564, 7914, 9564, 9613, 13800, 13913, 17163, 17363, 17866, 25395]}, "edge": {"target": [], "time": []}}}, "displayed_time": "23.82", "trialTime": 26266, "trial_type": "mouselab-mdp", "trial_index": 12, "time_elapsed": 1086639, "internal_node_id": "0.0-6.0-1.0-3.0"}}, {"uniqueid": "w22423378:a63904059", "current_trial": 13, "dateTime": 1693569063531, "trialdata": {"revealed_states": [], "clicked_states": [], "num_clicks_accrued": [0, 0, 0, 0, 0, 0, 0, 0, 0, 0, 0, 0, 0], "stateRewards": ["", 2, 4, 7, -6, -76, -81, 2, 5, -66, -3, 36, -2, -4, 6, -2, -69, 4, -49, -6, 67, 38, -67, 2, 1, 1, 6, -68, -21, 52, -16, -16, 6, -70], "withholdReward": false, "trial_id": "mdp_trial_5", "block": "test", "trialIndex": 6, "score": -58, "costs": 0, "simulationMode": [null, null, null, null, null], "rewards": [2, 1, 1, 6, -68], "path": ["0", "0", "23", "24", "25", "26", "27"], "rt": [6727, 467, 416, 976, 587], "actions": ["left", "left", "left", "up", "up"], "actionTimes": [10442, 11408, 12323, 13799, 14891], "queries": {"click": {"state": {"target": [], "time": []}, "edge": {"target": [], "time": []}}, "mouseover": {"state": {"target": ["1", "23"], "time": [6794, 7930]}, "edge": {"target": [], "time": []}}, "mouseout": {"state": {"target": ["0", "1", "23"], "time": [6391, 7704, 9386]}, "edge": {"target": [], "time": []}}}, "displayed_time": "17.72", "trialTime": 20375, "trial_type": "mouselab-mdp", "trial_index": 13, "time_elapsed": 1107223, "internal_node_id": "0.0-6.0-1.0-4.0"}}, {"uniqueid": "w22423378:a63904059", "current_trial": 14, "dateTime": 1693569083101, "trialdata": {"revealed_states": [], "clicked_states": ["1", "2", "3", "8"], "num_clicks_accrued": [0, 0, 0, 0, 0, 0, 0, 0, 0, 0, 0, 0, 0], "stateRewards": ["", -1, -3, 3, 5, 56, 39, 50, -1, -80, 33, -46, 1, -2, -6, -8, 87, 48, 54, -11, -20, -64, -54, -2, 3, -7, -3, 12, 88, 35, -16, -46, -70, -3], "withholdReward": false, "trial_id": "mdp_trial_6", "block": "test", "trialIndex": 7, "score": 28.4, "costs": -2.5999999999999996, "simulationMode": [null, null, null, null, null], "rewards": [-1, -3, 3, -1, 33], "path": ["0", "0", "1", "2", "3", "8", "10"], "rt": [11778, 395, 338, 349, 370], "actions": ["up", "up", "up", "left", "down"], "actionTimes": [13605, 14498, 15357, 16200, 17069], "queries": {"click": {"state": {"target": ["1", "2", "3", "8"], "time": [2578, 3494, 4656, 5483]}, "edge": {"target": [], "time": []}}, "mouseover": {"state": {"target": ["1", "2", "3", "8", "11", "9", "9", "11", "9", "2", "1", "1"], "time": [2288, 3084, 4249, 5165, 6166, 7119, 8015, 9648, 10903, 11684, 11847, 12453]}, "edge": {"target": [], "time": []}}, "mouseout": {"state": {"target": ["0", "1", "2", "3", "8", "11", "9", "9", "11", "9", "2", "1"], "time": [2138, 2915, 4199, 5098, 5984, 6919, 7183, 9351, 10435, 11550, 11817, 11981]}, "edge": {"target": [], "time": []}}}, "displayed_time": "17.57", "trialTime": 19349, "trial_type": "mouselab-mdp", "trial_index": 14, "time_elapsed": 1126795, "internal_node_id": "0.0-6.0-1.0-5.0"}}, {"uniqueid": "w22423378:a63904059", "current_trial": 15, "dateTime": 1693569110915, "trialdata": {"revealed_states": [], "clicked_states": ["23", "24", "31", "32", "33", "30", "25"], "num_clicks_accrued": [0, 0, 0, 0, 0, 0, 0, 0, 0, 0, 0, 0, 0], "stateRewards": ["", -1, -2, -8, 8, -27, -82, 19, -14, -62, 4, 1, -2, 2, 6, 10, 73, -51, -2, 2, 73, -48, 54, -1, 2, -4, 11, -25, 47, 86, 15, 33, 43, -42], "withholdReward": false, "trial_id": "mdp_trial_7", "block": "test", "trialIndex": 8, "score": 45.95, "costs": -9.05, "simulationMode": [null, null, null, null, null], "rewards": [-1, 2, -4, 15, 43], "path": ["0", "0", "23", "24", "25", "30", "32"], "rt": [19817, 320, 331, 252, 372], "actions": ["left", "left", "left", "down", "down"], "actionTimes": [22257, 23082, 23911, 24664, 25550], "queries": {"click": {"state": {"target": ["23", "24", "31", "32", "33", "30", "25"], "time": [3867, 5245, 6503, 10037, 13386, 16764, 18195]}, "edge": {"target": [], "time": []}}, "mouseover": {"state": {"target": ["23", "24", "31", "30", "32", "30", "33", "30", "25", "23", "0", "0"], "time": [3248, 4460, 5845, 7128, 8960, 10995, 11193, 14026, 17410, 19396, 19960, 21242]}, "edge": {"target": [], "time": []}}, "mouseout": {"state": {"target": ["1", "0", "23", "24", "31", "30", "32", "30", "33", "30", "25", "23", "0"], "time": [1649, 3079, 4411, 5796, 6977, 8894, 10250, 11111, 13588, 17328, 19209, 19809, 20792]}, "edge": {"target": [], "time": []}}}, "displayed_time": "26.05", "trialTime": 27542, "trial_type": "mouselab-mdp", "trial_index": 15, "time_elapsed": 1154608, "internal_node_id": "0.0-6.0-1.0-6.0"}}, {"uniqueid": "w22423378:a63904059", "current_trial": 16, "dateTime": 1693569140791, "trialdata": {"revealed_states": [], "clicked_states": ["27", "28", "29", "11"], "num_clicks_accrued": [0, 0, 0, 0, 0, 0, 0, 0, 0, 0, 0, 0, 0], "stateRewards": ["", -2, -3, 8, 14, -73, 73, 84, -12, -2, -50, -17, 2, 1, -2, -9, -44, -27, -33, 16, -63, -47, -66, -2, 1, 4, -5, -33, -11, 50, 9, 38, -79, 31], "withholdReward": false, "trial_id": "mdp_trial_8", "block": "test", "trialIndex": 9, "score": 39.4, "costs": -8.6, "simulationMode": [null, null, null, null, null], "rewards": [-2, 1, 4, -5, 50], "path": ["0", "0", "23", "24", "25", "26", "29"], "rt": [20255, 291, 305, 299, 292], "actions": ["left", "left", "left", "up", "left"], "actionTimes": [21485, 22285, 23081, 23892, 24688], "queries": {"click": {"state": {"target": ["27", "28", "29", "11"], "time": [2582, 6585, 10050, 13295]}, "edge": {"target": [], "time": []}}, "mouseover": {"state": {"target": ["28", "27", "26", "28", "26", "29", "33", "9", "11", "26", "25", "24", "23"], "time": [1842, 1958, 3808, 6094, 7032, 7091, 10823, 11262, 11707, 14323, 16528, 17025, 17308]}, "edge": {"target": [], "time": []}}, "mouseout": {"state": {"target": ["0", "28", "27", "26", "28", "26", "29", "33", "9", "11", "26", "25", "24", "23"], "time": [1768, 1859, 3474, 5933, 7013, 7058, 10525, 11124, 11274, 14040, 16341, 16977, 17242, 17507]}, "edge": {"target": [], "time": []}}}, "displayed_time": "25.19", "trialTime": 29668, "trial_type": "mouselab-mdp", "trial_index": 16, "time_elapsed": 1184484, "internal_node_id": "0.0-6.0-1.0-7.0"}}, {"uniqueid": "w22423378:a63904059", "current_trial": 17, "dateTime": 1693569182850, "trialdata": {"revealed_states": [], "clicked_states": ["1", "2", "32", "30", "25", "23", "24"], "num_clicks_accrued": [0, 0, 0, 0, 0, 0, 0, 0, 0, 0, 0, 0, 0], "stateRewards": ["", 1, -2, -8, -13, 4, 34, -84, -4, -49, 88, -70, -1, 3, -4, 10, -77, 13, -34, 15, -21, -16, 27, 1, -2, 8, -8, -6, 38, -26, 6, -15, 66, -3], "withholdReward": false, "trial_id": "mdp_trial_9", "block": "test", "trialIndex": 10, "score": 74.15, "costs": -4.85, "simulationMode": [null, null, null, null, null], "rewards": [1, -2, 8, 6, 66], "path": ["0", "0", "23", "24", "25", "30", "32"], "rt": [17504, 305, 267, 223, 347], "actions": ["left", "left", "left", "down", "down"], "actionTimes": [36494, 37290, 38052, 38793, 39632], "queries": {"click": {"state": {"target": ["1", "2", "32", "30", "25", "23", "24"], "time": [20305, 21671, 24251, 28815, 30100, 32468, 33643]}, "edge": {"target": [], "time": []}}, "mouseover": {"state": {"target": ["1", "2", "10", "28", "24", "31", "32", "30", "25", "26", "27", "26", "25", "30", "25", "24", "23", "0", "23", "24", "0"], "time": [19855, 20933, 22451, 22684, 23120, 23434, 23584, 25066, 26066, 26184, 26333, 28013, 28083, 28353, 29601, 30750, 31200, 31588, 31916, 33017, 34366]}, "edge": {"target": [], "time": []}}, "mouseout": {"state": {"target": ["0", "1", "2", "10", "28", "24", "31", "32", "30", "25", "26", "27", "26", "25", "30", "25", "24", "23", "0", "23", "24", "23", "0"], "time": [19422, 20768, 22367, 22567, 23107, 23135, 23451, 24873, 26050, 26116, 26316, 28000, 28050, 28220, 29333, 30633, 31117, 31452, 31802, 32967, 34183, 34266, 41219]}, "edge": {"target": [], "time": []}}}, "displayed_time": "40.14", "trialTime": 41789, "trial_type": "mouselab-mdp", "trial_index": 17, "time_elapsed": 1226542, "internal_node_id": "0.0-6.0-1.0-8.0"}}, {"uniqueid": "w22423378:a63904059", "current_trial": 18, "dateTime": 1693569221394, "trialdata": {"revealed_states": [], "clicked_states": ["1", "10", "3", "7", "6", "29", "27", "26", "25", "24", "23"], "num_clicks_accrued": [0, 0, 0, 0, 0, 0, 0, 0, 0, 0, 0, 0, 0], "stateRewards": ["", -1, 2, 5, -6, 13, -64, -47, 8, -79, -80, -33, 1, 2, -2, -16, 56, -71, -10, 3, 29, 44, 85, -1, 4, 5, 4, -36, -56, 19, 8, 52, -13, -2], "withholdReward": false, "trial_id": "mdp_trial_10", "block": "test", "trialIndex": 11, "score": 16.95, "costs": -14.05, "simulationMode": [null, null, null, null, null], "rewards": [-1, 4, 5, 4, 19], "path": ["0", "0", "23", "24", "25", "26", "29"], "rt": [30688, 193, 265, 251, 280], "actions": ["left", "left", "left", "up", "left"], "actionTimes": [32931, 33629, 34385, 35138, 35935], "queries": {"click": {"state": {"target": ["1", "10", "3", "7", "6", "29", "27", "26", "25", "24", "23"], "time": [4203, 5599, 8917, 10806, 14260, 17532, 22062, 25484, 26836, 28231, 29309]}, "edge": {"target": [], "time": []}}, "mouseover": {"state": {"target": ["1", "10", "2", "7", "3", "7", "6", "4", "2", "26", "27", "29", "26", "28", "27", "26", "28", "26", "25", "24", "24", "23"], "time": [3654, 5054, 6454, 6703, 6986, 9686, 12470, 14768, 14868, 15535, 15752, 16651, 18318, 19035, 21556, 22517, 23602, 24600, 26234, 27434, 27784, 28667]}, "edge": {"target": [], "time": []}}, "mouseout": {"state": {"target": ["0", "1", "10", "2", "7", "3", "7", "7", "6", "4", "2", "26", "27", "29", "26", "28", "27", "26", "28", "26", "26", "25", "25", "24", "24"], "time": [971, 4754, 6403, 6520, 6903, 9519, 11020, 11692, 14738, 14818, 15069, 15719, 16470, 18185, 18868, 21404, 22467, 23467, 24517, 25693, 26101, 27049, 27418, 27585, 28650]}, "edge": {"target": [], "time": []}}}, "displayed_time": "36.45", "trialTime": 38306, "trial_type": "mouselab-mdp", "trial_index": 18, "time_elapsed": 1265087, "internal_node_id": "0.0-6.0-1.0-9.0"}}, {"uniqueid": "w22423378:a63904059", "current_trial": 19, "dateTime": 1693569248371, "trialdata": {"revealed_states": [], "clicked_states": ["21", "22", "16", "15", "14", "13", "12"], "num_clicks_accrued": [0, 0, 0, 0, 0, 0, 0, 0, 0, 0, 0, 0, 0], "stateRewards": ["", 1, 2, -5, 14, 54, -14, -25, 16, -5, -87, 78, -1, 1, 3, -3, 52, 53, 53, -10, 73, -69, -48, 2, 3, 1, 8, -62, -7, 85, 7, 82, 52, -28], "withholdReward": false, "trial_id": "mdp_trial_11", "block": "test", "trialIndex": 12, "score": 42.95, "costs": -9.049999999999999, "simulationMode": [null, null, null, null, null], "rewards": [-1, 1, 3, -3, 52], "path": ["0", "0", "12", "13", "14", "15", "16"], "rt": [19662, 225, 260, 168, 234], "actions": ["right", "right", "right", "up", "up"], "actionTimes": [21942, 22669, 23438, 24113, 24847], "queries": {"click": {"state": {"target": ["21", "22", "16", "15", "14", "13", "12"], "time": [3638, 6792, 10810, 14967, 16328, 17488, 18530]}, "edge": {"target": [], "time": []}}, "mouseover": {"state": {"target": ["12", "22", "21", "22", "19", "20", "20", "16", "6", "15", "14", "13", "12", "0"], "time": [2783, 2844, 3043, 4577, 7392, 7509, 8460, 10360, 11460, 14512, 15742, 16776, 17976, 19658]}, "edge": {"target": [], "time": []}}, "mouseout": {"state": {"target": ["23", "12", "22", "21", "22", "19", "20", "20", "16", "6", "15", "14", "13", "12", "0"], "time": [1393, 2797, 2895, 4444, 7343, 7476, 7709, 9778, 11018, 11609, 15459, 16530, 17942, 19225, 26174]}, "edge": {"target": [], "time": []}}}, "displayed_time": "25.36", "trialTime": 26744, "trial_type": "mouselab-mdp", "trial_index": 19, "time_elapsed": 1292064, "internal_node_id": "0.0-6.0-1.0-10.0"}}, {"uniqueid": "w22423378:a63904059", "current_trial": 20, "dateTime": 1693569275511, "trialdata": {"revealed_states": [], "clicked_states": ["3", "5", "9", "10", "7"], "num_clicks_accrued": [0, 0, 0, 0, 0, 0, 0, 0, 0, 0, 0, 0, 0], "stateRewards": ["", 2, 2, 3, -15, 23, -14, 73, -7, -32, -20, -6, 1, 1, -5, -12, 73, 6, -84, 11, -81, -57, 13, -2, -1, -4, -8, -52, -58, 49, 13, 5, -41, -41], "withholdReward": false, "trial_id": "mdp_trial_12", "block": "test", "trialIndex": 13, "score": 55.45, "costs": -9.55, "simulationMode": [null, null, null, null, null], "rewards": [2, 2, 3, -15, 73], "path": ["0", "0", "1", "2", "3", "4", "7"], "rt": [18823, 308, 326, 319, 601], "actions": ["up", "up", "up", "right", "down"], "actionTimes": [21333, 22148, 22963, 23775, 24873], "queries": {"click": {"state": {"target": ["3", "5", "9", "10", "7"], "time": [3787, 5320, 8887, 11744, 15021]}, "edge": {"target": [], "time": []}}, "mouseover": {"state": {"target": ["1", "2", "3", "5", "9", "8", "10", "2", "7", "28", "27", "1"], "time": [2938, 2988, 3106, 4288, 6005, 9537, 9670, 12553, 12886, 16187, 17603, 19172]}, "edge": {"target": [], "time": []}}, "mouseout": {"state": {"target": ["0", "1", "2", "3", "5", "9", "8", "10", "2", "7", "28", "27", "1"], "time": [1992, 2971, 3056, 4222, 5771, 9522, 9605, 12436, 12769, 15753, 17536, 18703, 26338]}, "edge": {"target": [], "time": []}}}, "displayed_time": "25.37", "trialTime": 26915, "trial_type": "mouselab-mdp", "trial_index": 20, "time_elapsed": 1319203, "internal_node_id": "0.0-6.0-1.0-11.0"}}, {"uniqueid": "w22423378:a63904059", "current_trial": 21, "dateTime": 1693569303022, "trialdata": {"revealed_states": [], "clicked_states": ["23", "24", "25", "26", "27", "28", "29"], "num_clicks_accrued": [0, 0, 0, 0, 0, 0, 0, 0, 0, 0, 0, 0, 0], "stateRewards": ["", 1, -2, -8, -3, 31, -84, -55, -14, 15, -58, 17, -2, -3, 7, 7, -12, 48, 67, 4, -44, -68, 46, 2, 3, -5, -7, 76, 27, 5, 11, 57, 52, 59], "withholdReward": false, "trial_id": "mdp_trial_13", "block": "test", "trialIndex": 14, "score": 59.95, "costs": -9.05, "simulationMode": [null, null, null, null, null], "rewards": [2, 3, -5, -7, 76], "path": ["0", "0", "23", "24", "25", "26", "27"], "rt": [19462, 254, 254, 716, 274], "actions": ["left", "left", "left", "up", "up"], "actionTimes": [21832, 22583, 23347, 24561, 25335], "queries": {"click": {"state": {"target": ["23", "24", "25", "26", "27", "28", "29"], "time": [4643, 5894, 7237, 8465, 9808, 12995, 17314]}, "edge": {"target": [], "time": []}}, "mouseover": {"state": {"target": ["23", "24", "25", "26", "27", "28", "29", "27", "29", "27", "26", "24", "23"], "time": [4166, 5127, 6594, 7776, 9226, 10826, 14692, 16131, 16624, 17793, 19213, 19375, 19641]}, "edge": {"target": [], "time": []}}, "mouseout": {"state": {"target": ["0", "23", "23", "24", "25", "26", "27", "28", "27", "29", "27", "29", "27", "26", "24", "23"], "time": [3447, 4851, 5111, 6427, 7661, 9193, 10526, 13206, 14392, 15842, 16611, 17710, 19185, 19229, 19408, 19792]}, "edge": {"target": [], "time": []}}}, "displayed_time": "25.83", "trialTime": 27284, "trial_type": "mouselab-mdp", "trial_index": 21, "time_elapsed": 1346715, "internal_node_id": "0.0-6.0-1.0-12.0"}}, {"uniqueid": "w22423378:a63904059", "current_trial": 22, "dateTime": 1693569332603, "trialdata": {"revealed_states": [], "clicked_states": ["1", "32", "21", "16", "19", "14", "13", "12"], "num_clicks_accrued": [0, 0, 0, 0, 0, 0, 0, 0, 0, 0, 0, 0, 0], "stateRewards": ["", 2, -1, 8, -2, -16, 69, -39, -7, -13, -27, -86, 2, -2, 2, 13, -34, -16, -20, -5, 19, 81, 32, -2, -1, 2, -14, 20, 80, 58, 4, 70, 12, 73], "withholdReward": false, "trial_id": "mdp_trial_14", "block": "test", "trialIndex": 15, "score": 69.2, "costs": -8.799999999999999, "simulationMode": [null, null, null, null, null], "rewards": [2, -2, 2, -5, 81], "path": ["0", "0", "12", "13", "14", "19", "21"], "rt": [21136, 269, 291, 169, 307], "actions": ["right", "right", "right", "down", "down"], "actionTimes": [24361, 25128, 25914, 26612, 27428], "queries": {"click": {"state": {"target": ["1", "32", "21", "16", "19", "14", "13", "12"], "time": [5374, 7197, 10506, 14084, 17335, 18511, 19786, 20781]}, "edge": {"target": [], "time": []}}, "mouseover": {"state": {"target": ["1", "1", "23", "31", "32", "21", "19", "14", "15", "15", "16", "15", "14", "19", "14", "13", "12", "0"], "time": [4677, 4940, 5821, 5888, 6462, 8838, 10988, 11040, 11070, 11356, 11488, 14778, 14939, 15188, 17939, 19020, 20270, 21837]}, "edge": {"target": [], "time": []}}, "mouseout": {"state": {"target": ["0", "1", "1", "23", "31", "32", "32", "21", "19", "14", "15", "15", "16", "15", "14", "19", "14", "13", "12"], "time": [2354, 4689, 5789, 5855, 6021, 7410, 8105, 10974, 11024, 11057, 11104, 11421, 14738, 14847, 14988, 17888, 18955, 20222, 21671]}, "edge": {"target": [], "time": []}}}, "displayed_time": "27.94", "trialTime": 29350, "trial_type": "mouselab-mdp", "trial_index": 22, "time_elapsed": 1376297, "internal_node_id": "0.0-6.0-1.0-13.0"}}, {"uniqueid": "w22423378:a63904059", "current_trial": 23, "dateTime": 1693569376417, "trialdata": {"revealed_states": [], "clicked_states": ["1", "9", "5", "6", "11", "27", "32", "21", "30", "25", "24", "23"], "num_clicks_accrued": [0, 0, 0, 0, 0, 0, 0, 0, 0, 0, 0, 0, 0], "stateRewards": ["", 2, 3, -2, -8, -8, -41, 74, 15, -23, -80, 1, 1, 3, 3, -15, -63, -78, 67, 13, 75, -41, 86, 2, -2, 6, -3, -8, -49, 50, -6, 83, 74, 80], "withholdReward": false, "trial_id": "mdp_trial_15", "block": "test", "trialIndex": 16, "score": 56.599999999999994, "costs": -17.400000000000002, "simulationMode": [null, null, null, null, null], "rewards": [2, -2, 6, -6, 74], "path": ["0", "0", "23", "24", "25", "30", "32"], "rt": [35241, 253, 258, 172, 382], "actions": ["left", "left", "left", "down", "down"], "actionTimes": [36761, 37526, 38284, 38961, 39837], "queries": {"click": {"state": {"target": ["1", "9", "5", "6", "11", "27", "32", "21", "30", "25", "24", "23"], "time": [3582, 5000, 8369, 11669, 15044, 18318, 22579, 26649, 30015, 31214, 32294, 33265]}, "edge": {"target": [], "time": []}}, "mouseover": {"state": {"target": ["1", "8", "9", "5", "6", "4", "3", "8", "11", "27", "29", "30", "32", "33", "30", "21", "31", "30", "25", "24", "23"], "time": [2925, 4107, 4156, 5590, 9273, 12091, 12108, 12147, 12405, 16140, 18922, 21772, 21989, 23272, 24854, 25659, 27938, 29237, 30755, 31721, 32738]}, "edge": {"target": [], "time": []}}, "mouseout": {"state": {"target": ["0", "1", "8", "9", "5", "6", "4", "3", "8", "11", "27", "29", "30", "32", "33", "30", "21", "31", "30", "25", "24"], "time": [2541, 3788, 4122, 5473, 9023, 12089, 12106, 12146, 12389, 15905, 18856, 21742, 21959, 23144, 24838, 24871, 27289, 28073, 30521, 31622, 32703]}, "edge": {"target": [], "time": []}}}, "displayed_time": "40.34", "trialTime": 43603, "trial_type": "mouselab-mdp", "trial_index": 23, "time_elapsed": 1420111, "internal_node_id": "0.0-6.0-1.0-14.0"}}, {"uniqueid": "w22423378:a63904059", "current_trial": 24, "dateTime": 1693569417231, "trialdata": {"revealed_states": [], "clicked_states": ["9", "27", "32", "21", "16", "5", "17", "18"], "num_clicks_accrued": [0, 0, 0, 0, 0, 0, 0, 0, 0, 0, 0, 0, 0], "stateRewards": ["", 2, 3, -1, 6, 44, -4, -59, -14, -3, 64, 16, 1, -3, 3, 6, 3, 49, 19, 3, -49, -14, -86, 1, 2, -3, -8, -33, 14, 32, -13, -77, -47, -67], "withholdReward": false, "trial_id": "mdp_trial_16", "block": "test", "trialIndex": 17, "score": 38.8, "costs": -17.2, "simulationMode": [null, null, null, null, null], "rewards": [1, -3, 3, 6, 49], "path": ["0", "0", "12", "13", "14", "15", "17"], "rt": [33848, 342, 283, 299, 238], "actions": ["right", "right", "right", "up", "right"], "actionTimes": [35664, 36511, 37297, 38097, 38836], "queries": {"click": {"state": {"target": ["9", "27", "32", "21", "16", "5", "17", "18"], "time": [3680, 6645, 10159, 13455, 16772, 20622, 24007, 28451]}, "edge": {"target": [], "time": []}}, "mouseover": {"state": {"target": ["1", "2", "3", "9", "11", "27", "29", "30", "32", "21", "21", "19", "14", "15", "16", "6", "5", "5", "6", "17", "16", "6", "18", "6", "13", "12"], "time": [2836, 3003, 3099, 3233, 4183, 4433, 7866, 9366, 9632, 10715, 11116, 13949, 13981, 14115, 14431, 17531, 17698, 20035, 21180, 21649, 24664, 24981, 27966, 29965, 32435, 32714]}, "edge": {"target": [], "time": []}}, "mouseout": {"state": {"target": ["23", "1", "2", "3", "9", "11", "27", "29", "30", "32", "21", "21", "19", "14", "15", "16", "6", "5", "5", "6", "16", "17", "16", "6", "18", "6", "18", "13"], "time": [882, 2987, 3066, 3132, 4149, 4266, 7483, 9232, 9549, 10600, 10865, 13933, 13965, 14036, 14316, 17416, 17547, 19631, 21064, 21230, 21381, 24564, 24696, 27622, 28668, 32315, 32396, 32545]}, "edge": {"target": [], "time": []}}}, "displayed_time": "39.33", "trialTime": 40578, "trial_type": "mouselab-mdp", "trial_index": 24, "time_elapsed": 1460923, "internal_node_id": "0.0-6.0-1.0-15.0"}}, {"uniqueid": "w22423378:a63904059", "current_trial": 25, "dateTime": 1693569453357, "trialdata": {"revealed_states": [], "clicked_states": ["9", "27", "32", "21", "30", "25", "24", "23", "16"], "num_clicks_accrued": [0, 0, 0, 0, 0, 0, 0, 0, 0, 0, 0, 0, 0], "stateRewards": ["", 2, -1, -4, -13, 74, 77, 3, 2, -43, -2, -11, 2, 3, 7, 11, -26, -29, -33, -3, -3, -13, -3, 1, 3, -7, 14, -59, 33, 9, -5, 34, 79, 68], "withholdReward": false, "trial_id": "mdp_trial_17", "block": "test", "trialIndex": 18, "score": 57.65, "costs": -13.35, "simulationMode": [null, null, null, null, null], "rewards": [1, 3, -7, -5, 79], "path": ["0", "0", "23", "24", "25", "30", "32"], "rt": [29271, 195, 217, 171, 327], "actions": ["left", "left", "left", "down", "down"], "actionTimes": [31107, 31809, 32529, 33218, 34039], "queries": {"click": {"state": {"target": ["9", "27", "32", "21", "30", "25", "24", "23", "16"], "time": [4333, 8330, 11901, 15808, 19062, 20255, 21145, 22332, 24675]}, "edge": {"target": [], "time": []}}, "mouseover": {"state": {"target": ["1", "2", "3", "9", "9", "11", "27", "27", "26", "25", "30", "32", "21", "30", "25", "24", "23", "0", "12", "16", "6", "6", "0"], "time": [2678, 2762, 2844, 3202, 3827, 4976, 5394, 7793, 8943, 9009, 9176, 9359, 12575, 17176, 19808, 20624, 21641, 23092, 23710, 24041, 25975, 26908, 28840]}, "edge": {"target": [], "time": []}}, "mouseout": {"state": {"target": ["12", "0", "1", "2", "3", "9", "9", "9", "11", "27", "27", "26", "25", "30", "32", "21", "30", "25", "24", "23", "0", "12", "16", "6", "6", "16"], "time": [910, 2586, 2735, 2811, 2911, 3344, 4541, 4894, 5076, 7196, 8893, 8993, 9092, 9260, 12410, 16410, 19693, 20594, 21608, 23041, 23258, 23725, 25675, 26624, 27474, 27761]}, "edge": {"target": [], "time": []}}}, "displayed_time": "34.55", "trialTime": 35887, "trial_type": "mouselab-mdp", "trial_index": 25, "time_elapsed": 1497050, "internal_node_id": "0.0-6.0-1.0-16.0"}}, {"uniqueid": "w22423378:a63904059", "current_trial": 26, "dateTime": 1693569473463, "trialdata": {"revealed_states": [], "clicked_states": ["5", "9"], "num_clicks_accrued": [0, 0, 0, 0, 0, 0, 0, 0, 0, 0, 0, 0, 0], "stateRewards": ["", 2, -1, -1, -9, -81, -30, 55, -6, 78, 25, 62, 2, 4, -1, 9, -85, 1, -19, 1, -60, 12, -34, 1, 4, -1, -13, -24, -16, -83, -8, 16, 43, 9], "withholdReward": false, "trial_id": "mdp_trial_18", "block": "test", "trialIndex": 19, "score": 67.7, "costs": -4.3, "simulationMode": [null, null, null, null, null], "rewards": [2, -1, -1, -6, 78], "path": ["0", "0", "1", "2", "3", "8", "9"], "rt": [13043, 224, 216, 553, 732], "actions": ["up", "up", "up", "left", "up"], "actionTimes": [14166, 14885, 15628, 16679, 17910], "queries": {"click": {"state": {"target": ["5", "9"], "time": [3750, 7052]}, "edge": {"target": [], "time": []}}, "mouseover": {"state": {"target": ["1", "2", "3", "5", "9", "11", "27", "11", "8", "3", "2", "1"], "time": [1826, 1892, 2211, 3165, 5059, 7575, 7958, 10724, 10775, 11031, 11091, 11247]}, "edge": {"target": [], "time": []}}, "mouseout": {"state": {"target": ["0", "1", "2", "3", "5", "9", "11", "27", "11", "8", "3", "2"], "time": [1795, 1862, 1943, 2558, 4442, 7541, 7625, 10661, 10741, 10914, 11060, 11158]}, "edge": {"target": [], "time": []}}}, "displayed_time": "18.41", "trialTime": 19879, "trial_type": "mouselab-mdp", "trial_index": 26, "time_elapsed": 1517155, "internal_node_id": "0.0-6.0-1.0-17.0"}}, {"uniqueid": "w22423378:a63904059", "current_trial": 27, "dateTime": 1693569515097, "trialdata": {"revealed_states": [], "clicked_states": ["5", "16", "21", "32", "27", "9", "28", "29"], "num_clicks_accrued": [0, 0, 0, 0, 0, 0, 0, 0, 0, 0, 0, 0, 0], "stateRewards": ["", -1, 3, 1, -11, -22, -36, 19, -5, -70, -52, 50, -2, -4, 4, -2, -41, -83, 29, -2, 22, 10, -6, -2, 3, -2, 14, 54, 44, 77, -9, -65, -37, -40], "withholdReward": false, "trial_id": "mdp_trial_19", "block": "test", "trialIndex": 20, "score": 72.8, "costs": -17.2, "simulationMode": [null, null, null, null, null], "rewards": [-2, 3, -2, 14, 77], "path": ["0", "0", "23", "24", "25", "26", "29"], "rt": [33982, 293, 237, 282, 262], "actions": ["left", "left", "left", "up", "left"], "actionTimes": [36561, 37359, 38103, 38881, 39644], "queries": {"click": {"state": {"target": ["5", "16", "21", "32", "27", "9", "28", "29"], "time": [4746, 8835, 12231, 15628, 18969, 23418, 26775, 30237]}, "edge": {"target": [], "time": []}}, "mouseover": {"state": {"target": ["1", "4", "5", "5", "6", "16", "15", "14", "19", "21", "32", "25", "26", "27", "29", "11", "9", "11", "28", "26", "29", "27", "26", "23"], "time": [3555, 3600, 3666, 3934, 6450, 8269, 9298, 9348, 9465, 9649, 13232, 16198, 16248, 16565, 19498, 22515, 22999, 23981, 24364, 27251, 27287, 32297, 33864, 34547]}, "edge": {"target": [], "time": []}}, "mouseout": {"state": {"target": ["1", "1", "4", "5", "5", "6", "16", "16", "15", "14", "19", "21", "32", "25", "26", "27", "29", "11", "9", "11", "27", "28", "26", "29", "27", "26"], "time": [1766, 3583, 3632, 3716, 6051, 8168, 9033, 9282, 9332, 9398, 9565, 12441, 16168, 16231, 16298, 19465, 22454, 22581, 23948, 24014, 24197, 27248, 27263, 32113, 33646, 34180]}, "edge": {"target": [], "time": []}}}, "displayed_time": "40.15", "trialTime": 41404, "trial_type": "mouselab-mdp", "trial_index": 27, "time_elapsed": 1558789, "internal_node_id": "0.0-6.0-1.0-18.0"}}, {"uniqueid": "w22423378:a63904059", "current_trial": 28, "dateTime": 1693569567990, "trialdata": {"revealed_states": [], "clicked_states": ["27", "29", "28", "32", "21", "16", "6", "18", "17", "9", "5"], "num_clicks_accrued": [0, 0, 0, 0, 0, 0, 0, 0, 0, 0, 0, 0, 0], "stateRewards": ["", 1, -2, -3, 14, -42, -87, -37, -11, -50, 33, -44, -2, 4, -7, 13, 48, -75, -66, 12, 23, -2, 82, 1, -4, 3, 12, 51, -15, -26, -11, -52, -29, 82], "withholdReward": false, "trial_id": "mdp_trial_20", "block": "test", "trialIndex": 21, "score": 32.35000000000001, "costs": -23.649999999999995, "simulationMode": [null, null, null, null, null], "rewards": [-2, 4, -7, 13, 48], "path": ["0", "0", "12", "13", "14", "15", "16"], "rt": [44842, 221, 186, 210, 412], "actions": ["right", "right", "right", "up", "up"], "actionTimes": [46670, 47384, 48067, 48790, 49725], "queries": {"click": {"state": {"target": ["27", "29", "28", "32", "21", "16", "6", "18", "17", "9", "5"], "time": [3714, 7315, 10738, 14230, 18128, 21499, 25097, 28935, 32219, 36566, 40590]}, "edge": {"target": [], "time": []}}, "mouseover": {"state": {"target": ["28", "27", "29", "26", "28", "27", "26", "25", "30", "32", "31", "21", "19", "14", "15", "16", "6", "5", "6", "5", "5", "18", "15", "17", "6", "4", "9", "5", "6", "16", "6", "5", "4", "18", "16", "6", "12"], "time": [2848, 3286, 4348, 7815, 7881, 11764, 12431, 12497, 12671, 12864, 15197, 16913, 18563, 18598, 18629, 18935, 21963, 22446, 24263, 25812, 26129, 28330, 29429, 29595, 35734, 35778, 36114, 37261, 37377, 37778, 39861, 40027, 41261, 42160, 42594, 43977, 44780]}, "edge": {"target": [], "time": []}}, "mouseout": {"state": {"target": ["23", "28", "27", "29", "26", "28", "27", "26", "25", "30", "32", "31", "21", "19", "14", "15", "16", "6", "5", "6", "5", "5", "18", "15", "17", "6", "4", "9", "5", "6", "16", "6", "5", "4", "18", "16", "6", "12"], "time": [836, 2898, 4315, 7799, 7848, 11665, 12414, 12464, 12547, 12847, 14998, 15981, 18547, 18596, 18613, 18663, 21929, 22096, 24030, 25302, 25829, 27972, 29413, 29478, 32761, 35747, 35794, 37029, 37310, 37495, 39819, 39877, 41229, 41294, 42294, 43883, 44430, 51811]}, "edge": {"target": [], "time": []}}}, "displayed_time": "50.23", "trialTime": 52652, "trial_type": "mouselab-mdp", "trial_index": 28, "time_elapsed": 1611682, "internal_node_id": "0.0-6.0-1.0-19.0"}}, {"uniqueid": "w22423378:a63904059", "current_trial": 29, "dateTime": 1693569600638, "trialdata": {"revealed_states": [], "clicked_states": ["6", "29", "32", "21", "16", "20"], "num_clicks_accrued": [0, 0, 0, 0, 0, 0, 0, 0, 0, 0, 0, 0, 0], "stateRewards": ["", 2, 3, 3, 10, 19, -21, 6, 9, 54, 68, 16, 2, 2, -6, -8, 40, -2, -75, -2, -42, 55, 59, -1, 2, 4, -14, 11, -34, -30, -6, 61, -53, 13], "withholdReward": false, "trial_id": "mdp_trial_21", "block": "test", "trialIndex": 22, "score": 38.1, "costs": -12.9, "simulationMode": [null, null, null, null, null], "rewards": [2, 2, -6, -2, 55], "path": ["0", "0", "12", "13", "14", "19", "21"], "rt": [25922, 229, 215, 161, 290], "actions": ["right", "right", "right", "down", "down"], "actionTimes": [27479, 28202, 28920, 29583, 30379], "queries": {"click": {"state": {"target": ["6", "29", "32", "21", "16", "20"], "time": [3379, 6838, 10283, 13663, 17212, 21512]}, "edge": {"target": [], "time": []}}, "mouseover": {"state": {"target": ["1", "4", "6", "4", "2", "10", "26", "29", "26", "28", "24", "31", "32", "21", "16", "15", "14", "19", "20", "19", "22", "22", "21"], "time": [2371, 2537, 2771, 3792, 3821, 3839, 4039, 4187, 7637, 7870, 7970, 8087, 9603, 11153, 14586, 18037, 18057, 18086, 20919, 22052, 22319, 23118, 23603]}, "edge": {"target": [], "time": []}}, "mouseout": {"state": {"target": ["13", "0", "1", "4", "6", "4", "2", "10", "26", "29", "26", "28", "24", "31", "32", "21", "16", "15", "14", "19", "21", "21", "20", "19", "22", "22", "21"], "time": [454, 2293, 2410, 2570, 3789, 3806, 3837, 3854, 4087, 7538, 7688, 7954, 8004, 9388, 10704, 14170, 18035, 18054, 18070, 18101, 18218, 18602, 21715, 22119, 22652, 23269, 32017]}, "edge": {"target": [], "time": []}}}, "displayed_time": "30.89", "trialTime": 32394, "trial_type": "mouselab-mdp", "trial_index": 29, "time_elapsed": 1644330, "internal_node_id": "0.0-6.0-1.0-20.0"}}, {"uniqueid": "w22423378:a63904059", "current_trial": 30, "dateTime": 1693569623845, "trialdata": {"revealed_states": [], "clicked_states": ["6", "17", "5", "7"], "num_clicks_accrued": [0, 0, 0, 0, 0, 0, 0, 0, 0, 0, 0, 0, 0], "stateRewards": ["", 2, 3, -6, -5, -3, 55, 40, 11, 61, 11, 51, 2, -4, -6, 9, -25, 29, -15, -6, 7, -77, -2, -2, -4, 1, 14, -43, -1, 56, -12, -54, 41, -74], "withholdReward": false, "trial_id": "mdp_trial_22", "block": "test", "trialIndex": 23, "score": 40.4, "costs": -8.6, "simulationMode": [null, null, null, null, null], "rewards": [2, 3, -6, -5, 55], "path": ["0", "0", "1", "2", "3", "4", "6"], "rt": [16600, 169, 191, 203, 162], "actions": ["up", "up", "up", "right", "right"], "actionTimes": [18475, 19141, 19845, 20556, 21214], "queries": {"click": {"state": {"target": ["6", "17", "5", "7"], "time": [3245, 6831, 9816, 14119]}, "edge": {"target": [], "time": []}}, "mouseover": {"state": {"target": ["1", "4", "6", "16", "17", "16", "5", "3", "5", "4", "7", "6"], "time": [2371, 2419, 2721, 3970, 4152, 7385, 7603, 8051, 8551, 13409, 13567, 15567]}, "edge": {"target": [], "time": []}}, "mouseout": {"state": {"target": ["0", "1", "4", "6", "16", "17", "16", "6", "5", "3", "5", "4", "7"], "time": [2358, 2385, 2452, 3937, 4018, 7041, 7401, 7451, 8020, 8518, 13405, 13500, 15501]}, "edge": {"target": [], "time": []}}}, "displayed_time": "21.72", "trialTime": 22971, "trial_type": "mouselab-mdp", "trial_index": 30, "time_elapsed": 1667538, "internal_node_id": "0.0-6.0-1.0-21.0"}}, {"uniqueid": "w22423378:a63904059", "current_trial": 31, "dateTime": 1693569642799, "trialdata": {"revealed_states": [], "clicked_states": [], "num_clicks_accrued": [0, 0, 0, 0, 0, 0, 0, 0, 0, 0, 0, 0, 0], "stateRewards": ["", -2, 4, -3, -13, 63, -36, 62, 11, 78, 34, -51, 2, -2, 8, -6, -40, -18, 31, 9, 64, 39, 79, 1, 4, -4, 15, -12, 76, 73, -10, -77, 86, -4], "withholdReward": false, "trial_id": "mdp_trial_23", "block": "test", "trialIndex": 24, "score": 88, "costs": 0, "simulationMode": [null, null, null, null, null], "rewards": [-2, 4, -3, 11, 78], "path": ["0", "0", "1", "2", "3", "8", "9"], "rt": [7040, 72, 118, 712, 395], "actions": ["up", "up", "up", "left", "up"], "actionTimes": [9299, 9865, 10492, 11705, 12603], "queries": {"click": {"state": {"target": [], "time": []}, "edge": {"target": [], "time": []}}, "mouseover": {"state": {"target": ["1", "1", "2", "8", "9"], "time": [5406, 5540, 6724, 6926, 7123]}, "edge": {"target": [], "time": []}}, "mouseout": {"state": {"target": ["6", "0", "1", "1", "2", "8"], "time": [1306, 5327, 5474, 6695, 6776, 6973]}, "edge": {"target": [], "time": []}}}, "displayed_time": "16.26", "trialTime": 18699, "trial_type": "mouselab-mdp", "trial_index": 31, "time_elapsed": 1686492, "internal_node_id": "0.0-6.0-1.0-22.0"}}, {"uniqueid": "w22423378:a63904059", "current_trial": 32, "dateTime": 1693569666003, "trialdata": {"revealed_states": [], "clicked_states": ["9", "27", "29"], "num_clicks_accrued": [0, 0, 0, 0, 0, 0, 0, 0, 0, 0, 0, 0, 0], "stateRewards": ["", 1, 2, -8, 9, 18, -83, -11, 6, -64, -48, 17, -2, -2, -5, -3, -24, -3, -86, -2, 48, -41, -22, -2, 4, 7, 8, 81, 13, -48, 10, 61, 19, 57], "withholdReward": false, "trial_id": "mdp_trial_24", "block": "test", "trialIndex": 25, "score": 91.55, "costs": -6.449999999999999, "simulationMode": [null, null, null, null, null], "rewards": [-2, 4, 7, 8, 81], "path": ["0", "0", "23", "24", "25", "26", "27"], "rt": [14964, 134, 171, 1214, 340], "actions": ["left", "left", "left", "up", "up"], "actionTimes": [16928, 17563, 18235, 19943, 20790], "queries": {"click": {"state": {"target": ["9", "27", "29"], "time": [3208, 6570, 9798]}, "edge": {"target": [], "time": []}}, "mouseover": {"state": {"target": ["1", "10", "8", "9", "11", "27", "27", "27", "29", "26", "24", "23", "28", "27"], "time": [2312, 2361, 2447, 2762, 3795, 4145, 4696, 5011, 7343, 10961, 13727, 13876, 15877, 16077]}, "edge": {"target": [], "time": []}}, "mouseout": {"state": {"target": ["9", "8", "0", "1", "10", "8", "9", "11", "27", "27", "27", "27", "29", "27", "26", "24", "23", "28"], "time": [849, 895, 2258, 2345, 2413, 2565, 3762, 3945, 4262, 4712, 6784, 7078, 9992, 10694, 13543, 13814, 15846, 15893]}, "edge": {"target": [], "time": []}}}, "displayed_time": "21.30", "trialTime": 22927, "trial_type": "mouselab-mdp", "trial_index": 32, "time_elapsed": 1709695, "internal_node_id": "0.0-6.0-1.0-23.0"}}, {"uniqueid": "w22423378:a63904059", "current_trial": 33, "dateTime": 1693569693311, "trialdata": {"revealed_states": [], "clicked_states": ["6", "11", "9", "10"], "num_clicks_accrued": [0, 0, 0, 0, 0, 0, 0, 0, 0, 0, 0, 0, 0], "stateRewards": ["", -2, 4, -7, -3, -76, 39, -28, 10, 14, 12, 60, 2, -3, 6, -10, 88, -34, -41, -3, 72, -13, -56, 1, 3, 2, 8, -51, 23, -57, 1, 14, -46, -16], "withholdReward": false, "trial_id": "mdp_trial_25", "block": "test", "trialIndex": 26, "score": 56.4, "costs": -8.6, "simulationMode": [null, null, null, null, null], "rewards": [-2, 4, -7, 10, 60], "path": ["0", "0", "1", "2", "3", "8", "11"], "rt": [19519, 118, 219, 332, 178], "actions": ["up", "up", "up", "left", "left"], "actionTimes": [22676, 23298, 24017, 24862, 25541], "queries": {"click": {"state": {"target": ["6", "11", "9", "10"], "time": [5219, 8651, 13058, 16357]}, "edge": {"target": [], "time": []}}, "mouseover": {"state": {"target": ["1", "4", "5", "6", "4", "8", "11", "9", "5", "9", "8", "10", "11"], "time": [3952, 4028, 4332, 4680, 5713, 5962, 6046, 9311, 9611, 12478, 13545, 13794, 17127]}, "edge": {"target": [], "time": []}}, "mouseout": {"state": {"target": ["27", "28", "0", "1", "4", "5", "6", "4", "8", "11", "9", "5", "9", "8", "10"], "time": [1695, 1746, 3933, 3963, 4095, 4595, 5696, 5729, 6012, 8851, 9328, 12436, 13495, 13629, 16911]}, "edge": {"target": [], "time": []}}}, "displayed_time": "26.06", "trialTime": 27040, "trial_type": "mouselab-mdp", "trial_index": 33, "time_elapsed": 1737004, "internal_node_id": "0.0-6.0-1.0-24.0"}}, {"uniqueid": "w22423378:a63904059", "current_trial": 34, "dateTime": 1693569713799, "trialdata": {"revealed_states": [], "clicked_states": ["32", "31"], "num_clicks_accrued": [0, 0, 0, 0, 0, 0, 0, 0, 0, 0, 0, 0, 0], "stateRewards": ["", 1, -3, 4, 13, -72, 52, 5, 5, -58, 5, 14, 2, 1, 3, -14, -86, -4, 73, 6, -58, -50, 49, 2, -3, -4, 2, 33, -41, 42, -11, 81, 45, 53], "withholdReward": false, "trial_id": "mdp_trial_26", "block": "test", "trialIndex": 27, "score": 60.7, "costs": -4.3, "simulationMode": [null, null, null, null, null], "rewards": [2, -3, -4, -11, 81], "path": ["0", "0", "23", "24", "25", "30", "31"], "rt": [13140, 230, 260, 171, 298], "actions": ["left", "left", "left", "down", "right"], "actionTimes": [15579, 16310, 17071, 17765, 18577], "queries": {"click": {"state": {"target": ["32", "31"], "time": [4285, 8602]}, "edge": {"target": [], "time": []}}, "mouseover": {"state": {"target": ["0", "32", "21", "31", "30", "33", "30"], "time": [2814, 3194, 5497, 8211, 9259, 9392, 12860]}, "edge": {"target": [], "time": []}}, "mouseout": {"state": {"target": ["11", "28", "24", "0", "0", "32", "21", "31", "30", "33", "30"], "time": [709, 927, 975, 1945, 2830, 5043, 6110, 9225, 9310, 12377, 13408]}, "edge": {"target": [], "time": []}}}, "displayed_time": "19.08", "trialTime": 20229, "trial_type": "mouselab-mdp", "trial_index": 34, "time_elapsed": 1757492, "internal_node_id": "0.0-6.0-1.0-25.0"}}, {"uniqueid": "w22423378:a63904059", "current_trial": 35, "dateTime": 1693569751834, "trialdata": {"revealed_states": [], "clicked_states": ["1", "16", "17", "20", "21", "32", "33", "27"], "num_clicks_accrued": [0, 0, 0, 0, 0, 0, 0, 0, 0, 0, 0, 0, 0], "stateRewards": ["", 1, -1, 8, -3, 38, 85, -20, -4, 8, 23, 73, 2, -4, 6, -13, 44, 7, -28, -11, -77, 45, -69, 1, -1, -7, -11, 75, -51, -87, 7, 36, -53, -26], "withholdReward": false, "trial_id": "mdp_trial_27", "block": "test", "trialIndex": 28, "score": 42.2, "costs": -14.8, "simulationMode": [null, null, null, null, null], "rewards": [1, -1, -7, -11, 75], "path": ["0", "0", "23", "24", "25", "26", "27"], "rt": [30597, 191, 229, 475, 264], "actions": ["left", "left", "left", "up", "up"], "actionTimes": [33145, 33853, 34590, 35588, 36343], "queries": {"click": {"state": {"target": ["1", "16", "17", "20", "21", "32", "33", "27"], "time": [5037, 6550, 10014, 13412, 16790, 20254, 23650, 26954]}, "edge": {"target": [], "time": []}}, "mouseover": {"state": {"target": ["1", "1", "7", "16", "17", "20", "21", "32", "33", "26", "27", "11", "9", "11"], "time": [4062, 4415, 5445, 5595, 7295, 10895, 13994, 17827, 21210, 24210, 24510, 27610, 27959, 30576]}, "edge": {"target": [], "time": []}}, "mouseout": {"state": {"target": ["31", "23", "0", "1", "1", "7", "16", "17", "20", "21", "32", "33", "26", "27", "11", "9", "11"], "time": [1445, 1645, 1857, 4298, 5413, 5479, 7195, 10528, 13962, 17251, 20945, 24160, 24227, 27583, 27693, 30542, 30628]}, "edge": {"target": [], "time": []}}}, "displayed_time": "36.84", "trialTime": 37733, "trial_type": "mouselab-mdp", "trial_index": 35, "time_elapsed": 1795527, "internal_node_id": "0.0-6.0-1.0-26.0"}}, {"uniqueid": "w22423378:a63904059", "current_trial": 36, "dateTime": 1693569769592, "trialdata": {"revealed_states": [], "clicked_states": [], "num_clicks_accrued": [0, 0, 0, 0, 0, 0, 0, 0, 0, 0, 0, 0, 0], "stateRewards": ["", 2, -4, 1, -12, -59, -53, -74, 16, -88, -66, 66, 1, -2, 8, -9, -14, 22, 25, -1, -39, 47, -14, -1, -1, -2, 1, -4, 52, -26, 15, -7, 46, 43], "withholdReward": false, "trial_id": "mdp_trial_28", "block": "test", "trialIndex": 29, "score": -66, "costs": 0, "simulationMode": [null, null, null, null, null], "rewards": [2, -4, 1, -12, -53], "path": ["0", "0", "1", "2", "3", "4", "6"], "rt": [6297, 53, 41, 508, 214], "actions": ["up", "up", "up", "right", "right"], "actionTimes": [8318, 8865, 9437, 10454, 11159], "queries": {"click": {"state": {"target": [], "time": []}, "edge": {"target": [], "time": []}}, "mouseover": {"state": {"target": ["1", "2", "5", "3", "8", "8", "9"], "time": [2833, 2894, 3279, 4462, 4510, 4934, 4960]}, "edge": {"target": [], "time": []}}, "mouseout": {"state": {"target": ["27", "24", "1", "2", "5", "3", "8", "8"], "time": [663, 729, 2861, 2927, 4383, 4480, 4561, 4946]}, "edge": {"target": [], "time": []}}}, "displayed_time": "16.02", "trialTime": 17512, "trial_type": "mouselab-mdp", "trial_index": 36, "time_elapsed": 1813285, "internal_node_id": "0.0-6.0-1.0-27.0"}}, {"uniqueid": "w22423378:a63904059", "current_trial": 37, "dateTime": 1693569787547, "trialdata": {"revealed_states": [], "clicked_states": ["9"], "num_clicks_accrued": [0, 0, 0, 0, 0, 0, 0, 0, 0, 0, 0, 0, 0], "stateRewards": ["", -2, 2, -1, -6, 22, 6, 6, -5, 70, -42, 65, 1, 3, 5, -6, -67, -9, 3, 14, 7, -62, -13, -2, 4, 1, 16, 42, -21, -52, -8, 32, 53, 81], "withholdReward": false, "trial_id": "mdp_trial_29", "block": "test", "trialIndex": 30, "score": 61.85, "costs": -2.15, "simulationMode": [null, null, null, null, null], "rewards": [-2, 2, -1, -5, 70], "path": ["0", "0", "1", "2", "3", "8", "9"], "rt": [8419, 301, 360, 383, 459], "actions": ["up", "up", "up", "left", "up"], "actionTimes": [10547, 11344, 12201, 13091, 14049], "queries": {"click": {"state": {"target": ["9"], "time": [3407]}, "edge": {"target": [], "time": []}}, "mouseover": {"state": {"target": ["10", "8", "9", "5", "6", "4", "3", "8", "11", "8", "3", "2"], "time": [2506, 2615, 2874, 4339, 5606, 6990, 7039, 7138, 7357, 8175, 8338, 8557]}, "edge": {"target": [], "time": []}}, "mouseout": {"state": {"target": ["9", "8", "1", "10", "8", "9", "5", "6", "4", "3", "8", "11", "8", "3", "2", "9", "9", "9"], "time": [1005, 1072, 1359, 2563, 2743, 4173, 5372, 6976, 7022, 7105, 7240, 8058, 8304, 8371, 8606, 8674, 17070, 17405]}, "edge": {"target": [], "time": []}}}, "displayed_time": "16.13", "trialTime": 17679, "trial_type": "mouselab-mdp", "trial_index": 37, "time_elapsed": 1831239, "internal_node_id": "0.0-6.0-1.0-28.0"}}, {"uniqueid": "w22423378:a63904059", "current_trial": 38, "dateTime": 1693569829809, "trialdata": {"revealed_states": [], "clicked_states": ["29", "9", "6", "17", "21", "16", "18", "32"], "num_clicks_accrued": [0, 0, 0, 0, 0, 0, 0, 0, 0, 0, 0, 0, 0], "stateRewards": ["", -1, -1, 7, -15, -43, -21, -84, -9, -45, -66, 2, 1, -2, 2, 8, -27, 44, -52, -5, -84, 11, 53, 1, 4, -4, 16, 83, -82, -15, -16, 68, -43, 81], "withholdReward": false, "trial_id": "mdp_trial_30", "block": "test", "trialIndex": 31, "score": 35.8, "costs": -17.2, "simulationMode": [null, null, null, null, null], "rewards": [1, -2, 2, 8, 44], "path": ["0", "0", "12", "13", "14", "15", "17"], "rt": [33525, 275, 245, 336, 284], "actions": ["right", "right", "right", "up", "right"], "actionTimes": [37054, 37871, 38656, 39514, 40295], "queries": {"click": {"state": {"target": ["29", "9", "6", "17", "21", "16", "18", "32"], "time": [4906, 8441, 11769, 16100, 19651, 23208, 26794, 30113]}, "edge": {"target": [], "time": []}}, "mouseover": {"state": {"target": ["23", "25", "29", "11", "9", "5", "6", "16", "17", "20", "21", "19", "14", "15", "16", "18", "12", "32", "31", "30", "31", "12", "18", "15", "17"], "time": [4045, 4181, 4411, 5612, 5928, 9211, 10211, 15228, 15512, 17243, 17510, 20094, 20127, 20177, 20477, 23926, 27326, 27592, 31192, 33476, 33660, 33776, 33808, 33841, 34510]}, "edge": {"target": [], "time": []}}, "mouseout": {"state": {"target": ["3", "2", "1", "2", "8", "8", "1", "0", "23", "25", "29", "11", "9", "5", "6", "16", "17", "20", "21", "19", "14", "15", "16", "18", "12", "32", "31", "30", "31", "12", "18", "15"], "time": [413, 646, 897, 962, 1196, 2016, 2332, 4020, 4061, 4296, 5412, 5712, 8962, 10178, 15165, 15278, 17093, 17277, 20078, 20110, 20143, 20344, 23727, 27311, 27342, 31092, 33459, 33644, 33692, 33792, 33825, 34165]}, "edge": {"target": [], "time": []}}}, "displayed_time": "40.81", "trialTime": 41987, "trial_type": "mouselab-mdp", "trial_index": 38, "time_elapsed": 1873503, "internal_node_id": "0.0-6.0-1.0-29.0"}}, {"uniqueid": "w22423378:a63904059", "current_trial": 39, "dateTime": 1693569847433, "trialdata": {"revealed_states": [], "clicked_states": [], "num_clicks_accrued": [0, 0, 0, 0, 0, 0, 0, 0, 0, 0, 0, 0, 0], "stateRewards": ["", -2, -3, -6, -7, 9, 16, 65, 5, -41, 20, -25, -1, -4, 1, -11, -49, -4, 71, 1, 39, -62, 52, -2, -3, 7, -9, -28, -70, 84, 8, 24, -58, 82], "withholdReward": false, "trial_id": "mdp_trial_31", "block": "test", "trialIndex": 32, "score": -35, "costs": 0, "simulationMode": [null, null, null, null, null], "rewards": [-2, -3, 7, -9, -28], "path": ["0", "0", "23", "24", "25", "26", "27"], "rt": [5486, 244, 208, 247, 144], "actions": ["left", "left", "left", "up", "up"], "actionTimes": [7256, 8002, 8701, 9441, 10103], "queries": {"click": {"state": {"target": [], "time": []}, "edge": {"target": [], "time": []}}, "mouseover": {"state": {"target": ["1", "2"], "time": [4278, 4560]}, "edge": {"target": [], "time": []}}, "mouseout": {"state": {"target": ["17", "15", "12", "1"], "time": [642, 692, 940, 4389]}, "edge": {"target": [], "time": []}}}, "displayed_time": "15.77", "trialTime": 17307, "trial_type": "mouselab-mdp", "trial_index": 39, "time_elapsed": 1891126, "internal_node_id": "0.0-6.0-1.0-30.0"}}, {"uniqueid": "w22423378:a63904059", "current_trial": 40, "dateTime": 1693569865411, "trialdata": {"revealed_states": [], "clicked_states": ["9", "11"], "num_clicks_accrued": [0, 0, 0, 0, 0, 0, 0, 0, 0, 0, 0, 0, 0], "stateRewards": ["", 1, 2, 7, 13, 88, -71, 27, 3, 60, 5, -53, -2, 2, -6, -1, -30, 79, 47, -4, -14, 46, 68, 1, 1, 8, 10, -14, 86, 48, -11, -67, -44, 5], "withholdReward": false, "trial_id": "mdp_trial_32", "block": "test", "trialIndex": 33, "score": 68.7, "costs": -4.3, "simulationMode": [null, null, null, null, null], "rewards": [1, 2, 7, 3, 60], "path": ["0", "0", "1", "2", "3", "8", "9"], "rt": [10311, 210, 205, 232, 544], "actions": ["up", "up", "up", "left", "up"], "actionTimes": [12140, 12861, 13558, 14285, 15329], "queries": {"click": {"state": {"target": ["9", "11"], "time": [3055, 8376]}, "edge": {"target": [], "time": []}}, "mouseover": {"state": {"target": ["1", "2", "9", "11", "27", "27", "11", "8", "3", "9"], "time": [2222, 2250, 2550, 3549, 3702, 3882, 7869, 9548, 9865, 10382]}, "edge": {"target": [], "time": []}}, "mouseout": {"state": {"target": ["2", "1", "1", "2", "9", "11", "27", "27", "11", "8", "3"], "time": [586, 786, 2239, 2299, 3532, 3582, 3717, 7619, 9499, 9648, 10298]}, "edge": {"target": [], "time": []}}}, "displayed_time": "15.85", "trialTime": 17712, "trial_type": "mouselab-mdp", "trial_index": 40, "time_elapsed": 1909103, "internal_node_id": "0.0-6.0-1.0-31.0"}}, {"uniqueid": "w22423378:a63904059", "current_trial": 41, "dateTime": 1693569884891, "trialdata": {"revealed_states": [], "clicked_states": [], "num_clicks_accrued": [0, 0, 0, 0, 0, 0, 0, 0, 0, 0, 0, 0, 0], "stateRewards": ["", -2, -1, -1, 5, -54, -87, 35, 2, -8, 20, -22, 1, 3, 6, 13, -75, -32, -55, -3, 56, 62, -22, -1, -4, -1, -7, -51, 84, 70, 7, -15, 5, 55], "withholdReward": false, "trial_id": "mdp_trial_33", "block": "test", "trialIndex": 34, "score": -52, "costs": 0, "simulationMode": [null, null, null, null, null], "rewards": [1, 3, 6, 13, -75], "path": ["0", "0", "12", "13", "14", "15", "16"], "rt": [5182, 693, 264, 632, 157], "actions": ["right", "right", "right", "up", "up"], "actionTimes": [9062, 10266, 11030, 12166, 12824], "queries": {"click": {"state": {"target": [], "time": []}, "edge": {"target": [], "time": []}}, "mouseover": {"state": {"target": ["1", "2", "5", "18", "5"], "time": [4586, 4630, 4981, 6300, 6780]}, "edge": {"target": [], "time": []}}, "mouseout": {"state": {"target": ["9", "1", "2", "5", "18"], "time": [2584, 4615, 4646, 6106, 6397]}, "edge": {"target": [], "time": []}}}, "displayed_time": "17.88", "trialTime": 19210, "trial_type": "mouselab-mdp", "trial_index": 41, "time_elapsed": 1928584, "internal_node_id": "0.0-6.0-1.0-32.0"}}, {"uniqueid": "w22423378:a63904059", "current_trial": 42, "dateTime": 1693569904413, "trialdata": {"revealed_states": [], "clicked_states": ["21", "32"], "num_clicks_accrued": [0, 0, 0, 0, 0, 0, 0, 0, 0, 0, 0, 0, 0], "stateRewards": ["", 1, 1, -5, 10, -31, 73, 14, -8, -23, 63, -70, -1, 2, 8, 7, 25, -59, 27, -10, -40, -71, -15, -2, 3, -8, -5, -19, 77, -34, 7, 67, 63, 19], "withholdReward": false, "trial_id": "mdp_trial_34", "block": "test", "trialIndex": 35, "score": 58.7, "costs": -4.3, "simulationMode": [null, null, null, null, null], "rewards": [-2, 3, -8, 7, 63], "path": ["0", "0", "23", "24", "25", "30", "32"], "rt": [10754, 262, 282, 303, 744], "actions": ["left", "left", "left", "down", "down"], "actionTimes": [12555, 13339, 14125, 14929, 16170], "queries": {"click": {"state": {"target": ["21", "32"], "time": [2994, 6285]}, "edge": {"target": [], "time": []}}, "mouseover": {"state": {"target": ["21", "32", "30", "25", "26", "27", "26", "25", "30", "23", "31"], "time": [2447, 3990, 6890, 6940, 7023, 7806, 9906, 9991, 10241, 10528, 10923]}, "edge": {"target": [], "time": []}}, "mouseout": {"state": {"target": ["5", "4", "7", "1", "0", "21", "32", "30", "25", "26", "27", "26", "25", "30", "23", "31"], "time": [686, 724, 757, 1007, 2140, 3490, 6856, 6906, 6973, 7206, 9873, 9975, 10039, 10289, 10824, 10972]}, "edge": {"target": [], "time": []}}}, "displayed_time": "16.68", "trialTime": 19243, "trial_type": "mouselab-mdp", "trial_index": 42, "time_elapsed": 1948105, "internal_node_id": "0.0-6.0-1.0-33.0"}}, {"uniqueid": "w22423378:a63904059", "current_trial": 43, "dateTime": 1693569927168, "trialdata": {"revealed_states": [], "clicked_states": ["9"], "num_clicks_accrued": [0, 0, 0, 0, 0, 0, 0, 0, 0, 0, 0, 0, 0], "stateRewards": ["", -1, 1, -6, -1, 80, 23, 2, -11, 73, -81, 59, 1, 3, 5, -1, -26, 28, -3, 16, -59, -13, -50, -2, -2, 2, 15, -50, 86, 17, -4, 37, 35, 44], "withholdReward": false, "trial_id": "mdp_trial_35", "block": "test", "trialIndex": 36, "score": 53.85, "costs": -2.15, "simulationMode": [null, null, null, null, null], "rewards": [-1, 1, -6, -11, 73], "path": ["0", "0", "1", "2", "3", "8", "9"], "rt": [8898, 285, 231, 255, 320], "actions": ["up", "up", "up", "left", "up"], "actionTimes": [11350, 12132, 12878, 13653, 14485], "queries": {"click": {"state": {"target": ["9"], "time": [4042]}, "edge": {"target": [], "time": []}}, "mouseover": {"state": {"target": ["1", "2", "3", "9", "5", "6", "16", "17", "16", "6", "5", "6", "5"], "time": [3214, 3246, 3294, 3517, 4862, 4945, 5096, 5445, 5827, 6129, 6312, 7150, 7594]}, "edge": {"target": [], "time": []}}, "mouseout": {"state": {"target": ["32", "0", "1", "2", "3", "9", "5", "6", "16", "17", "16", "6", "5", "6", "5"], "time": [984, 1529, 3244, 3278, 3362, 4762, 4879, 4961, 5195, 5695, 6095, 6161, 7063, 7429, 8380]}, "edge": {"target": [], "time": []}}}, "displayed_time": "16.45", "trialTime": 22456, "trial_type": "mouselab-mdp", "trial_index": 43, "time_elapsed": 1970861, "internal_node_id": "0.0-6.0-1.0-34.0"}}, {"uniqueid": "w22423378:a63904059", "current_trial": 44, "dateTime": 1693569970570, "trialdata": {"revealed_states": [], "clicked_states": ["32", "21", "16", "5", "9", "27", "29", "28"], "num_clicks_accrued": [0, 0, 0, 0, 0, 0, 0, 0, 0, 0, 0, 0, 0], "stateRewards": ["", 1, 4, -8, -13, -13, -87, -77, -10, -44, 54, 42, 2, -3, -4, 12, -9, -80, 52, 9, 84, -2, -65, 1, -4, -5, -6, 8, 80, 32, 13, -59, -5, -13], "withholdReward": false, "trial_id": "mdp_trial_36", "block": "test", "trialIndex": 37, "score": 48.8, "costs": -17.2, "simulationMode": [null, null, null, null, null], "rewards": [1, -4, -5, -6, 80], "path": ["0", "0", "23", "24", "25", "26", "28"], "rt": [33875, 362, 354, 561, 430], "actions": ["left", "left", "left", "up", "right"], "actionTimes": [35657, 36528, 37387, 38442, 39378], "queries": {"click": {"state": {"target": ["32", "21", "16", "5", "9", "27", "29", "28"], "time": [2943, 6345, 10024, 13278, 16544, 19874, 23361, 27035]}, "edge": {"target": [], "time": []}}, "mouseover": {"state": {"target": ["31", "32", "21", "19", "15", "16", "6", "5", "9", "11", "27", "29", "26", "28", "26", "26"], "time": [2148, 2233, 3899, 6898, 7081, 7248, 10797, 11082, 14147, 17165, 17431, 20747, 23846, 24180, 27612, 30529]}, "edge": {"target": [], "time": []}}, "mouseout": {"state": {"target": ["9", "2", "1", "0", "31", "32", "21", "19", "15", "16", "6", "5", "9", "11", "27", "29", "26", "28", "26", "29", "26", "28", "24"], "time": [705, 748, 851, 1249, 2188, 3466, 6881, 6915, 7115, 10748, 10848, 13816, 17014, 17280, 20546, 23830, 23913, 27597, 27763, 30498, 30562, 42099, 42278]}, "edge": {"target": [], "time": []}}}, "displayed_time": "39.88", "trialTime": 43080, "trial_type": "mouselab-mdp", "trial_index": 44, "time_elapsed": 2014262, "internal_node_id": "0.0-6.0-1.0-35.0"}}, {"uniqueid": "w22423378:a63904059", "current_trial": 45, "dateTime": 1693569999525, "trialdata": {"revealed_states": [], "clicked_states": ["9", "11", "10", "5", "6"], "num_clicks_accrued": [0, 0, 0, 0, 0, 0, 0, 0, 0, 0, 0, 0, 0], "stateRewards": ["", -1, -3, 4, -10, -5, 79, -87, -2, 53, 29, -20, -2, -1, -5, 10, 27, 86, 46, -16, -29, 40, 3, 2, 4, -1, -6, 37, 79, -29, 7, 86, -62, 29], "withholdReward": false, "trial_id": "mdp_trial_37", "block": "test", "trialIndex": 38, "score": 58.25, "costs": -10.75, "simulationMode": [null, null, null, null, null], "rewards": [-1, -3, 4, -10, 79], "path": ["0", "0", "1", "2", "3", "4", "6"], "rt": [22497, 258, 229, 318, 315], "actions": ["up", "up", "up", "right", "right"], "actionTimes": [24051, 24815, 25553, 26390, 27203], "queries": {"click": {"state": {"target": ["9", "11", "10", "5", "6"], "time": [3250, 7073, 10943, 14372, 17636]}, "edge": {"target": [], "time": []}}, "mouseover": {"state": {"target": ["1", "2", "8", "9", "11", "8", "5", "10", "3", "5", "6", "7", "2", "10", "27", "11", "8"], "time": [2325, 2371, 2490, 2754, 3855, 7639, 7971, 10292, 11388, 11687, 15053, 18520, 19139, 19170, 19271, 21136, 21155]}, "edge": {"target": [], "time": []}}, "mouseout": {"state": {"target": ["1", "2", "8", "9", "11", "8", "5", "10", "3", "5", "6", "7", "2", "10", "27", "11", "8"], "time": [2356, 2425, 2707, 3738, 7604, 7655, 9004, 11371, 11421, 14854, 18421, 19137, 19153, 19186, 21120, 21153, 21169]}, "edge": {"target": [], "time": []}}}, "displayed_time": "27.71", "trialTime": 28647, "trial_type": "mouselab-mdp", "trial_index": 45, "time_elapsed": 2043218, "internal_node_id": "0.0-6.0-1.0-36.0"}}, {"uniqueid": "w22423378:a63904059", "current_trial": 46, "dateTime": 1693570037207, "trialdata": {"revealed_states": [], "clicked_states": ["29", "32", "27", "28", "5", "9", "17"], "num_clicks_accrued": [0, 0, 0, 0, 0, 0, 0, 0, 0, 0, 0, 0, 0], "stateRewards": ["", -2, -4, 2, 10, -17, 18, 73, 11, -32, 23, -13, -2, -4, 7, 12, -25, 66, -23, 15, 40, -76, -9, 1, 2, -7, -5, -20, 24, 3, -5, 16, -73, 70], "withholdReward": false, "trial_id": "mdp_trial_38", "block": "test", "trialIndex": 39, "score": 63.95, "costs": -15.05, "simulationMode": [null, null, null, null, null], "rewards": [-2, -4, 7, 12, 66], "path": ["0", "0", "12", "13", "14", "15", "17"], "rt": [28497, 294, 294, 311, 367], "actions": ["right", "right", "right", "up", "right"], "actionTimes": [30390, 31206, 32007, 32825, 33713], "queries": {"click": {"state": {"target": ["29", "32", "27", "28", "5", "9", "17"], "time": [4092, 7375, 10639, 13982, 17407, 20746, 24085]}, "edge": {"target": [], "time": []}}, "mouseover": {"state": {"target": ["8", "8", "11", "27", "29", "26", "25", "32", "30", "25", "26", "27", "27", "28", "2", "7", "4", "5", "9", "6", "16", "17", "16", "15", "14", "19", "21", "19"], "time": [2781, 3000, 3046, 3251, 3515, 4779, 4862, 5396, 8063, 8095, 8162, 8428, 8912, 11345, 14594, 14694, 14744, 15011, 18494, 21211, 21243, 21694, 24910, 25779, 25843, 25892, 26026, 27712]}, "edge": {"target": [], "time": []}}, "mouseout": {"state": {"target": ["6", "7", "0", "8", "8", "11", "27", "29", "26", "25", "32", "30", "25", "26", "27", "27", "28", "2", "7", "4", "5", "9", "6", "16", "17", "16", "15", "14", "19", "21", "19", "17", "14"], "time": [931, 1045, 2680, 2812, 3014, 3062, 3317, 4729, 4797, 4913, 8045, 8078, 8130, 8311, 8494, 11195, 14496, 14644, 14711, 14881, 18127, 21160, 21227, 21260, 24676, 25777, 25809, 25859, 25926, 27692, 27743, 36736, 36791]}, "edge": {"target": [], "time": []}}}, "displayed_time": "34.21", "trialTime": 37374, "trial_type": "mouselab-mdp", "trial_index": 46, "time_elapsed": 2080900, "internal_node_id": "0.0-6.0-1.0-37.0"}}, {"uniqueid": "w22423378:a63904059", "current_trial": 47, "dateTime": 1693570065015, "trialdata": {"revealed_states": [], "clicked_states": ["5", "21", "32", "27", "9"], "num_clicks_accrued": [0, 0, 0, 0, 0, 0, 0, 0, 0, 0, 0, 0, 0], "stateRewards": ["", -2, 2, -4, -4, -59, 88, 62, -3, 69, -15, -34, 1, -2, -5, 7, -54, -20, 78, -16, -74, -53, -21, 2, -4, 2, 13, -8, -44, 26, 9, 72, 4, 17], "withholdReward": false, "trial_id": "mdp_trial_39", "block": "test", "trialIndex": 40, "score": 51.25, "costs": -10.75, "simulationMode": [null, null, null, null, null], "rewards": [-2, 2, -4, -3, 69], "path": ["0", "0", "1", "2", "3", "8", "9"], "rt": [21649, 216, 210, 241, 282], "actions": ["up", "up", "up", "left", "up"], "actionTimes": [23104, 23825, 24536, 25268, 26040], "queries": {"click": {"state": {"target": ["5", "21", "32", "27", "9"], "time": [3592, 6990, 10376, 13753, 17479]}, "edge": {"target": [], "time": []}}, "mouseover": {"state": {"target": ["10", "8", "9", "5", "5", "18", "19", "21", "32", "30", "25", "26", "27", "33", "9", "11", "26", "25", "33", "26", "11"], "time": [2194, 2211, 2310, 2675, 3010, 4108, 4246, 4491, 8024, 10940, 11041, 11141, 11341, 14757, 16642, 17990, 18056, 18097, 18190, 21157, 21206]}, "edge": {"target": [], "time": []}}, "mouseout": {"state": {"target": ["10", "8", "9", "5", "5", "18", "19", "21", "32", "30", "25", "26", "27", "33", "9", "11", "26", "25", "33", "26", "11"], "time": [2209, 2242, 2627, 2808, 4042, 4141, 4358, 7526, 10893, 10991, 11090, 11261, 14375, 16223, 17974, 18006, 18080, 18123, 21112, 21173, 21240]}, "edge": {"target": [], "time": []}}}, "displayed_time": "26.54", "trialTime": 27515, "trial_type": "mouselab-mdp", "trial_index": 47, "time_elapsed": 2108707, "internal_node_id": "0.0-6.0-1.0-38.0"}}, {"uniqueid": "w22423378:a63904059", "current_trial": 48, "dateTime": 1693570104303, "trialdata": {"revealed_states": [], "clicked_states": ["9", "6", "16", "20", "32", "27", "29", "28"], "num_clicks_accrued": [0, 0, 0, 0, 0, 0, 0, 0, 0, 0, 0, 0, 0], "stateRewards": ["", -2, -1, 3, -3, 71, -58, -21, 7, -10, -75, -37, 2, 4, -1, -12, -79, -29, -48, 3, -41, -10, -30, -1, -2, 1, -15, 13, 66, 22, -1, -42, -86, -55], "withholdReward": false, "trial_id": "mdp_trial_40", "block": "test", "trialIndex": 41, "score": 31.799999999999997, "costs": -17.2, "simulationMode": [null, null, null, null, null], "rewards": [-1, -2, 1, -15, 66], "path": ["0", "0", "23", "24", "25", "26", "28"], "rt": [32698, 288, 257, 266, 349], "actions": ["left", "left", "left", "up", "right"], "actionTimes": [34450, 35233, 36000, 36760, 37625], "queries": {"click": {"state": {"target": ["9", "6", "16", "20", "32", "27", "29", "28"], "time": [3573, 7672, 11067, 14456, 17976, 21350, 24845, 28348]}, "edge": {"target": [], "time": []}}, "mouseover": {"state": {"target": ["1", "8", "9", "5", "6", "16", "15", "17", "16", "20", "21", "22", "31", "32", "30", "25", "26", "27", "29", "26", "28", "25", "33"], "time": [2595, 2747, 2996, 6930, 7078, 8327, 8460, 8645, 9468, 12243, 15226, 15793, 16592, 16926, 18576, 18642, 18692, 19010, 22075, 25325, 25475, 29025, 29208]}, "edge": {"target": [], "time": []}}, "mouseout": {"state": {"target": ["9", "8", "10", "0", "1", "8", "9", "5", "6", "16", "15", "17", "16", "16", "20", "21", "22", "31", "32", "30", "25", "26", "27", "29", "26", "28", "25"], "time": [379, 462, 578, 2560, 2628, 2813, 3785, 6978, 8261, 8361, 8528, 9177, 11273, 11627, 15143, 15693, 15809, 16609, 18550, 18609, 18659, 18876, 21943, 25309, 25375, 29008, 29058]}, "edge": {"target": [], "time": []}}}, "displayed_time": "38.13", "trialTime": 39026, "trial_type": "mouselab-mdp", "trial_index": 48, "time_elapsed": 2147996, "internal_node_id": "0.0-6.0-1.0-39.0"}}, {"uniqueid": "w22423378:a63904059", "current_trial": 49, "dateTime": 1693570153004, "trialdata": {"rt": 48693, "response": {"Q0": "$-2 to $2", "Q1": "$-16 to $16", "Q2": "$-88 to $88", "Q3": "The cost for clicking on nodes varied between nodes.", "Q4": "Very motivated"}, "question_order": [0, 1, 2, 3, 4], "trial_id": "final_quiz_control", "trial_type": "survey-multi-choice", "trial_index": 49, "time_elapsed": 2196697, "internal_node_id": "0.0-6.0-2.0"}}, {"uniqueid": "w22423378:a63904059", "current_trial": 50, "dateTime": 1693570236089, "trialdata": {"rt": 83066, "response": {"Q0": "To try to find the highest value node at the outer side as quickly as possible to minimise deductions", "Q1": "I tried to but didn't have much luck", "Q2": "It was a bit of a lottery so it was hard to improve noticably"}, "trial_id": "self_report_control", "trial_type": "survey-text", "trial_index": 50, "time_elapsed": 2279783, "internal_node_id": "0.0-6.0-3.0"}}, {"uniqueid": "w22423378:a63904059", "current_trial": 51, "dateTime": 1693570290387, "trialdata": {"rt": 54293, "response": {"Q0": "Disagree", "Q1": "Disagree", "Q2": "Neither disagree nor agree", "Q3": "Disagree", "Q4": "Neither disagree nor agree", "Q5": "Neither disagree nor agree", "Q6": "Disagree"}, "question_order": [0, 1, 2, 3, 4, 5, 6], "trial_id": "self_report_2", "trial_type": "survey-multi-choice", "trial_index": 51, "time_elapsed": 2334081, "internal_node_id": "0.0-6.0-4.0"}}, {"uniqueid": "w22423378:a63904059", "current_trial": 52, "dateTime": 1693570316899, "trialdata": {"rt": 26497, "response": {"gender": "male", "age": "67", "colorblind": "0", "effort": "0"}, "trial_type": "survey-html-form", "trial_index": 52, "time_elapsed": 2360593, "internal_node_id": "0.0-6.0-5.0"}}, {"uniqueid": "w22423378:a63904059", "current_trial": 53, "dateTime": 1693570331944, "trialdata": {"rt": 15032, "response": {"Q0": "No", "Q1": "No", "Q2": "N/A"}, "trial_type": "survey-text", "trial_index": 53, "time_elapsed": 2375638, "internal_node_id": "0.0-6.0-6.0"}}, {"uniqueid": "w22423378:a63904059", "current_trial": 54, "dateTime": 1693570371373, "trialdata": {"rt": 39423, "stimulus": "<h1>Completion Code Instructions (1/2)</h1>\n<br><br><br><br>\nYou have reached the end of the experiment! The completion code consists of two parts: (1) a code with 2 characters (2) a code with 6 characters. On this page, you will receive the second part of the code. The first part of the completion code will be on the next page.\n<br><br>\nThe second part of your completion code is: <b>EWEK22</b>\n<br><br>\nPlease note this down. Then, press 'Finish HIT' in order to find the first part of your completion code. Once the data has been saved, you will receive this code either in this window or in the original browser window where you started the experiment.\n", "response": 0, "trial_type": "html-button-response", "trial_index": 54, "time_elapsed": 2415067, "internal_node_id": "0.0-6.0-7.0"}}, {"uniqueid": "w22423378:a63904059", "current_trial": 55, "dateTime": 1693570372385, "trialdata": {"success": true, "trial_type": "fullscreen", "trial_index": 55, "time_elapsed": 2416079, "internal_node_id": "0.0-7.0"}}], "questiondata": {"params": {"CODE": "C6DMOQA6", "MIN_TIME": 14, "inspectCost": 1, "startTime": "Fri Sep 01 2023 12:32:34 GMT+0100 (British Summer Time)", "bonusRate": 0.002, "variance": "1_2_4_8_44", "branching": "31123"}, "final_score": 1674.7}, "eventdata": [{"eventtype": "initialized", "value": null, "timestamp": 1693567954306, "interval": 0}, {"eventtype": "window_resize", "value": [1028, 778], "timestamp": 1693567954306, "interval": 0}, {"eventtype": "window_resize", "value": [1028, 778], "timestamp": 1693567954639, "interval": 333}, {"eventtype": "window_resize", "value": [1536, 864], "timestamp": 1693567964037, "interval": 9398}, {"eventtype": "window_resize", "value": [1028, 778], "timestamp": 1693570371632, "interval": 2407595}], "useragent": "Mozilla/5.0 (Windows NT 10.0; Win64; x64) AppleWebKit/537.36 (KHTML, like Gecko) Chrome/116.0.0.0 Safari/537.36", "mode": "live", "id": "w22423378:a63904059", "status": "user data saved", "Beginhit": "2023-09-01 11:32:32.027439", "Beginexp": "2023-09-01 11:32:43.975335", "Endhit": "2023-09-01 12:12:52.178321", "psiturkStatus": 3, "browser": "<redacted>", "platform": "windows", "language": "en-GB"}