{"condition": 0, "counterbalance": 0, "assignmentId": "a60824404", "workerId": "w29144631", "hitId": "h73733488", "currenttrial": 55, "bonus": 0, "data": [{"uniqueid": "w29144631:a60824404", "current_trial": 0, "dateTime": 1693388844956, "trialdata": {"success": true, "trial_type": "fullscreen", "trial_index": 0, "time_elapsed": 5942, "internal_node_id": "0.0-0.0"}}, {"uniqueid": "w29144631:a60824404", "current_trial": 1, "dateTime": 1693389025007, "trialdata": {"view_history": [{"page_index": 0, "viewing_time": 180046}], "rt": 180047, "trial_id": "exp_instructions_control", "trial_type": "instructions", "trial_index": 1, "time_elapsed": 185993, "internal_node_id": "0.0-1.0"}}, {"uniqueid": "w29144631:a60824404", "current_trial": 2, "dateTime": 1693389649460, "trialdata": {"view_history": [{"page_index": 0, "viewing_time": 127509}, {"page_index": 1, "viewing_time": 489164}, {"page_index": 2, "viewing_time": 3968}, {"page_index": 3, "viewing_time": 3808}], "rt": 624451, "trial_id": "mouselab_instructions_1_control", "trial_type": "instructions", "trial_index": 2, "time_elapsed": 810446, "internal_node_id": "0.0-2.0-1.0"}}, {"uniqueid": "w29144631:a60824404", "current_trial": 3, "dateTime": 1693389685613, "trialdata": {"revealed_states": [], "clicked_states": ["16", "17", "14", "20", "21", "22", "31", "32", "33", "29", "27", "28", "11"], "num_clicks_accrued": [0, 0, 0, 0, 0, 0, 0, 0, 0, 0, 0, 0, 0], "stateRewards": ["", 10, 10, 10, -10, 10, -10, 10, 10, 10, -10, -10, 10, -10, 10, -10, -10, -10, 10, -10, -10, -10, -10, -10, 10, -10, 10, 10, -10, 10, -10, -10, 10, -10], "withholdReward": false, "trial_id": "practice_1", "block": "test", "trialIndex": 0, "score": -13, "costs": -6.5, "simulationMode": [null, null, null, null, null], "rewards": [-10, 10, -10, -10, 10], "path": ["0", "0", "23", "24", "25", "30", "32"], "rt": [25121, 362, 1670, 111, 91], "actions": ["left", "left", "left", "down", "down"], "actionTimes": [27619, 28498, 30682, 31309, 31914], "queries": {"click": {"state": {"target": ["16", "17", "14", "20", "21", "22", "31", "32", "33", "29", "27", "28", "11"], "time": [4608, 6358, 7454, 8694, 10262, 11993, 13414, 14781, 15966, 17251, 18470, 19485, 20669]}, "edge": {"target": [], "time": []}}, "mouseover": {"state": {"target": ["0", "18", "16", "17", "17", "14", "20", "21", "22", "31", "32", "33", "29", "27", "28", "8", "9", "11", "0", "12", "2", "8", "10", "28", "24", "32", "24", "23", "23"], "time": [2514, 3728, 3899, 5309, 6197, 6790, 7853, 9212, 10852, 13182, 13885, 15244, 16758, 17915, 19087, 20149, 20196, 20448, 23564, 24055, 24744, 24807, 25150, 25274, 25493, 26119, 26400, 26681, 26789]}, "edge": {"target": [], "time": []}}, "mouseout": {"state": {"target": ["0", "0", "18", "16", "17", "17", "14", "20", "21", "22", "31", "32", "33", "29", "27", "28", "8", "9", "11", "0", "12", "2", "8", "10", "28", "24", "32", "24", "23", "23"], "time": [2290, 3564, 3744, 5044, 5869, 6650, 7790, 9071, 10729, 12400, 13775, 15040, 16462, 17790, 18979, 20103, 20182, 20371, 22462, 24009, 24688, 24775, 25133, 25166, 25431, 25571, 26259, 26525, 26696, 34899]}, "edge": {"target": [], "time": []}}}, "displayed_time": "32.43", "trialTime": 35834, "trial_type": "mouselab-mdp", "trial_index": 3, "time_elapsed": 846598, "internal_node_id": "0.0-2.0-2.0-0.0"}}, {"uniqueid": "w29144631:a60824404", "current_trial": 4, "dateTime": 1693389745238, "trialdata": {"revealed_states": [], "clicked_states": ["12"], "num_clicks_accrued": [0, 0, 0, 0, 0, 0, 0, 0, 0, 0, 0, 0, 0], "stateRewards": ["", -10, 10, -10, -10, 10, 10, -10, -10, 10, -10, 10, -10, -10, -10, -10, 10, -10, 10, -10, -10, 10, -10, -10, 10, -10, 10, -10, 10, 10, 10, -10, 10, -10], "withholdReward": false, "trial_id": "practice_2", "block": "test", "trialIndex": 1, "score": -7, "costs": -0.5, "simulationMode": [null, null, null, null, null], "rewards": [-10, 10, -10, -10, 10], "path": ["0", "0", "1", "2", "3", "4", "5"], "rt": [6631, 3307, 350, 611, 150], "actions": ["up", "up", "up", "right", "up"], "actionTimes": [8611, 12424, 13280, 14400, 15064], "queries": {"click": {"state": {"target": ["12"], "time": [6461]}, "edge": {"target": [], "time": []}}, "mouseover": {"state": {"target": ["12", "18", "13", "12"], "time": [2757, 2898, 3289, 3711]}, "edge": {"target": [], "time": []}}, "mouseout": {"state": {"target": ["0", "12", "18", "13", "12", "12", "1", "2", "7", "7", "6"], "time": [2740, 2789, 3069, 3491, 8070, 9710, 9866, 9991, 10241, 11444, 16679]}, "edge": {"target": [], "time": []}}}, "displayed_time": "15.57", "trialTime": 59440, "trial_type": "mouselab-mdp", "trial_index": 4, "time_elapsed": 906223, "internal_node_id": "0.0-2.0-2.0-1.0"}}, {"uniqueid": "w29144631:a60824404", "current_trial": 5, "dateTime": 1693389966854, "trialdata": {"view_history": [{"page_index": 0, "viewing_time": 39661}, {"page_index": 1, "viewing_time": 181953}], "rt": 221614, "trial_id": "mouselab_instructions_2_control", "trial_type": "instructions", "trial_index": 5, "time_elapsed": 1127840, "internal_node_id": "0.0-2.0-3.0"}}, {"uniqueid": "w29144631:a60824404", "current_trial": 6, "dateTime": 1693389994263, "trialdata": {"rt": 27405, "response": {"Q0": "The cost for clicking on nodes may vary between nodes.", "Q1": "The better I perform the higher my bonus will be.", "Q2": "No, the amount of cash at each node of the web may be different each time.", "Q3": "To get the highest total score.", "Q4": "Only before moving the spider.", "Q5": "3 seconds"}, "question_order": [0, 1, 2, 3, 4, 5], "correct": {"Q0": "The cost for clicking on nodes may vary between nodes.", "Q1": "The better I perform the higher my bonus will be.", "Q2": "No, the amount of cash at each node of the web may be different each time.", "Q3": "To get the highest total score.", "Q4": "Only before moving the spider.", "Q5": "3 seconds"}, "trial_id": "mouselab_quiz_control", "trial_type": "survey-multi-choice", "trial_index": 6, "time_elapsed": 1155249, "internal_node_id": "0.0-2.0-4.0"}}, {"uniqueid": "w29144631:a60824404", "current_trial": 7, "dateTime": 1693390001407, "trialdata": {"rt": 7139, "response": {"Q0": "No"}, "question_order": [0], "trial_id": "repeat_check", "trial_type": "survey-multi-choice", "trial_index": 7, "time_elapsed": 1162392, "internal_node_id": "0.0-4.0-0.0"}}, {"uniqueid": "w29144631:a60824404", "current_trial": 8, "dateTime": 1693390010143, "trialdata": {"rt": 8732, "stimulus": "\n<h1> Get ready to start the game! </h1>\n\nThank you for reading the instructions. Get ready start with the 40 rounds of this game.\n<br><br>\nIf you need to take a break, feel free to take one after the end of a round, before continuing to the next one.\n<br><br>\nRemember, the more money the spider gets, the bigger your bonus will be!\n<br><br>\n<div style='text-align: center;'>Press <code>space</code> to begin.</div>\n\n<br><br>\n(If, at any point, the <code>space</code> key does not take you to the next page, click once on the text and try again.)", "response": " ", "trial_id": "mdp_ready", "trial_type": "html-keyboard-response", "trial_index": 8, "time_elapsed": 1171129, "internal_node_id": "0.0-6.0-0.0"}}, {"uniqueid": "w29144631:a60824404", "current_trial": 9, "dateTime": 1693390047144, "trialdata": {"revealed_states": [], "clicked_states": ["23", "12", "1"], "num_clicks_accrued": [0, 0, 0, 0, 0, 0, 0, 0, 0, 0, 0, 0, 0], "stateRewards": ["", -1, 4, -5, 9, 29, -75, -42, -16, 24, -28, -41, 2, -3, 1, 10, 60, 47, 55, -1, -53, 22, -40, 2, -3, -6, 4, -26, 44, 54, 15, -76, 42, 14], "withholdReward": false, "trial_id": "mdp_trial_1", "block": "test", "trialIndex": 2, "score": 31.8, "costs": -4.199999999999999, "simulationMode": [null, null, null, null, null], "rewards": [-1, 4, -5, 9, 29], "path": ["0", "0", "1", "2", "3", "4", "5"], "rt": [7314, 1849, 4464, 215, 625], "actions": ["up", "up", "up", "right", "up"], "actionTimes": [9473, 11839, 16814, 17533, 18678], "queries": {"click": {"state": {"target": ["23", "12", "1"], "time": [3602, 5429, 7466]}, "edge": {"target": [], "time": []}}, "mouseover": {"state": {"target": ["1", "28", "24", "23", "24", "12", "1"], "time": [2693, 3145, 3317, 3364, 4069, 5071, 6023]}, "edge": {"target": [], "time": []}}, "mouseout": {"state": {"target": ["1", "28", "24", "23", "24", "23", "12", "12", "1", "12", "2", "2", "1", "0", "0"], "time": [2802, 3178, 3333, 3927, 4615, 4664, 5504, 5945, 8083, 10426, 10896, 23802, 23880, 23959, 28473]}, "edge": {"target": [], "time": []}}}, "displayed_time": "19.19", "trialTime": 36814, "trial_type": "mouselab-mdp", "trial_index": 9, "time_elapsed": 1208130, "internal_node_id": "0.0-6.0-1.0-0.0"}}, {"uniqueid": "w29144631:a60824404", "current_trial": 10, "dateTime": 1693390084490, "trialdata": {"revealed_states": [], "clicked_states": ["1", "23", "24", "27", "28", "29", "32", "31", "21", "17"], "num_clicks_accrued": [0, 0, 0, 0, 0, 0, 0, 0, 0, 0, 0, 0, 0], "stateRewards": ["", 2, 4, -6, -13, -75, -81, 30, 7, 5, 59, -65, -1, -1, 7, 14, -38, 36, -41, 1, -54, -5, 64, 2, -1, 5, 6, -19, 79, 11, 16, -33, -50, 58], "withholdReward": false, "trial_id": "mdp_trial_2", "block": "test", "trialIndex": 3, "score": -36, "costs": -14.000000000000002, "simulationMode": [null, null, null, null, null, null], "rewards": [-1, -1, 7, 14, -41], "path": ["0", "0", "12", "13", "14", "15", "18"], "rt": [19163, 740, 382, 755, 179, 92], "actions": ["right", "right", "right", "right", "up", "left"], "actionTimes": [21370, 22112, 23009, 24273, 24960, 25561], "queries": {"click": {"state": {"target": ["1", "23", "24", "27", "28", "29", "32", "31", "21", "17"], "time": [3492, 5046, 6884, 8943, 10701, 12852, 14476, 16413, 18261, 20061]}, "edge": {"target": [], "time": []}}, "mouseover": {"state": {"target": ["23", "1", "23", "0", "23", "24", "25", "25", "30", "25", "26", "27", "28", "26", "29", "30", "32", "31", "22", "19", "21", "19", "14", "17"], "time": [2812, 3344, 4000, 4469, 4766, 5594, 7314, 7876, 8123, 8378, 8431, 8705, 9516, 11128, 11390, 13343, 13516, 16266, 17110, 17250, 17484, 18781, 18846, 19329]}, "edge": {"target": [], "time": []}}, "mouseout": {"state": {"target": ["0", "0", "23", "1", "23", "0", "23", "24", "25", "25", "30", "25", "26", "27", "28", "26", "29", "30", "32", "31", "22", "19", "21", "19", "14", "17", "22"], "time": [937, 2781, 3141, 3734, 4453, 4719, 5452, 7282, 7690, 8020, 8361, 8429, 8610, 9297, 11027, 11187, 13235, 13453, 15875, 16986, 17156, 17266, 18703, 18814, 18907, 20485, 28391]}, "edge": {"target": [], "time": []}}}, "displayed_time": "26.08", "trialTime": 37155, "trial_type": "mouselab-mdp", "trial_index": 10, "time_elapsed": 1245476, "internal_node_id": "0.0-6.0-1.0-1.0"}}, {"uniqueid": "w29144631:a60824404", "current_trial": 11, "dateTime": 1693390110296, "trialdata": {"revealed_states": [], "clicked_states": ["1", "2", "3", "9", "11"], "num_clicks_accrued": [0, 0, 0, 0, 0, 0, 0, 0, 0, 0, 0, 0, 0], "stateRewards": ["", 2, 4, -5, 7, 81, 35, 6, 11, 14, -72, 42, -1, 2, 3, -7, -77, -44, -40, -15, -85, 51, -32, -2, -1, -5, 7, -74, 47, 52, 16, -49, 48, -46], "withholdReward": false, "trial_id": "mdp_trial_3", "block": "test", "trialIndex": 4, "score": 47, "costs": -7, "simulationMode": [null, null, null, null, null], "rewards": [2, 4, -5, 11, 42], "path": ["0", "0", "1", "2", "3", "8", "11"], "rt": [10902, 111, 194, 41, 202], "actions": ["up", "up", "up", "left", "left"], "actionTimes": [19680, 20298, 21008, 21560, 22296], "queries": {"click": {"state": {"target": ["1", "2", "3", "9", "11"], "time": [11004, 12660, 14420, 16172, 17884]}, "edge": {"target": [], "time": []}}, "mouseover": {"state": {"target": ["0", "1", "2", "3", "9", "11", "11", "10", "1", "18"], "time": [10666, 10765, 11749, 13092, 14874, 16642, 16937, 18783, 19077, 19187]}, "edge": {"target": [], "time": []}}, "mouseout": {"state": {"target": ["0", "0", "1", "2", "3", "9", "11", "11", "10", "1", "18", "18", "12"], "time": [10060, 10687, 11625, 12921, 14703, 16594, 16812, 18703, 18844, 19109, 24045, 24328, 24577]}, "edge": {"target": [], "time": []}}}, "displayed_time": "22.82", "trialTime": 25616, "trial_type": "mouselab-mdp", "trial_index": 11, "time_elapsed": 1271282, "internal_node_id": "0.0-6.0-1.0-2.0"}}, {"uniqueid": "w29144631:a60824404", "current_trial": 12, "dateTime": 1693390134208, "trialdata": {"revealed_states": [], "clicked_states": ["12", "1", "23", "4", "8"], "num_clicks_accrued": [0, 0, 0, 0, 0, 0, 0, 0, 0, 0, 0, 0, 0], "stateRewards": ["", 1, 4, 7, -16, -84, -6, -46, -12, -7, -49, -26, -1, 2, -4, 2, 22, 37, -64, 1, 88, -13, -10, 1, -4, -2, 5, 2, -10, -34, 9, 66, 55, 38], "withholdReward": false, "trial_id": "mdp_trial_4", "block": "test", "trialIndex": 5, "score": -14, "costs": -7, "simulationMode": [null, null, null, null, null], "rewards": [1, 4, 7, -12, -7], "path": ["0", "0", "1", "2", "3", "8", "9"], "rt": [16388, 185, 354, 47, 69], "actions": ["up", "up", "up", "left", "up"], "actionTimes": [17717, 18411, 19283, 19835, 20436], "queries": {"click": {"state": {"target": ["12", "1", "23", "4", "8"], "time": [2639, 4585, 6648, 9527, 11496]}, "edge": {"target": [], "time": []}}, "mouseover": {"state": {"target": ["12", "12", "1", "23", "7", "4", "3", "8", "9", "24", "25", "28"], "time": [1835, 2225, 3912, 4928, 7445, 8445, 9898, 9994, 14568, 15444, 15911, 17053]}, "edge": {"target": [], "time": []}}, "mouseout": {"state": {"target": ["0", "12", "12", "1", "23", "1", "7", "4", "3", "8", "9", "8", "24", "25", "28"], "time": [1803, 1991, 3101, 4804, 7055, 7225, 8255, 9866, 9948, 14303, 14885, 15007, 15817, 17022, 17100]}, "edge": {"target": [], "time": []}}}, "displayed_time": "20.95", "trialTime": 23723, "trial_type": "mouselab-mdp", "trial_index": 12, "time_elapsed": 1295194, "internal_node_id": "0.0-6.0-1.0-3.0"}}, {"uniqueid": "w29144631:a60824404", "current_trial": 13, "dateTime": 1693390152480, "trialdata": {"revealed_states": [], "clicked_states": [], "num_clicks_accrued": [0, 0, 0, 0, 0, 0, 0, 0, 0, 0, 0, 0, 0], "stateRewards": ["", 1, -2, 4, 7, -43, -83, -60, -5, -86, -80, 83, -1, -2, 6, 11, -15, 21, 13, 9, 29, -49, 11, -1, 4, -6, -11, 87, 40, 63, -8, -39, -11, 62], "withholdReward": false, "trial_id": "mdp_trial_5", "block": "test", "trialIndex": 6, "score": -37, "costs": 0, "simulationMode": [null, null, null, null, null], "rewards": [-1, -2, 6, 9, -49], "path": ["0", "0", "12", "13", "14", "19", "21"], "rt": [9364, 252, 901, 72, 46], "actions": ["right", "right", "right", "down", "down"], "actionTimes": [10872, 11632, 13048, 13640, 14192], "queries": {"click": {"state": {"target": [], "time": []}, "edge": {"target": [], "time": []}}, "mouseover": {"state": {"target": ["0", "1"], "time": [4129, 4568]}, "edge": {"target": [], "time": []}}, "mouseout": {"state": {"target": ["0", "0", "1"], "time": [1270, 4442, 9894]}, "edge": {"target": [], "time": []}}}, "displayed_time": "15.51", "trialTime": 18056, "trial_type": "mouselab-mdp", "trial_index": 13, "time_elapsed": 1313466, "internal_node_id": "0.0-6.0-1.0-4.0"}}, {"uniqueid": "w29144631:a60824404", "current_trial": 14, "dateTime": 1693390171248, "trialdata": {"revealed_states": [], "clicked_states": ["1", "12", "7"], "num_clicks_accrued": [0, 0, 0, 0, 0, 0, 0, 0, 0, 0, 0, 0, 0], "stateRewards": ["", 1, 1, -5, 10, -31, 73, 14, -8, -23, 63, -70, -1, 2, 8, 7, 25, -59, 27, -10, -40, -71, -15, -2, 3, -8, -5, -19, 77, -34, 7, 67, 63, 19], "withholdReward": false, "trial_id": "mdp_trial_6", "block": "test", "trialIndex": 7, "score": 16.8, "costs": -4.199999999999999, "simulationMode": [null, null, null, null, null], "rewards": [1, 1, -5, 10, 14], "path": ["0", "0", "1", "2", "3", "4", "7"], "rt": [8710, 136, 99, 108, 27], "actions": ["up", "up", "up", "right", "down"], "actionTimes": [11341, 11991, 12597, 13214, 13758], "queries": {"click": {"state": {"target": ["1", "12", "7"], "time": [3642, 5746, 7647]}, "edge": {"target": [], "time": []}}, "mouseover": {"state": {"target": ["1", "12", "12", "7", "6"], "time": [3323, 4169, 4563, 7074, 8527]}, "edge": {"target": [], "time": []}}, "mouseout": {"state": {"target": ["0", "1", "12", "12", "7", "6"], "time": [3230, 4107, 4464, 6511, 8323, 15714]}, "edge": {"target": [], "time": []}}}, "displayed_time": "16.63", "trialTime": 18565, "trial_type": "mouselab-mdp", "trial_index": 14, "time_elapsed": 1332234, "internal_node_id": "0.0-6.0-1.0-5.0"}}, {"uniqueid": "w29144631:a60824404", "current_trial": 15, "dateTime": 1693390194154, "trialdata": {"revealed_states": [], "clicked_states": ["23", "1", "12", "13", "14"], "num_clicks_accrued": [0, 0, 0, 0, 0, 0, 0, 0, 0, 0, 0, 0, 0], "stateRewards": ["", -1, -2, 4, 9, 10, -75, 39, 16, -43, 88, -19, -1, 1, 2, 4, -31, 10, 73, 12, 41, -64, -81, -2, 2, -6, 1, -81, -1, -26, 3, -59, -3, -20], "withholdReward": false, "trial_id": "mdp_trial_7", "block": "test", "trialIndex": 8, "score": 9, "costs": -7, "simulationMode": [null, null, null, null, null], "rewards": [-1, 1, 2, 4, 10], "path": ["0", "0", "12", "13", "14", "15", "17"], "rt": [13936, 263, 49, 440, 126], "actions": ["right", "right", "right", "up", "right"], "actionTimes": [16943, 17717, 18301, 19269, 19909], "queries": {"click": {"state": {"target": ["23", "1", "12", "13", "14"], "time": [4091, 6161, 8137, 11338, 13169]}, "edge": {"target": [], "time": []}}, "mouseover": {"state": {"target": ["0", "23", "1", "12", "13", "14"], "time": [3704, 3844, 4846, 7049, 10875, 12907]}, "edge": {"target": [], "time": []}}, "mouseout": {"state": {"target": ["0", "0", "23", "1", "12", "13", "14", "0"], "time": [2828, 3720, 4631, 6815, 10844, 12784, 15853, 22234]}, "edge": {"target": [], "time": []}}}, "displayed_time": "20.43", "trialTime": 22711, "trial_type": "mouselab-mdp", "trial_index": 15, "time_elapsed": 1355140, "internal_node_id": "0.0-6.0-1.0-6.0"}}, {"uniqueid": "w29144631:a60824404", "current_trial": 16, "dateTime": 1693390214258, "trialdata": {"revealed_states": [], "clicked_states": ["23", "1", "26", "30"], "num_clicks_accrued": [0, 0, 0, 0, 0, 0, 0, 0, 0, 0, 0, 0, 0], "stateRewards": ["", 1, -2, -8, -3, 31, -84, -55, -14, 15, -58, 17, -2, -3, 7, 7, -12, 48, 67, 4, -44, -68, 46, 2, 3, -5, -7, 76, 27, 5, 11, 57, 52, 59], "withholdReward": false, "trial_id": "mdp_trial_8", "block": "test", "trialIndex": 9, "score": 57.4, "costs": -5.6, "simulationMode": [null, null, null, null, null], "rewards": [2, 3, -5, 11, 52], "path": ["0", "0", "23", "24", "25", "30", "32"], "rt": [9475, 61, 166, 42, 146], "actions": ["left", "left", "left", "down", "down"], "actionTimes": [11035, 11611, 12292, 12843, 13525], "queries": {"click": {"state": {"target": ["23", "1", "26", "30"], "time": [2375, 4697, 7023, 8583]}, "edge": {"target": [], "time": []}}, "mouseover": {"state": {"target": ["23", "1", "24", "25", "26", "25", "30"], "time": [2109, 2876, 5908, 6407, 6897, 8158, 8285]}, "edge": {"target": [], "time": []}}, "mouseout": {"state": {"target": ["0", "0", "23", "1", "24", "25", "26", "25", "30"], "time": [493, 860, 2773, 5862, 6344, 6781, 8110, 8221, 9720]}, "edge": {"target": [], "time": []}}}, "displayed_time": "15.56", "trialTime": 19908, "trial_type": "mouselab-mdp", "trial_index": 16, "time_elapsed": 1375243, "internal_node_id": "0.0-6.0-1.0-7.0"}}, {"uniqueid": "w29144631:a60824404", "current_trial": 17, "dateTime": 1693390237905, "trialdata": {"revealed_states": [], "clicked_states": ["1", "12", "14", "15", "19"], "num_clicks_accrued": [0, 0, 0, 0, 0, 0, 0, 0, 0, 0, 0, 0, 0], "stateRewards": ["", -2, -1, -5, 10, -36, -70, 68, -9, 86, 71, -10, 2, -4, 7, -7, 66, 44, -66, -13, -69, 43, 15, -2, 2, 6, -13, 62, 57, 50, -10, -69, 42, -72], "withholdReward": false, "trial_id": "mdp_trial_9", "block": "test", "trialIndex": 10, "score": 57, "costs": -7, "simulationMode": [null, null, null, null, null], "rewards": [2, -4, 7, -7, 66], "path": ["0", "0", "12", "13", "14", "15", "16"], "rt": [15432, 110, 75, 12, 39], "actions": ["right", "right", "right", "up", "up"], "actionTimes": [18595, 19211, 19803, 20334, 20907], "queries": {"click": {"state": {"target": ["1", "12", "14", "15", "19"], "time": [4489, 6183, 10082, 13063, 15303]}, "edge": {"target": [], "time": []}}, "mouseover": {"state": {"target": ["1", "12", "0", "23", "14", "14", "14", "15", "14", "19", "20"], "time": [4101, 5897, 7203, 7429, 9273, 9631, 9865, 12568, 15053, 15100, 17475]}, "edge": {"target": [], "time": []}}, "mouseout": {"state": {"target": ["0", "1", "12", "0", "23", "14", "14", "14", "15", "14", "19", "20", "14"], "time": [3976, 5710, 7174, 7382, 9209, 9398, 9663, 12260, 15021, 15084, 16349, 17539, 22569]}, "edge": {"target": [], "time": []}}}, "displayed_time": "21.41", "trialTime": 23467, "trial_type": "mouselab-mdp", "trial_index": 17, "time_elapsed": 1398891, "internal_node_id": "0.0-6.0-1.0-8.0"}}, {"uniqueid": "w29144631:a60824404", "current_trial": 18, "dateTime": 1693390264794, "trialdata": {"revealed_states": [], "clicked_states": ["23", "1", "12", "4", "8", "30", "26"], "num_clicks_accrued": [0, 0, 0, 0, 0, 0, 0, 0, 0, 0, 0, 0, 0], "stateRewards": ["", 1, 1, -7, -9, -44, 24, -83, -15, 44, -24, 72, -2, -3, 4, -5, 57, 55, 29, -11, 22, 12, -25, -1, 2, 7, 12, 33, -8, 47, -4, 8, 50, -4], "withholdReward": false, "trial_id": "mdp_trial_10", "block": "test", "trialIndex": 11, "score": 2.1999999999999993, "costs": -9.8, "simulationMode": [null, null, null, null, null], "rewards": [-1, 2, 7, 12, -8], "path": ["0", "0", "23", "24", "25", "26", "28"], "rt": [20965, 7, 108, 100, 35], "actions": ["left", "left", "left", "up", "right"], "actionTimes": [22019, 22545, 23177, 23793, 24337], "queries": {"click": {"state": {"target": ["23", "1", "12", "4", "8", "30", "26"], "time": [3013, 5029, 7335, 11181, 13405, 16765, 19063]}, "edge": {"target": [], "time": []}}, "mouseover": {"state": {"target": ["23", "1", "12", "7", "4", "3", "8", "28", "24", "30", "25", "26", "27"], "time": [2801, 4779, 5756, 10786, 11019, 12364, 12475, 15661, 15912, 16427, 18707, 18879, 21177]}, "edge": {"target": [], "time": []}}, "mouseout": {"state": {"target": ["0", "23", "1", "12", "12", "7", "4", "3", "8", "28", "24", "30", "25", "26", "27", "23"], "time": [849, 4193, 5660, 7957, 10630, 10895, 12256, 12429, 15596, 15786, 16191, 17490, 18818, 19123, 21224, 26363]}, "edge": {"target": [], "time": []}}}, "displayed_time": "24.85", "trialTime": 26697, "trial_type": "mouselab-mdp", "trial_index": 18, "time_elapsed": 1425779, "internal_node_id": "0.0-6.0-1.0-9.0"}}, {"uniqueid": "w29144631:a60824404", "current_trial": 19, "dateTime": 1693390283537, "trialdata": {"revealed_states": [], "clicked_states": ["12", "19", "15", "16"], "num_clicks_accrued": [0, 0, 0, 0, 0, 0, 0, 0, 0, 0, 0, 0, 0], "stateRewards": ["", 1, 4, 5, -5, 58, -80, 75, 6, 25, -39, 46, 2, -2, 4, 2, 59, 31, -22, -12, -61, 15, 72, 1, -2, -7, 8, 77, 76, -23, -7, 71, -15, -3], "withholdReward": false, "trial_id": "mdp_trial_11", "block": "test", "trialIndex": 12, "score": 59.4, "costs": -5.6, "simulationMode": [null, null, null, null, null], "rewards": [2, -2, 4, 2, 59], "path": ["0", "0", "12", "13", "14", "15", "16"], "rt": [11582, 347, 168, 346, 646], "actions": ["right", "right", "right", "up", "up"], "actionTimes": [12945, 13799, 14480, 15344, 16503], "queries": {"click": {"state": {"target": ["12", "19", "15", "16"], "time": [2245, 5645, 7780, 10348]}, "edge": {"target": [], "time": []}}, "mouseover": {"state": {"target": ["0", "12", "13", "14", "19", "17", "15", "16", "17"], "time": [1866, 2074, 4764, 5184, 5497, 6311, 7543, 10060, 11888]}, "edge": {"target": [], "time": []}}, "mouseout": {"state": {"target": ["0", "0", "0", "12", "13", "14", "19", "17", "15", "16", "17", "14", "13"], "time": [360, 1011, 1904, 4652, 4949, 5434, 5713, 7481, 9967, 10593, 12497, 17779, 17810]}, "edge": {"target": [], "time": []}}}, "displayed_time": "17.01", "trialTime": 18543, "trial_type": "mouselab-mdp", "trial_index": 19, "time_elapsed": 1444523, "internal_node_id": "0.0-6.0-1.0-10.0"}}, {"uniqueid": "w29144631:a60824404", "current_trial": 20, "dateTime": 1693390388186, "trialdata": {"revealed_states": [], "clicked_states": ["12", "1", "23", "26"], "num_clicks_accrued": [0, 0, 0, 0, 0, 0, 0, 0, 0, 0, 0, 0, 0], "stateRewards": ["", 1, 4, -4, 14, 35, 51, 19, -13, 54, 78, -74, -2, -1, -3, 13, -11, -42, -73, -15, -24, -3, -69, 2, -1, 5, 16, -27, 73, 58, 9, -60, 5, -60], "withholdReward": false, "trial_id": "mdp_trial_12", "block": "test", "trialIndex": 13, "score": 74.4, "costs": -5.6, "simulationMode": [null, null, null, null, null], "rewards": [2, -1, 5, 16, 58], "path": ["0", "0", "23", "24", "25", "26", "29"], "rt": [11541, 140, 148, 108, 100], "actions": ["left", "left", "left", "up", "left"], "actionTimes": [98210, 98856, 99520, 100136, 100752], "queries": {"click": {"state": {"target": ["12", "1", "23", "26"], "time": [87805, 89989, 92236, 95228]}, "edge": {"target": [], "time": []}}, "mouseover": {"state": {"target": ["12", "1", "23", "0", "24", "28", "26", "30", "25"], "time": [87558, 88980, 90936, 93824, 94474, 94667, 94932, 96683, 97636]}, "edge": {"target": [], "time": []}}, "mouseout": {"state": {"target": ["0", "12", "12", "1", "23", "0", "23", "24", "28", "26", "30", "25", "24"], "time": [87546, 88511, 88859, 90542, 92887, 94308, 94385, 94635, 94834, 95417, 97605, 102682, 102808]}, "edge": {"target": [], "time": []}}}, "displayed_time": "101.26", "trialTime": 104440, "trial_type": "mouselab-mdp", "trial_index": 20, "time_elapsed": 1549172, "internal_node_id": "0.0-6.0-1.0-11.0"}}, {"uniqueid": "w29144631:a60824404", "current_trial": 21, "dateTime": 1693390425143, "trialdata": {"revealed_states": [], "clicked_states": ["23", "1", "12", "15"], "num_clicks_accrued": [0, 0, 0, 0, 0, 0, 0, 0, 0, 0, 0, 0, 0], "stateRewards": ["", 1, -1, 4, -2, -75, -75, 84, -9, -60, -79, 59, 2, -4, 8, 9, -17, -82, 80, 14, -4, 49, 49, -1, 3, 6, -11, -33, 34, 55, 9, -57, 5, 59], "withholdReward": false, "trial_id": "mdp_trial_13", "block": "test", "trialIndex": 14, "score": -7.6, "costs": -5.6, "simulationMode": [null, null, null, null, null], "rewards": [2, -4, 8, 9, -17], "path": ["0", "0", "12", "13", "14", "15", "16"], "rt": [10256, 75, 91, 70, 55], "actions": ["right", "right", "right", "up", "up"], "actionTimes": [11823, 12408, 13016, 13607, 14167], "queries": {"click": {"state": {"target": ["23", "1", "12", "15"], "time": [2260, 4230, 6468, 8964]}, "edge": {"target": [], "time": []}}, "mouseover": {"state": {"target": ["23", "1", "12", "13", "15", "14", "19", "19"], "time": [2049, 2941, 4625, 8518, 8673, 9503, 9565, 10673]}, "edge": {"target": [], "time": []}}, "mouseout": {"state": {"target": ["0", "23", "1", "12", "13", "15", "14", "19", "19"], "time": [2033, 2784, 4565, 7144, 8580, 9472, 9535, 10369, 15799]}, "edge": {"target": [], "time": []}}}, "displayed_time": "15.57", "trialTime": 36748, "trial_type": "mouselab-mdp", "trial_index": 21, "time_elapsed": 1586129, "internal_node_id": "0.0-6.0-1.0-12.0"}}, {"uniqueid": "w29144631:a60824404", "current_trial": 22, "dateTime": 1693390505979, "trialdata": {"revealed_states": [], "clicked_states": ["23", "1", "26", "30"], "num_clicks_accrued": [0, 0, 0, 0, 0, 0, 0, 0, 0, 0, 0, 0, 0], "stateRewards": ["", -2, -1, -3, -1, -78, -6, 2, -1, 22, -88, 32, 2, 2, -7, -8, -51, -17, 54, 2, -44, 54, 75, 2, -2, -8, -15, -29, 12, -67, 15, -1, -47, -47], "withholdReward": false, "trial_id": "mdp_trial_14", "block": "test", "trialIndex": 15, "score": -45.6, "costs": -5.6, "simulationMode": [null, null, null, null, null], "rewards": [2, -2, -8, 15, -47], "path": ["0", "0", "23", "24", "25", "30", "32"], "rt": [11111, 128, 167, 137, 256], "actions": ["left", "left", "left", "down", "down"], "actionTimes": [74685, 75331, 76011, 76667, 77443], "queries": {"click": {"state": {"target": ["23", "1", "26", "30"], "time": [64767, 66831, 69416, 71648]}, "edge": {"target": [], "time": []}}, "mouseover": {"state": {"target": ["23", "1", "12", "24", "26", "25", "30"], "time": [64592, 66170, 67327, 68982, 69286, 69966, 70029]}, "edge": {"target": [], "time": []}}, "mouseout": {"state": {"target": ["31", "23", "0", "0", "0", "23", "1", "12", "23", "24", "26", "25", "30", "30", "30"], "time": [52029, 61357, 62123, 62529, 64220, 65952, 67232, 68561, 68965, 68999, 69935, 69998, 72764, 79173, 79469]}, "edge": {"target": [], "time": []}}}, "displayed_time": "77.95", "trialTime": 80611, "trial_type": "mouselab-mdp", "trial_index": 22, "time_elapsed": 1666965, "internal_node_id": "0.0-6.0-1.0-13.0"}}, {"uniqueid": "w29144631:a60824404", "current_trial": 23, "dateTime": 1693390526275, "trialdata": {"revealed_states": [], "clicked_states": ["23", "1", "12", "17"], "num_clicks_accrued": [0, 0, 0, 0, 0, 0, 0, 0, 0, 0, 0, 0, 0], "stateRewards": ["", -2, -1, -6, -14, -55, 78, -13, 11, 14, -71, 59, 2, 2, 6, -6, 9, 38, 14, 7, 85, 11, 68, 1, -4, -1, -3, -63, -85, 9, -2, 63, -86, -10], "withholdReward": false, "trial_id": "mdp_trial_15", "block": "test", "trialIndex": 16, "score": 36.4, "costs": -5.6, "simulationMode": [null, null, null, null, null], "rewards": [2, 2, 6, -6, 38], "path": ["0", "0", "12", "13", "14", "15", "17"], "rt": [10237, 38, 110, 753, 56], "actions": ["right", "right", "right", "up", "right"], "actionTimes": [14080, 14626, 15243, 16513, 17080], "queries": {"click": {"state": {"target": ["23", "1", "12", "17"], "time": [4446, 6397, 8477, 11453]}, "edge": {"target": [], "time": []}}, "mouseover": {"state": {"target": ["23", "1", "12", "0", "23", "13", "14", "17"], "time": [4210, 5071, 6820, 10711, 10758, 10944, 10962, 11305]}, "edge": {"target": [], "time": []}}, "mouseout": {"state": {"target": ["0", "23", "1", "12", "0", "23", "13", "14", "17", "14", "22"], "time": [4054, 4867, 6775, 10663, 10741, 10804, 10961, 10976, 13366, 18680, 18789]}, "edge": {"target": [], "time": []}}}, "displayed_time": "17.84", "trialTime": 20088, "trial_type": "mouselab-mdp", "trial_index": 23, "time_elapsed": 1687261, "internal_node_id": "0.0-6.0-1.0-14.0"}}, {"uniqueid": "w29144631:a60824404", "current_trial": 24, "dateTime": 1693390551974, "trialdata": {"revealed_states": [], "clicked_states": ["23", "1", "12", "21", "22", "16"], "num_clicks_accrued": [0, 0, 0, 0, 0, 0, 0, 0, 0, 0, 0, 0, 0], "stateRewards": ["", 1, 1, 7, -11, 80, -20, -53, -14, 3, 31, 27, 2, -1, -8, -10, 33, 41, 86, 9, 78, -37, -13, -1, -2, -6, -8, -80, 75, 4, -16, -49, -74, 24], "withholdReward": false, "trial_id": "mdp_trial_16", "block": "test", "trialIndex": 17, "score": 7.600000000000001, "costs": -8.4, "simulationMode": [null, null, null, null, null], "rewards": [2, -1, -8, -10, 33], "path": ["0", "0", "12", "13", "14", "15", "16"], "rt": [15944, 522, 260, 100, 34], "actions": ["right", "right", "right", "up", "up"], "actionTimes": [18194, 19242, 20012, 20634, 21177], "queries": {"click": {"state": {"target": ["23", "1", "12", "21", "22", "16"], "time": [3006, 4903, 7150, 10494, 12688, 15498]}, "edge": {"target": [], "time": []}}, "mouseover": {"state": {"target": ["23", "1", "12", "14", "15", "17", "15", "14", "19", "21", "21", "22", "19", "20", "16"], "time": [2861, 3605, 5650, 9157, 9330, 9611, 9987, 10064, 10096, 10112, 10361, 11240, 14142, 14782, 15362]}, "edge": {"target": [], "time": []}}, "mouseout": {"state": {"target": ["0", "23", "1", "12", "14", "15", "17", "15", "14", "19", "21", "21", "22", "19", "20", "16"], "time": [2800, 3424, 5330, 7940, 9189, 9362, 9954, 10033, 10079, 10111, 10126, 11142, 14129, 14236, 15096, 24772]}, "edge": {"target": [], "time": []}}}, "displayed_time": "21.69", "trialTime": 25516, "trial_type": "mouselab-mdp", "trial_index": 24, "time_elapsed": 1712960, "internal_node_id": "0.0-6.0-1.0-15.0"}}, {"uniqueid": "w29144631:a60824404", "current_trial": 25, "dateTime": 1693390573284, "trialdata": {"revealed_states": [], "clicked_states": ["23", "1", "15", "19", "21"], "num_clicks_accrued": [0, 0, 0, 0, 0, 0, 0, 0, 0, 0, 0, 0, 0], "stateRewards": ["", -1, -3, 1, -4, -48, -63, -49, -2, -84, -19, 65, 2, -2, -2, -12, -4, 59, 9, 6, 75, 69, -13, -1, -3, -3, -2, -37, -68, -36, 13, 32, 18, -14], "withholdReward": false, "trial_id": "mdp_trial_17", "block": "test", "trialIndex": 18, "score": 66, "costs": -7, "simulationMode": [null, null, null, null, null], "rewards": [2, -2, -2, 6, 69], "path": ["0", "0", "12", "13", "14", "19", "21"], "rt": [13511, 495, 193, 65, 118], "actions": ["right", "right", "right", "down", "down"], "actionTimes": [16421, 17445, 18157, 18741, 19365], "queries": {"click": {"state": {"target": ["23", "1", "15", "19", "21"], "time": [3929, 5873, 8882, 11291, 13912]}, "edge": {"target": [], "time": []}}, "mouseover": {"state": {"target": ["23", "1", "12", "14", "15", "14", "19", "21", "21"], "time": [3666, 4807, 8135, 8417, 8728, 10963, 11042, 13494, 13699]}, "edge": {"target": [], "time": []}}, "mouseout": {"state": {"target": ["16", "0", "23", "1", "12", "14", "15", "14", "19", "21"], "time": [573, 3400, 4074, 6417, 8229, 8588, 10947, 10995, 13338, 13510]}, "edge": {"target": [], "time": []}}}, "displayed_time": "19.87", "trialTime": 21069, "trial_type": "mouselab-mdp", "trial_index": 25, "time_elapsed": 1734270, "internal_node_id": "0.0-6.0-1.0-16.0"}}, {"uniqueid": "w29144631:a60824404", "current_trial": 26, "dateTime": 1693390600684, "trialdata": {"revealed_states": [], "clicked_states": ["1", "23", "25", "32", "28", "31", "27"], "num_clicks_accrued": [0, 0, 0, 0, 0, 0, 0, 0, 0, 0, 0, 0, 0], "stateRewards": ["", -2, -4, -2, 10, -8, -15, -47, 7, -84, 53, 5, -1, 2, -7, 3, 83, 31, 47, -1, 30, -8, 69, 2, -4, -1, 8, -7, 12, -8, -8, -13, 30, -84], "withholdReward": false, "trial_id": "mdp_trial_18", "block": "test", "trialIndex": 19, "score": 9.2, "costs": -9.8, "simulationMode": [null, null, null, null, null], "rewards": [2, -4, -1, -8, 30], "path": ["0", "0", "23", "24", "25", "30", "32"], "rt": [19389, 8, 661, 155, 99], "actions": ["left", "left", "left", "down", "down"], "actionTimes": [21524, 22042, 23228, 23892, 24508], "queries": {"click": {"state": {"target": ["1", "23", "25", "32", "28", "31", "27"], "time": [2952, 6568, 9000, 11714, 14305, 16655, 19184]}, "edge": {"target": [], "time": []}}, "mouseover": {"state": {"target": ["1", "23", "24", "23", "23", "24", "25", "30", "30", "32", "24", "28", "24", "31", "24", "27", "27", "0"], "time": [2845, 5455, 5768, 6142, 6477, 8642, 8690, 11189, 11408, 11580, 14002, 14173, 16331, 16454, 18705, 18822, 19033, 19842]}, "edge": {"target": [], "time": []}}, "mouseout": {"state": {"target": ["21", "22", "12", "0", "1", "23", "24", "23", "23", "24", "25", "30", "30", "32", "24", "28", "24", "31", "31", "24", "27", "27", "0"], "time": [675, 830, 1034, 2673, 5317, 5736, 6111, 6294, 6971, 8674, 9312, 11237, 11469, 13815, 14065, 16318, 16410, 17127, 18674, 18721, 18862, 19471, 19856]}, "edge": {"target": [], "time": []}}}, "displayed_time": "25.02", "trialTime": 27164, "trial_type": "mouselab-mdp", "trial_index": 26, "time_elapsed": 1761670, "internal_node_id": "0.0-6.0-1.0-17.0"}}, {"uniqueid": "w29144631:a60824404", "current_trial": 27, "dateTime": 1693390622277, "trialdata": {"revealed_states": [], "clicked_states": ["23", "1", "26", "27"], "num_clicks_accrued": [0, 0, 0, 0, 0, 0, 0, 0, 0, 0, 0, 0, 0], "stateRewards": ["", 1, -1, 1, 13, 31, -56, 72, 2, 41, 5, 63, -2, -3, -2, 3, -71, -26, 52, 13, -31, 24, -67, 2, -2, 5, 4, 66, 43, 72, 9, 86, -26, 44], "withholdReward": false, "trial_id": "mdp_trial_19", "block": "test", "trialIndex": 20, "score": 69.4, "costs": -5.6, "simulationMode": [null, null, null, null, null], "rewards": [2, -2, 5, 4, 66], "path": ["0", "0", "23", "24", "25", "26", "27"], "rt": [12593, 89, 123, 10, 78], "actions": ["left", "left", "left", "up", "up"], "actionTimes": [14314, 14915, 15562, 16093, 16698], "queries": {"click": {"state": {"target": ["23", "1", "26", "27"], "time": [2974, 5920, 8815, 11558]}, "edge": {"target": [], "time": []}}, "mouseover": {"state": {"target": ["23", "1", "26", "26", "25", "30", "25", "27", "28"], "time": [2085, 3386, 8398, 8631, 10664, 10896, 11039, 11367, 13679]}, "edge": {"target": [], "time": []}}, "mouseout": {"state": {"target": ["0", "23", "1", "26", "26", "25", "30", "25", "27", "28"], "time": [1851, 3258, 8117, 8430, 10601, 10820, 11022, 11055, 13257, 13740]}, "edge": {"target": [], "time": []}}}, "displayed_time": "17.21", "trialTime": 21370, "trial_type": "mouselab-mdp", "trial_index": 27, "time_elapsed": 1783262, "internal_node_id": "0.0-6.0-1.0-18.0"}}, {"uniqueid": "w29144631:a60824404", "current_trial": 28, "dateTime": 1693390746901, "trialdata": {"revealed_states": [], "clicked_states": ["23", "1", "4", "6", "7", "5"], "num_clicks_accrued": [0, 0, 0, 0, 0, 0, 0, 0, 0, 0, 0, 0, 0], "stateRewards": ["", 2, 1, -3, 7, 46, 11, -36, 16, 71, 5, 1, 2, -2, -8, -3, -4, 6, 55, 7, 68, -54, 2, 1, 1, 6, -6, 42, -4, -84, -11, -65, 63, 25], "withholdReward": false, "trial_id": "mdp_trial_20", "block": "test", "trialIndex": 21, "score": 44.6, "costs": -8.4, "simulationMode": [null, null, null, null, null], "rewards": [2, 1, -3, 7, 46], "path": ["0", "0", "1", "2", "3", "4", "5"], "rt": [15509, 44, 137, 50, 75], "actions": ["up", "up", "up", "right", "up"], "actionTimes": [118315, 118868, 119540, 120108, 120696], "queries": {"click": {"state": {"target": ["23", "1", "4", "6", "7", "5"], "time": [103552, 105984, 108448, 110760, 113201, 115583]}, "edge": {"target": [], "time": []}}, "mouseover": {"state": {"target": ["23", "1", "2", "4", "6", "7", "4", "5"], "time": [103385, 104075, 107963, 108135, 110603, 112697, 115165, 115413]}, "edge": {"target": [], "time": []}}, "mouseout": {"state": {"target": ["16", "23", "1", "23", "1", "2", "4", "6", "7", "4", "5", "4", "13"], "time": [1261, 102259, 102493, 104028, 107926, 107994, 110501, 112681, 113744, 115197, 122682, 122807, 123477]}, "edge": {"target": [], "time": []}}}, "displayed_time": "121.22", "trialTime": 124420, "trial_type": "mouselab-mdp", "trial_index": 28, "time_elapsed": 1907887, "internal_node_id": "0.0-6.0-1.0-19.0"}}, {"uniqueid": "w29144631:a60824404", "current_trial": 29, "dateTime": 1693390776221, "trialdata": {"revealed_states": [], "clicked_states": ["23", "1", "4", "8", "5", "7", "16", "18", "31"], "num_clicks_accrued": [0, 0, 0, 0, 0, 0, 0, 0, 0, 0, 0, 0, 0], "stateRewards": ["", 2, -1, 8, -2, -16, 69, -39, -7, -13, -27, -86, 2, -2, 2, 13, -34, -16, -20, -5, 19, 81, 32, -2, -1, 2, -14, 20, 80, 58, 4, 70, 12, 73], "withholdReward": false, "trial_id": "mdp_trial_21", "block": "test", "trialIndex": 22, "score": 60.4, "costs": -12.600000000000001, "simulationMode": [null, null, null, null, null], "rewards": [-2, -1, 2, 4, 70], "path": ["0", "0", "23", "24", "25", "30", "31"], "rt": [22290, 74, 207, 249, 115], "actions": ["left", "left", "left", "down", "right"], "actionTimes": [23220, 23810, 24538, 25299, 25930], "queries": {"click": {"state": {"target": ["23", "1", "4", "8", "5", "7", "16", "18", "31"], "time": [1621, 4110, 6566, 8606, 10944, 13294, 15582, 17741, 20566]}, "edge": {"target": [], "time": []}}, "mouseover": {"state": {"target": ["23", "1", "2", "4", "8", "3", "5", "4", "7", "7", "16", "15", "18", "13", "12", "0", "25", "30", "31", "31"], "time": [1422, 3781, 6219, 6313, 8267, 10609, 10766, 12906, 12953, 13140, 15461, 16065, 17532, 18172, 19828, 19876, 19984, 20109, 20143, 20375]}, "edge": {"target": [], "time": []}}, "mouseout": {"state": {"target": ["12", "23", "1", "2", "4", "4", "8", "3", "5", "4", "7", "7", "16", "15", "18", "13", "12", "0", "25", "30", "31", "31", "31"], "time": [375, 3672, 6188, 6235, 6635, 7547, 10593, 10624, 12828, 12923, 13016, 14095, 16018, 16127, 18079, 19812, 19845, 19907, 20001, 20142, 20157, 21765, 27796]}, "edge": {"target": [], "time": []}}}, "displayed_time": "26.44", "trialTime": 29090, "trial_type": "mouselab-mdp", "trial_index": 29, "time_elapsed": 1937207, "internal_node_id": "0.0-6.0-1.0-20.0"}}, {"uniqueid": "w29144631:a60824404", "current_trial": 30, "dateTime": 1693390794429, "trialdata": {"revealed_states": [], "clicked_states": ["23", "1", "26", "27"], "num_clicks_accrued": [0, 0, 0, 0, 0, 0, 0, 0, 0, 0, 0, 0, 0], "stateRewards": ["", 1, -3, 4, 13, -72, 52, 5, 5, -58, 5, 14, 2, 1, 3, -14, -86, -4, 73, 6, -58, -50, 49, 2, -3, -4, 2, 33, -41, 42, -11, 81, 45, 53], "withholdReward": false, "trial_id": "mdp_trial_22", "block": "test", "trialIndex": 23, "score": 24.4, "costs": -5.6, "simulationMode": [null, null, null, null, null], "rewards": [2, -3, -4, 2, 33], "path": ["0", "0", "23", "24", "25", "26", "27"], "rt": [10473, 52, 104, 48, 32], "actions": ["left", "left", "left", "up", "up"], "actionTimes": [12563, 13123, 13754, 14322, 14885], "queries": {"click": {"state": {"target": ["23", "1", "26", "27"], "time": [2839, 4784, 7238, 9934]}, "edge": {"target": [], "time": []}}, "mouseover": {"state": {"target": ["0", "23", "1", "1", "24", "26", "27"], "time": [2556, 2619, 3320, 4319, 6062, 6620, 9804]}, "edge": {"target": [], "time": []}}, "mouseout": {"state": {"target": ["31", "12", "0", "23", "1", "1", "23", "23", "24", "26", "26", "27", "27", "24"], "time": [747, 1116, 2602, 3088, 3758, 5430, 5555, 5917, 6212, 9320, 9508, 16211, 16461, 16633]}, "edge": {"target": [], "time": []}}}, "displayed_time": "16.09", "trialTime": 17946, "trial_type": "mouselab-mdp", "trial_index": 30, "time_elapsed": 1955415, "internal_node_id": "0.0-6.0-1.0-21.0"}}, {"uniqueid": "w29144631:a60824404", "current_trial": 31, "dateTime": 1693390818214, "trialdata": {"revealed_states": [], "clicked_states": ["23", "1", "4", "8", "9", "11"], "num_clicks_accrued": [0, 0, 0, 0, 0, 0, 0, 0, 0, 0, 0, 0, 0], "stateRewards": ["", 1, 3, 3, -10, 52, 68, 59, 12, 7, 49, 21, -2, -3, -4, -2, -2, 63, 63, -4, 44, 43, -76, -2, -3, -6, 13, 48, 36, 12, -5, -36, -33, -11], "withholdReward": false, "trial_id": "mdp_trial_23", "block": "test", "trialIndex": 24, "score": 31.6, "costs": -8.4, "simulationMode": [null, null, null, null, null], "rewards": [1, 3, 3, 12, 21], "path": ["0", "0", "1", "2", "3", "8", "11"], "rt": [15137, 333, 89, 7, 91], "actions": ["up", "up", "up", "left", "left"], "actionTimes": [16809, 17657, 18257, 18771, 19385], "queries": {"click": {"state": {"target": ["23", "1", "4", "8", "9", "11"], "time": [2197, 4438, 6927, 9190, 11341, 14045]}, "edge": {"target": [], "time": []}}, "mouseover": {"state": {"target": ["0", "23", "1", "7", "4", "3", "8", "9", "11"], "time": [1853, 1980, 4261, 6511, 6683, 8902, 8980, 11183, 13495]}, "edge": {"target": [], "time": []}}, "mouseout": {"state": {"target": ["23", "0", "23", "1", "7", "4", "3", "8", "9", "11"], "time": [603, 1933, 4154, 5154, 6589, 8886, 8934, 11123, 12798, 14542]}, "edge": {"target": [], "time": []}}}, "displayed_time": "19.91", "trialTime": 23578, "trial_type": "mouselab-mdp", "trial_index": 31, "time_elapsed": 1979199, "internal_node_id": "0.0-6.0-1.0-22.0"}}, {"uniqueid": "w29144631:a60824404", "current_trial": 32, "dateTime": 1693390845160, "trialdata": {"revealed_states": [], "clicked_states": ["23", "1", "15", "16", "18", "21", "20"], "num_clicks_accrued": [0, 0, 0, 0, 0, 0, 0, 0, 0, 0, 0, 0, 0], "stateRewards": ["", -2, 1, -3, -16, -39, -52, 30, -7, -41, -59, 11, 2, 1, 8, 2, -11, -26, -42, -13, 87, -59, -48, -1, -1, -1, 16, -79, 31, 50, -1, -84, 34, -82], "withholdReward": false, "trial_id": "mdp_trial_24", "block": "test", "trialIndex": 25, "score": 75.2, "costs": -9.8, "simulationMode": [null, null, null, null, null], "rewards": [2, 1, 8, -13, 87], "path": ["0", "0", "12", "13", "14", "19", "20"], "rt": [20211, 87, 38, 667, 111], "actions": ["right", "right", "right", "down", "right"], "actionTimes": [21766, 22374, 22918, 24094, 24710], "queries": {"click": {"state": {"target": ["23", "1", "15", "16", "18", "21", "20"], "time": [3171, 5803, 8897, 11778, 14129, 16611, 18954]}, "edge": {"target": [], "time": []}}, "mouseover": {"state": {"target": ["23", "24", "23", "23", "1", "12", "13", "14", "15", "14", "14", "16", "18", "19", "21", "20"], "time": [2207, 2410, 2456, 2957, 5441, 7815, 7973, 8223, 8551, 10503, 11315, 11629, 13988, 16191, 16426, 18738]}, "edge": {"target": [], "time": []}}, "mouseout": {"state": {"target": ["10", "1", "23", "24", "23", "23", "1", "12", "13", "14", "15", "15", "14", "14", "15", "16", "18", "19", "21", "20", "19", "22"], "time": [1035, 1270, 2238, 2426, 2488, 5301, 7775, 7926, 8097, 8519, 9207, 10333, 10973, 11347, 11394, 12051, 16050, 16292, 16623, 25879, 26003, 26067]}, "edge": {"target": [], "time": []}}}, "displayed_time": "25.23", "trialTime": 26719, "trial_type": "mouselab-mdp", "trial_index": 32, "time_elapsed": 2006145, "internal_node_id": "0.0-6.0-1.0-23.0"}}, {"uniqueid": "w29144631:a60824404", "current_trial": 33, "dateTime": 1693390863062, "trialdata": {"revealed_states": [], "clicked_states": ["23", "26", "29"], "num_clicks_accrued": [0, 0, 0, 0, 0, 0, 0, 0, 0, 0, 0, 0, 0], "stateRewards": ["", 2, -1, 4, -9, -43, 7, 54, -13, 38, -40, -83, -1, 2, -8, -10, 34, -33, 11, -14, -79, 65, 26, 1, 2, 4, 10, 21, 1, 86, 4, -53, 28, -29], "withholdReward": false, "trial_id": "mdp_trial_25", "block": "test", "trialIndex": 26, "score": 98.8, "costs": -4.199999999999999, "simulationMode": [null, null, null, null, null], "rewards": [1, 2, 4, 10, 86], "path": ["0", "0", "23", "24", "25", "26", "29"], "rt": [8536, 316, 54, 70, 532], "actions": ["left", "left", "left", "up", "left"], "actionTimes": [10375, 11197, 11765, 12358, 13397], "queries": {"click": {"state": {"target": ["23", "26", "29"], "time": [2698, 5306, 7850]}, "edge": {"target": [], "time": []}}, "mouseover": {"state": {"target": ["23", "26", "29"], "time": [2504, 5021, 7630]}, "edge": {"target": [], "time": []}}, "mouseout": {"state": {"target": ["0", "23", "23", "26", "29", "26", "28", "1", "0"], "time": [2270, 3193, 4771, 7599, 9849, 14347, 14395, 15474, 15567]}, "edge": {"target": [], "time": []}}}, "displayed_time": "15.84", "trialTime": 17669, "trial_type": "mouselab-mdp", "trial_index": 33, "time_elapsed": 2024047, "internal_node_id": "0.0-6.0-1.0-24.0"}}, {"uniqueid": "w29144631:a60824404", "current_trial": 34, "dateTime": 1693390886453, "trialdata": {"revealed_states": [], "clicked_states": ["23", "1", "4", "5", "7", "6"], "num_clicks_accrued": [0, 0, 0, 0, 0, 0, 0, 0, 0, 0, 0, 0, 0], "stateRewards": ["", 1, 1, 1, 15, -76, 52, -32, 14, -57, 37, 49, 1, -4, -3, 6, 83, -76, 25, 9, 36, -1, -17, -1, 4, 4, -2, -22, -21, 58, -15, -57, 49, -24], "withholdReward": false, "trial_id": "mdp_trial_26", "block": "test", "trialIndex": 27, "score": 61.6, "costs": -8.4, "simulationMode": [null, null, null, null, null], "rewards": [1, 1, 1, 15, 52], "path": ["0", "0", "1", "2", "3", "4", "6"], "rt": [15124, 414, 156, 12, 114], "actions": ["up", "up", "up", "right", "right"], "actionTimes": [18165, 19109, 19774, 20302, 20950], "queries": {"click": {"state": {"target": ["23", "1", "4", "5", "7", "6"], "time": [3634, 6410, 8993, 11481, 13428, 15673]}, "edge": {"target": [], "time": []}}, "mouseover": {"state": {"target": ["23", "1", "7", "4", "5", "7", "6"], "time": [3459, 5943, 8475, 8631, 11319, 12212, 15476]}, "edge": {"target": [], "time": []}}, "mouseout": {"state": {"target": ["12", "0", "23", "1", "7", "4", "5", "4", "7", "6", "6"], "time": [1647, 3240, 5679, 8367, 8522, 11084, 12008, 12150, 15381, 22071, 22397]}, "edge": {"target": [], "time": []}}}, "displayed_time": "21.46", "trialTime": 23157, "trial_type": "mouselab-mdp", "trial_index": 34, "time_elapsed": 2047439, "internal_node_id": "0.0-6.0-1.0-25.0"}}, {"uniqueid": "w29144631:a60824404", "current_trial": 35, "dateTime": 1693390902661, "trialdata": {"revealed_states": [], "clicked_states": ["23", "1", "4", "5"], "num_clicks_accrued": [0, 0, 0, 0, 0, 0, 0, 0, 0, 0, 0, 0, 0], "stateRewards": ["", 2, -4, 7, 3, 23, -42, 4, 7, -81, -33, 7, -2, -4, 5, -1, 50, -57, -14, -13, -14, 44, 55, -2, -2, 5, -2, 33, 1, 57, -13, -7, 58, 87], "withholdReward": false, "trial_id": "mdp_trial_27", "block": "test", "trialIndex": 28, "score": 25.4, "costs": -5.6, "simulationMode": [null, null, null, null, null], "rewards": [2, -4, 7, 3, 23], "path": ["0", "0", "1", "2", "3", "4", "5"], "rt": [10716, 121, 145, 9, 47], "actions": ["up", "up", "up", "right", "up"], "actionTimes": [11950, 12589, 13253, 13772, 14341], "queries": {"click": {"state": {"target": ["23", "1", "4", "5"], "time": [2027, 4296, 6889, 9217]}, "edge": {"target": [], "time": []}}, "mouseover": {"state": {"target": ["23", "23", "1", "4", "4", "5", "6"], "time": [1667, 1854, 4152, 6340, 6606, 9059, 11042]}, "edge": {"target": [], "time": []}}, "mouseout": {"state": {"target": ["6", "1", "23", "23", "1", "4", "4", "5"], "time": [683, 917, 1700, 3981, 6231, 6403, 8953, 9982]}, "edge": {"target": [], "time": []}}}, "displayed_time": "15.24", "trialTime": 15964, "trial_type": "mouselab-mdp", "trial_index": 35, "time_elapsed": 2063647, "internal_node_id": "0.0-6.0-1.0-26.0"}}, {"uniqueid": "w29144631:a60824404", "current_trial": 36, "dateTime": 1693390966111, "trialdata": {"revealed_states": [], "clicked_states": ["23", "26", "30", "32"], "num_clicks_accrued": [0, 0, 0, 0, 0, 0, 0, 0, 0, 0, 0, 0, 0], "stateRewards": ["", -2, 3, -1, 2, -72, 63, 20, -1, 62, -66, 39, -2, 3, -6, 14, 22, 47, 1, 8, -49, -1, -41, 2, 2, -6, -16, -64, -60, -34, 16, 54, 22, -7], "withholdReward": false, "trial_id": "mdp_trial_28", "block": "test", "trialIndex": 29, "score": 30.4, "costs": -5.6, "simulationMode": [null, null, null, null, null], "rewards": [2, 2, -6, 16, 22], "path": ["0", "0", "23", "24", "25", "30", "32"], "rt": [10476, 35, 572, 129, 73], "actions": ["left", "left", "left", "down", "down"], "actionTimes": [58036, 58586, 59682, 60323, 60906], "queries": {"click": {"state": {"target": ["23", "26", "30", "32"], "time": [48103, 50711, 53095, 55326]}, "edge": {"target": [], "time": []}}, "mouseover": {"state": {"target": ["23", "0", "1", "28", "28", "26", "25", "30", "32"], "time": [47973, 49348, 50128, 50222, 50411, 50598, 52597, 52707, 53755]}, "edge": {"target": [], "time": []}}, "mouseout": {"state": {"target": ["6", "7", "1", "0", "23", "0", "1", "28", "28", "26", "25", "30", "32"], "time": [46957, 47066, 47129, 47896, 49144, 50020, 50145, 50254, 50489, 52117, 52644, 53595, 56396]}, "edge": {"target": [], "time": []}}}, "displayed_time": "61.56", "trialTime": 63203, "trial_type": "mouselab-mdp", "trial_index": 36, "time_elapsed": 2127096, "internal_node_id": "0.0-6.0-1.0-27.0"}}, {"uniqueid": "w29144631:a60824404", "current_trial": 37, "dateTime": 1693390990423, "trialdata": {"revealed_states": [], "clicked_states": ["1", "4", "9", "11", "10", "16"], "num_clicks_accrued": [0, 0, 0, 0, 0, 0, 0, 0, 0, 0, 0, 0, 0], "stateRewards": ["", 2, 2, 3, -15, 23, -14, 73, -7, -32, -20, -6, 1, 1, -5, -12, 73, 6, -84, 11, -81, -57, 13, -2, -1, -4, -8, -52, -58, 49, 13, 5, -41, -41], "withholdReward": false, "trial_id": "mdp_trial_29", "block": "test", "trialIndex": 30, "score": 49.6, "costs": -8.4, "simulationMode": [null, null, null, null, null], "rewards": [1, 1, -5, -12, 73], "path": ["0", "0", "12", "13", "14", "15", "16"], "rt": [15909, 57, 83, 359, 45], "actions": ["right", "right", "right", "up", "up"], "actionTimes": [18661, 19254, 19853, 20726, 21286], "queries": {"click": {"state": {"target": ["1", "4", "9", "11", "10", "16"], "time": [3314, 5899, 8449, 11249, 13385, 16100]}, "edge": {"target": [], "time": []}}, "mouseover": {"state": {"target": ["1", "7", "4", "3", "8", "9", "11", "8", "11", "10", "18", "15", "16", "17"], "time": [3223, 5473, 5614, 7973, 8006, 8333, 9275, 10692, 11098, 11993, 15441, 15818, 16020, 16821]}, "edge": {"target": [], "time": []}}, "mouseout": {"state": {"target": ["20", "0", "1", "7", "4", "3", "8", "9", "11", "8", "11", "10", "18", "15", "16", "17", "14", "13"], "time": [1222, 2426, 5316, 5538, 7942, 7989, 8035, 9093, 10566, 11005, 11914, 13771, 15458, 15910, 16664, 16943, 22599, 22645]}, "edge": {"target": [], "time": []}}}, "displayed_time": "21.82", "trialTime": 24078, "trial_type": "mouselab-mdp", "trial_index": 37, "time_elapsed": 2151408, "internal_node_id": "0.0-6.0-1.0-28.0"}}, {"uniqueid": "w29144631:a60824404", "current_trial": 38, "dateTime": 1693391012591, "trialdata": {"revealed_states": [], "clicked_states": ["23", "26", "27", "28", "29"], "num_clicks_accrued": [0, 0, 0, 0, 0, 0, 0, 0, 0, 0, 0, 0, 0], "stateRewards": ["", -1, -4, -1, -11, 43, 69, 39, 4, 17, -20, -82, -2, -1, 4, 8, -79, 24, -79, 11, 36, 64, 41, 2, 4, -1, 11, -79, -47, 75, -3, 63, -36, -19], "withholdReward": false, "trial_id": "mdp_trial_30", "block": "test", "trialIndex": 31, "score": 84, "costs": -7, "simulationMode": [null, null, null, null, null], "rewards": [2, 4, -1, 11, 75], "path": ["0", "0", "23", "24", "25", "26", "29"], "rt": [13048, 521, 109, 52, 500], "actions": ["left", "left", "left", "up", "left"], "actionTimes": [15011, 16068, 16692, 17260, 18318], "queries": {"click": {"state": {"target": ["23", "26", "27", "28", "29"], "time": [2632, 5848, 8191, 10201, 12522]}, "edge": {"target": [], "time": []}}, "mouseover": {"state": {"target": ["23", "24", "26", "27", "28", "26", "29", "26"], "time": [2502, 5049, 5284, 8065, 9051, 12113, 12362, 14502]}, "edge": {"target": [], "time": []}}, "mouseout": {"state": {"target": ["0", "23", "23", "24", "26", "27", "28", "26", "29", "26"], "time": [2347, 3238, 4972, 5112, 7894, 8800, 11005, 12175, 13285, 14518]}, "edge": {"target": [], "time": []}}}, "displayed_time": "18.83", "trialTime": 21932, "trial_type": "mouselab-mdp", "trial_index": 38, "time_elapsed": 2173576, "internal_node_id": "0.0-6.0-1.0-29.0"}}, {"uniqueid": "w29144631:a60824404", "current_trial": 39, "dateTime": 1693391042856, "trialdata": {"revealed_states": [], "clicked_states": ["3", "14", "21", "22", "16", "18"], "num_clicks_accrued": [0, 0, 0, 0, 0, 0, 0, 0, 0, 0, 0, 0, 0], "stateRewards": ["", 2, 3, -1, 6, 44, -4, -59, -14, -3, 64, 16, 1, -3, 3, 6, 3, 49, 19, 3, -49, -14, -86, 1, 2, -3, -8, -33, 14, 32, -13, -77, -47, -67], "withholdReward": false, "trial_id": "mdp_trial_31", "block": "test", "trialIndex": 32, "score": 17.6, "costs": -8.4, "simulationMode": [null, null, null, null, null], "rewards": [1, -3, 3, 6, 19], "path": ["0", "0", "12", "13", "14", "15", "18"], "rt": [17389, 448, 499, 414, 123], "actions": ["right", "right", "right", "up", "left"], "actionTimes": [23569, 24523, 25530, 26459, 27089], "queries": {"click": {"state": {"target": ["3", "14", "21", "22", "16", "18"], "time": [7813, 10693, 13676, 15759, 18501, 20684]}, "edge": {"target": [], "time": []}}, "mouseover": {"state": {"target": ["7", "4", "3", "7", "13", "14", "19", "21", "22", "16", "18", "15"], "time": [6715, 6981, 7433, 8262, 10105, 10324, 13167, 13448, 15605, 18074, 20412, 22683]}, "edge": {"target": [], "time": []}}, "mouseout": {"state": {"target": ["10", "7", "4", "3", "7", "13", "14", "19", "21", "22", "16", "18", "15", "12"], "time": [4730, 6823, 7402, 8167, 8293, 10167, 12278, 13309, 14761, 17762, 19783, 22659, 22917, 29106]}, "edge": {"target": [], "time": []}}}, "displayed_time": "27.61", "trialTime": 30017, "trial_type": "mouselab-mdp", "trial_index": 39, "time_elapsed": 2203841, "internal_node_id": "0.0-6.0-1.0-30.0"}}, {"uniqueid": "w29144631:a60824404", "current_trial": 40, "dateTime": 1693391073353, "trialdata": {"revealed_states": [], "clicked_states": ["25", "3", "14", "6", "7"], "num_clicks_accrued": [0, 0, 0, 0, 0, 0, 0, 0, 0, 0, 0, 0, 0], "stateRewards": ["", 2, 3, -3, 4, 72, -28, 34, -12, 57, -64, -15, 2, 1, -4, -15, 2, 49, 31, -1, -42, -58, 31, -2, 1, -2, -13, -75, -19, -22, -6, 61, 10, -56], "withholdReward": false, "trial_id": "mdp_trial_32", "block": "test", "trialIndex": 33, "score": 33, "costs": -7, "simulationMode": [null, null, null, null, null], "rewards": [2, 3, -3, 4, 34], "path": ["0", "0", "1", "2", "3", "4", "7"], "rt": [16006, 113, 102, 475, 149], "actions": ["up", "up", "up", "right", "down"], "actionTimes": [24722, 25354, 25970, 26954, 27610], "queries": {"click": {"state": {"target": ["25", "3", "14", "6", "7"], "time": [10975, 13390, 15838, 19767, 22022]}, "edge": {"target": [], "time": []}}, "mouseover": {"state": {"target": ["23", "31", "32", "31", "24", "25", "24", "3", "7", "18", "14", "18", "7", "6", "7"], "time": [9210, 9350, 9583, 10022, 10271, 10834, 12959, 13194, 15381, 15429, 15600, 18943, 19146, 19521, 21102]}, "edge": {"target": [], "time": []}}, "mouseout": {"state": {"target": ["12", "1", "10", "10", "23", "31", "32", "31", "24", "25", "24", "3", "7", "18", "14", "14", "18", "7", "6", "7", "1"], "time": [6740, 7052, 7146, 7396, 9241, 9412, 9974, 10053, 10661, 12116, 12989, 14616, 15412, 15476, 16585, 18881, 18974, 19256, 20622, 29162, 29179]}, "edge": {"target": [], "time": []}}}, "displayed_time": "28.12", "trialTime": 30244, "trial_type": "mouselab-mdp", "trial_index": 40, "time_elapsed": 2234339, "internal_node_id": "0.0-6.0-1.0-31.0"}}, {"uniqueid": "w29144631:a60824404", "current_trial": 41, "dateTime": 1693391095704, "trialdata": {"revealed_states": [], "clicked_states": ["23", "1", "4", "5", "7", "6"], "num_clicks_accrued": [0, 0, 0, 0, 0, 0, 0, 0, 0, 0, 0, 0, 0], "stateRewards": ["", 2, 4, -3, 16, -58, 30, -35, 11, -60, 47, 27, -2, -1, -7, -16, 23, -70, 68, -10, -65, -43, -34, -2, 1, 7, 9, -63, 34, -31, -8, -12, -86, 59], "withholdReward": false, "trial_id": "mdp_trial_33", "block": "test", "trialIndex": 34, "score": 40.6, "costs": -8.4, "simulationMode": [null, null, null, null, null], "rewards": [2, 4, -3, 16, 30], "path": ["0", "0", "1", "2", "3", "4", "6"], "rt": [15090, 36, 227, 93, 146], "actions": ["up", "up", "up", "right", "right"], "actionTimes": [17470, 18014, 18750, 19350, 20014], "queries": {"click": {"state": {"target": ["23", "1", "4", "5", "7", "6"], "time": [3027, 5571, 8235, 10564, 12658, 14938]}, "edge": {"target": [], "time": []}}, "mouseover": {"state": {"target": ["23", "1", "7", "4", "7", "5", "7", "6"], "time": [2865, 5147, 7600, 7710, 8912, 10428, 11929, 14725]}, "edge": {"target": [], "time": []}}, "mouseout": {"state": {"target": ["23", "0", "23", "23", "23", "1", "1", "7", "4", "7", "4", "5", "4", "7", "6"], "time": [834, 2696, 3051, 3444, 5084, 5659, 6664, 7648, 8773, 10179, 10287, 10991, 11086, 13507, 15367]}, "edge": {"target": [], "time": []}}}, "displayed_time": "20.52", "trialTime": 22111, "trial_type": "mouselab-mdp", "trial_index": 41, "time_elapsed": 2256689, "internal_node_id": "0.0-6.0-1.0-32.0"}}, {"uniqueid": "w29144631:a60824404", "current_trial": 42, "dateTime": 1693391122233, "trialdata": {"revealed_states": [], "clicked_states": ["1", "4", "8", "32", "33", "28", "27"], "num_clicks_accrued": [0, 0, 0, 0, 0, 0, 0, 0, 0, 0, 0, 0, 0], "stateRewards": ["", 1, 2, 8, -2, 23, -69, -18, -16, 54, -21, 71, -1, -4, 7, 11, 43, -6, 88, 6, -55, 72, 43, 1, -3, -2, -1, 68, -31, -54, 4, -8, 25, -2], "withholdReward": false, "trial_id": "mdp_trial_34", "block": "test", "trialIndex": 35, "score": 53.2, "costs": -9.8, "simulationMode": [null, null, null, null, null], "rewards": [1, -3, -2, -1, 68], "path": ["0", "0", "23", "24", "25", "26", "27"], "rt": [19583, 65, 111, 8, 66], "actions": ["left", "left", "left", "up", "up"], "actionTimes": [21835, 22409, 23034, 23555, 24145], "queries": {"click": {"state": {"target": ["1", "4", "8", "32", "33", "28", "27"], "time": [4213, 6973, 9376, 12205, 14518, 16837, 19229]}, "edge": {"target": [], "time": []}}, "mouseover": {"state": {"target": ["0", "1", "12", "7", "4", "7", "8", "10", "24", "30", "32", "33", "25", "28", "27"], "time": [3436, 3734, 4938, 6609, 6749, 7468, 9109, 11531, 11625, 11827, 12031, 14312, 16406, 16593, 18891]}, "edge": {"target": [], "time": []}}, "mouseout": {"state": {"target": ["0", "0", "1", "12", "7", "4", "7", "8", "10", "24", "30", "32", "33", "25", "28", "28", "27", "28"], "time": [2999, 3531, 4643, 6485, 6655, 7407, 8952, 11499, 11562, 11671, 11985, 14046, 16344, 16422, 17385, 18781, 19641, 25548]}, "edge": {"target": [], "time": []}}}, "displayed_time": "24.66", "trialTime": 26227, "trial_type": "mouselab-mdp", "trial_index": 42, "time_elapsed": 2283218, "internal_node_id": "0.0-6.0-1.0-33.0"}}, {"uniqueid": "w29144631:a60824404", "current_trial": 43, "dateTime": 1693391258211, "trialdata": {"revealed_states": [], "clicked_states": ["1", "23", "26", "27", "32", "31"], "num_clicks_accrued": [0, 0, 0, 0, 0, 0, 0, 0, 0, 0, 0, 0, 0], "stateRewards": ["", -2, -4, 2, 10, -17, 18, 73, 11, -32, 23, -13, -2, -4, 7, 12, -25, 66, -23, 15, 40, -76, -9, 1, 2, -7, -5, -20, 24, 3, -5, 16, -73, 70], "withholdReward": false, "trial_id": "mdp_trial_35", "block": "test", "trialIndex": 36, "score": -1.3999999999999986, "costs": -8.4, "simulationMode": [null, null, null, null, null], "rewards": [1, 2, -7, -5, 16], "path": ["0", "0", "23", "24", "25", "30", "31"], "rt": [17796, 39, 68, 17, 175], "actions": ["left", "left", "left", "down", "right"], "actionTimes": [20529, 21073, 21649, 22178, 22882], "queries": {"click": {"state": {"target": ["1", "23", "26", "27", "32", "31"], "time": [4573, 7320, 10830, 13502, 15854, 17840]}, "edge": {"target": [], "time": []}}, "mouseover": {"state": {"target": ["1", "23", "12", "0", "24", "25", "26", "25", "30", "27", "25", "30", "32", "31", "30", "30", "33", "30"], "time": [4423, 5909, 8467, 9580, 9692, 10033, 10611, 11780, 12081, 13299, 15206, 15299, 15523, 17699, 18236, 18317, 19318, 20126]}, "edge": {"target": [], "time": []}}, "mouseout": {"state": {"target": ["28", "23", "0", "1", "23", "12", "0", "23", "24", "25", "26", "25", "30", "27", "26", "25", "30", "32", "31", "30", "30", "33", "30", "32"], "time": [1564, 1751, 4315, 5705, 7865, 9548, 9658, 9690, 9720, 10548, 11488, 11939, 12878, 14705, 15143, 15267, 15377, 16988, 18142, 18283, 18398, 20099, 24502, 24673]}, "edge": {"target": [], "time": []}}}, "displayed_time": "23.39", "trialTime": 135645, "trial_type": "mouselab-mdp", "trial_index": 43, "time_elapsed": 2419197, "internal_node_id": "0.0-6.0-1.0-34.0"}}, {"uniqueid": "w29144631:a60824404", "current_trial": 44, "dateTime": 1693391360353, "trialdata": {"revealed_states": [], "clicked_states": ["23", "1", "19", "15", "16"], "num_clicks_accrued": [0, 0, 0, 0, 0, 0, 0, 0, 0, 0, 0, 0, 0], "stateRewards": ["", -1, 2, 7, 8, 75, 67, -11, 6, 52, -17, 38, -1, 4, -8, 14, 74, -37, -17, -12, 52, 55, 71, -2, -1, -5, 2, 21, 6, -88, -14, 64, -61, -47], "withholdReward": false, "trial_id": "mdp_trial_36", "block": "test", "trialIndex": 37, "score": 76, "costs": -7, "simulationMode": [null, null, null, null, null], "rewards": [-1, 4, -8, 14, 74], "path": ["0", "0", "12", "13", "14", "15", "16"], "rt": [12889, 115, 203, 116, 82], "actions": ["right", "right", "right", "up", "up"], "actionTimes": [96740, 97372, 98084, 98716, 99308], "queries": {"click": {"state": {"target": ["23", "1", "19", "15", "16"], "time": [84400, 86496, 89217, 91536, 93842]}, "edge": {"target": [], "time": []}}, "mouseover": {"state": {"target": ["23", "1", "13", "14", "19", "14", "15", "16", "18", "22"], "time": [84240, 86333, 88583, 88865, 88973, 91193, 91272, 93614, 94333, 96193]}, "edge": {"target": [], "time": []}}, "mouseout": {"state": {"target": ["0", "23", "1", "13", "14", "19", "19", "14", "15", "15", "16", "18", "22"], "time": [83552, 86005, 88505, 88833, 88927, 89583, 91162, 91224, 91904, 93521, 94194, 95958, 96209]}, "edge": {"target": [], "time": []}}}, "displayed_time": "99.82", "trialTime": 101900, "trial_type": "mouselab-mdp", "trial_index": 44, "time_elapsed": 2521339, "internal_node_id": "0.0-6.0-1.0-35.0"}}, {"uniqueid": "w29144631:a60824404", "current_trial": 45, "dateTime": 1693391381490, "trialdata": {"revealed_states": [], "clicked_states": ["23", "1", "6", "7", "9"], "num_clicks_accrued": [0, 0, 0, 0, 0, 0, 0, 0, 0, 0, 0, 0, 0], "stateRewards": ["", 2, 3, 3, 10, 19, -21, 6, 9, 54, 68, 16, 2, 2, -6, -8, 40, -2, -75, -2, -42, 55, 59, -1, 2, 4, -14, 11, -34, -30, -6, 61, -53, 13], "withholdReward": false, "trial_id": "mdp_trial_37", "block": "test", "trialIndex": 38, "score": 64, "costs": -7, "simulationMode": [null, null, null, null, null], "rewards": [2, 3, 3, 9, 54], "path": ["0", "0", "1", "2", "3", "8", "9"], "rt": [12956, 26, 22, 796, 178], "actions": ["up", "up", "up", "left", "up"], "actionTimes": [14853, 15389, 15933, 17254, 17949], "queries": {"click": {"state": {"target": ["23", "1", "6", "7", "9"], "time": [2425, 4609, 7050, 9378, 12123]}, "edge": {"target": [], "time": []}}, "mouseover": {"state": {"target": ["23", "23", "1", "7", "6", "7", "3", "9"], "time": [1987, 2300, 4441, 6597, 6644, 9159, 11456, 11613]}, "edge": {"target": [], "time": []}}, "mouseout": {"state": {"target": ["12", "0", "23", "23", "1", "7", "6", "7", "3", "9", "9"], "time": [769, 1927, 2049, 4315, 6566, 6614, 9097, 11440, 11486, 14113, 19255]}, "edge": {"target": [], "time": []}}}, "displayed_time": "18.46", "trialTime": 20893, "trial_type": "mouselab-mdp", "trial_index": 45, "time_elapsed": 2542475, "internal_node_id": "0.0-6.0-1.0-36.0"}}, {"uniqueid": "w29144631:a60824404", "current_trial": 46, "dateTime": 1693391417578, "trialdata": {"revealed_states": [], "clicked_states": ["23", "26", "30", "32", "31", "18"], "num_clicks_accrued": [0, 0, 0, 0, 0, 0, 0, 0, 0, 0, 0, 0, 0], "stateRewards": ["", -2, 1, -7, -8, -37, -76, -87, 11, 30, -63, 80, -1, 4, 2, -1, 42, 17, 52, -3, -75, -80, -68, 2, -3, -5, -15, -48, 82, 24, -7, 5, -22, -71], "withholdReward": false, "trial_id": "mdp_trial_38", "block": "test", "trialIndex": 39, "score": 47.6, "costs": -8.4, "simulationMode": [null, null, null, null, null], "rewards": [-1, 4, 2, -1, 52], "path": ["0", "0", "12", "13", "14", "15", "18"], "rt": [16103, 148, 109, 104, 19], "actions": ["right", "right", "right", "up", "left"], "actionTimes": [31405, 32062, 32678, 33326, 33853], "queries": {"click": {"state": {"target": ["23", "26", "30", "32", "31", "18"], "time": [16379, 19129, 21418, 24081, 26141, 28490]}, "edge": {"target": [], "time": []}}, "mouseover": {"state": {"target": ["23", "1", "10", "28", "26", "25", "30", "32", "32", "31", "18", "13"], "time": [16177, 18395, 18505, 18645, 18959, 19445, 19599, 23553, 23849, 25771, 28349, 28896]}, "edge": {"target": [], "time": []}}, "mouseout": {"state": {"target": ["3", "2", "1", "23", "1", "10", "28", "26", "25", "30", "32", "32", "31", "18", "18", "13"], "time": [3568, 3614, 3676, 18271, 18459, 18598, 18771, 19427, 19494, 23442, 23709, 24802, 26693, 28512, 28835, 35216]}, "edge": {"target": [], "time": []}}}, "displayed_time": "34.38", "trialTime": 35766, "trial_type": "mouselab-mdp", "trial_index": 46, "time_elapsed": 2578563, "internal_node_id": "0.0-6.0-1.0-37.0"}}, {"uniqueid": "w29144631:a60824404", "current_trial": 47, "dateTime": 1693391436258, "trialdata": {"revealed_states": [], "clicked_states": ["23", "26", "29", "28"], "num_clicks_accrued": [0, 0, 0, 0, 0, 0, 0, 0, 0, 0, 0, 0, 0], "stateRewards": ["", 2, -1, -1, 7, 11, -40, -22, -2, 69, 37, 8, -2, 4, -8, -12, -2, -72, -3, -12, 17, 63, 12, 1, 3, -7, 6, 25, 61, 61, -9, 28, -17, 27], "withholdReward": false, "trial_id": "mdp_trial_39", "block": "test", "trialIndex": 40, "score": 58.4, "costs": -5.6, "simulationMode": [null, null, null, null, null], "rewards": [1, 3, -7, 6, 61], "path": ["0", "0", "23", "24", "25", "26", "29"], "rt": [10861, 59, 132, 116, 49], "actions": ["left", "left", "left", "up", "left"], "actionTimes": [13726, 14299, 14949, 15573, 16133], "queries": {"click": {"state": {"target": ["23", "26", "29", "28"], "time": [3328, 5809, 8401, 11200]}, "edge": {"target": [], "time": []}}, "mouseover": {"state": {"target": ["23", "24", "26", "25", "29", "26", "28"], "time": [3174, 5393, 5596, 6100, 8237, 10439, 10659]}, "edge": {"target": [], "time": []}}, "mouseout": {"state": {"target": ["13", "12", "0", "23", "23", "24", "26", "25", "26", "29", "26", "28", "0"], "time": [1298, 1627, 2940, 3671, 5363, 5471, 6072, 6115, 8143, 10361, 10550, 17190, 17643]}, "edge": {"target": [], "time": []}}}, "displayed_time": "16.87", "trialTime": 18365, "trial_type": "mouselab-mdp", "trial_index": 47, "time_elapsed": 2597243, "internal_node_id": "0.0-6.0-1.0-38.0"}}, {"uniqueid": "w29144631:a60824404", "current_trial": 48, "dateTime": 1693391471201, "trialdata": {"revealed_states": [], "clicked_states": ["23", "1", "15", "17", "18", "16", "21", "22", "31", "29", "28"], "num_clicks_accrued": [0, 0, 0, 0, 0, 0, 0, 0, 0, 0, 0, 0, 0], "stateRewards": ["", -2, -3, 7, -13, 60, 9, 37, -6, 37, 20, 1, 2, -2, -8, 6, -80, -31, -10, -7, 70, -65, -44, -1, 1, 7, 6, -11, 73, -85, 16, -21, 47, 34], "withholdReward": false, "trial_id": "mdp_trial_40", "block": "test", "trialIndex": 41, "score": 70.6, "costs": -15.400000000000002, "simulationMode": [null, null, null, null, null], "rewards": [-1, 1, 7, 6, 73], "path": ["0", "0", "23", "24", "25", "26", "28"], "rt": [28362, 113, 140, 58, 32], "actions": ["left", "left", "left", "up", "right"], "actionTimes": [29936, 30558, 31206, 31782, 32334], "queries": {"click": {"state": {"target": ["23", "1", "15", "17", "18", "16", "21", "22", "31", "29", "28"], "time": [2403, 4995, 7677, 10483, 12803, 15195, 17611, 19916, 22018, 24850, 27282]}, "edge": {"target": [], "time": []}}, "mouseover": {"state": {"target": ["23", "1", "12", "12", "13", "14", "15", "14", "14", "14", "17", "15", "18", "13", "22", "13", "16", "15", "14", "22", "21", "22", "31", "32", "33", "29", "26", "25", "28"], "time": [2269, 4738, 5473, 6972, 7003, 7129, 7285, 8084, 9739, 9972, 10316, 12505, 12628, 13441, 14207, 14755, 15019, 15520, 15551, 15957, 17426, 19799, 21784, 24128, 24394, 24738, 26863, 26924, 27159]}, "edge": {"target": [], "time": []}}, "mouseout": {"state": {"target": ["0", "0", "23", "23", "1", "12", "12", "13", "14", "15", "14", "14", "14", "17", "15", "18", "13", "22", "13", "16", "15", "14", "22", "21", "22", "31", "32", "33", "29", "26", "25", "28"], "time": [410, 1238, 3240, 4504, 5316, 5550, 6988, 7050, 7207, 8020, 8135, 9800, 10160, 10957, 12536, 13147, 13505, 14729, 14769, 15489, 15535, 15597, 17306, 17926, 20435, 22456, 24362, 24431, 26832, 26879, 27018, 33628]}, "edge": {"target": [], "time": []}}}, "displayed_time": "32.85", "trialTime": 34606, "trial_type": "mouselab-mdp", "trial_index": 48, "time_elapsed": 2632187, "internal_node_id": "0.0-6.0-1.0-39.0"}}, {"uniqueid": "w29144631:a60824404", "current_trial": 49, "dateTime": 1693391505426, "trialdata": {"rt": 34221, "response": {"Q0": "$-2 to $2", "Q1": "$-16 to $16", "Q2": "$-88 to $88", "Q3": "The cost was always $1.4.", "Q4": "Very motivated"}, "question_order": [0, 1, 2, 3, 4], "trial_id": "final_quiz_control", "trial_type": "survey-multi-choice", "trial_index": 49, "time_elapsed": 2666412, "internal_node_id": "0.0-6.0-2.0"}}, {"uniqueid": "w29144631:a60824404", "current_trial": 50, "dateTime": 1693391637651, "trialdata": {"rt": 132218, "response": {"Q0": "First check the first ones, then I'd skip the next two because you have to cross them either way. Lastly I'd check the notes further away", "Q1": "Yes, I noticed that the nodes in between did not really matter as long as you get a large amount of cash in the end nodes. So I'd check less in the first steps and focus on the last ones", "Q2": "Because of the varying amounts and the lucky factor that's involved you can't perfect your strategy"}, "trial_id": "self_report_control", "trial_type": "survey-text", "trial_index": 50, "time_elapsed": 2798637, "internal_node_id": "0.0-6.0-3.0"}}, {"uniqueid": "w29144631:a60824404", "current_trial": 51, "dateTime": 1693391663948, "trialdata": {"rt": 26293, "response": {"gender": "female", "age": "24", "colorblind": "0", "effort": "0"}, "trial_type": "survey-html-form", "trial_index": 51, "time_elapsed": 2824934, "internal_node_id": "0.0-6.0-4.0"}}, {"uniqueid": "w29144631:a60824404", "current_trial": 52, "dateTime": 1693391971661, "trialdata": {"rt": 307709, "response": {"Q0": "First I was confused about the cash numbers that appeared when you clicked a node, because I thought that that was the amount of money behind the nodes. It was only later that I realized the worth of the nodes appeared after that", "Q1": "No I didn't!", "Q2": "No"}, "trial_type": "survey-text", "trial_index": 52, "time_elapsed": 3132647, "internal_node_id": "0.0-6.0-5.0"}}, {"uniqueid": "w29144631:a60824404", "current_trial": 53, "dateTime": 1693391980470, "trialdata": {"rt": 8804, "stimulus": "<h1>Completion Code Instructions (1/2)</h1>\n<br><br><br><br>\nYou have reached the end of the experiment! The completion code consists of two parts: (1) a code with 2 characters (2) a code with 6 characters. On this page, you will receive the second part of the code. The first part of the completion code will be on the next page.\n<br><br>\nThe second part of your completion code is: <b>EWEK22</b>\n<br><br>\nPlease note this down. Then, press 'Finish HIT' in order to find the first part of your completion code. Once the data has been saved, you will receive this code either in this window or in the original browser window where you started the experiment.\n", "response": 0, "trial_type": "html-button-response", "trial_index": 53, "time_elapsed": 3141456, "internal_node_id": "0.0-6.0-6.0"}}, {"uniqueid": "w29144631:a60824404", "current_trial": 54, "dateTime": 1693391981474, "trialdata": {"success": true, "trial_type": "fullscreen", "trial_index": 54, "time_elapsed": 3142460, "internal_node_id": "0.0-7.0"}}], "questiondata": {"params": {"CODE": "C6DMOQA6", "MIN_TIME": 14, "inspectCost": 1, "startTime": "Wed Aug 30 2023 11:47:18 GMT+0200 (Midden-Europese zomertijd)", "bonusRate": 0.002, "variance": "1_2_4_8_44", "branching": "31123"}, "final_score": 1449}, "eventdata": [{"eventtype": "initialized", "value": null, "timestamp": 1693388837938, "interval": 0}, {"eventtype": "window_resize", "value": [1024, 768], "timestamp": 1693388837938, "interval": 0}, {"eventtype": "window_resize", "value": [1024, 768], "timestamp": 1693388838260, "interval": 322}, {"eventtype": "window_resize", "value": [1920, 1080], "timestamp": 1693388844171, "interval": 5911}, {"eventtype": "window_resize", "value": [1024, 768], "timestamp": 1693388845555, "interval": 1384}, {"eventtype": "focus", "value": "off", "timestamp": 1693388876559, "interval": 31004}, {"eventtype": "focus", "value": "on", "timestamp": 1693388952701, "interval": 76142}, {"eventtype": "focus", "value": "off", "timestamp": 1693389356379, "interval": 403678}, {"eventtype": "focus", "value": "on", "timestamp": 1693389638946, "interval": 282567}, {"eventtype": "focus", "value": "off", "timestamp": 1693389793943, "interval": 154997}, {"eventtype": "focus", "value": "on", "timestamp": 1693389796549, "interval": 2606}, {"eventtype": "focus", "value": "off", "timestamp": 1693389932366, "interval": 135817}, {"eventtype": "focus", "value": "on", "timestamp": 1693389961899, "interval": 29533}, {"eventtype": "focus", "value": "off", "timestamp": 1693390624701, "interval": 662802}, {"eventtype": "focus", "value": "on", "timestamp": 1693390724458, "interval": 99757}, {"eventtype": "focus", "value": "off", "timestamp": 1693391148048, "interval": 423590}, {"eventtype": "focus", "value": "on", "timestamp": 1693391255416, "interval": 107368}, {"eventtype": "focus", "value": "off", "timestamp": 1693391269978, "interval": 14562}, {"eventtype": "focus", "value": "on", "timestamp": 1693391340927, "interval": 70949}, {"eventtype": "focus", "value": "off", "timestamp": 1693391887047, "interval": 546120}, {"eventtype": "focus", "value": "on", "timestamp": 1693391944532, "interval": 57485}], "useragent": "Mozilla/5.0 (Windows NT 10.0; Win64; x64) AppleWebKit/537.36 (KHTML, like Gecko) Chrome/115.0.0.0 Safari/537.36 Edg/115.0.1901.203", "mode": "live", "id": "w29144631:a60824404", "status": "user data saved", "Beginhit": "2023-08-30 09:47:16.975083", "Beginexp": "2023-08-30 09:47:25.022588", "Endhit": "2023-08-30 10:39:41.862547", "psiturkStatus": 3, "browser": "<redacted>", "platform": "windows", "language": "nl"}