{"condition": 1, "counterbalance": 0, "assignmentId": "a73380414", "workerId": "w96997703", "hitId": "h99946003", "currenttrial": 56, "bonus": 0, "data": [{"uniqueid": "w96997703:a73380414", "current_trial": 0, "dateTime": 1691148959324, "trialdata": {"success": true, "trial_type": "fullscreen", "trial_index": 0, "time_elapsed": 3496, "internal_node_id": "0.0-0.0"}}, {"uniqueid": "w96997703:a73380414", "current_trial": 1, "dateTime": 1691149044197, "trialdata": {"view_history": [{"page_index": 0, "viewing_time": 84871}], "rt": 84871, "trial_id": "exp_instructions_misaligned", "trial_type": "instructions", "trial_index": 1, "time_elapsed": 88369, "internal_node_id": "0.0-1.0"}}, {"uniqueid": "w96997703:a73380414", "current_trial": 2, "dateTime": 1691149047196, "trialdata": {"success": true, "trial_type": "fullscreen", "trial_index": 2, "time_elapsed": 91368, "internal_node_id": "0.0-2.0-0.0"}}, {"uniqueid": "w96997703:a73380414", "current_trial": 3, "dateTime": 1691149244320, "trialdata": {"view_history": [{"page_index": 0, "viewing_time": 59589}, {"page_index": 1, "viewing_time": 91131}, {"page_index": 2, "viewing_time": 18593}, {"page_index": 3, "viewing_time": 27809}], "rt": 197122, "trial_id": "mouselab_instructions_1_misaligned", "trial_type": "instructions", "trial_index": 3, "time_elapsed": 288492, "internal_node_id": "0.0-2.0-1.0"}}, {"uniqueid": "w96997703:a73380414", "current_trial": 4, "dateTime": 1691149286137, "trialdata": {"revealed_states": [], "clicked_states": ["23", "12", "13", "14", "22", "15", "18", "24", "25", "1", "2", "7", "10", "8", "9", "4", "5"], "num_clicks_accrued": [0, 0, 0, 0, 0, 0, 0, 0, 0, 0, 0, 0, 0], "stateRewards": ["", 10, -10, 10, 10, -10, -10, -10, 10, -10, -10, -10, 10, -10, -10, 10, -10, -10, -10, -10, 10, 10, -10, -10, 10, -10, 10, -10, 10, 10, 10, 10, 10, 10], "withholdReward": false, "trial_id": "practice_1", "block": "test", "trialIndex": 0, "score": 5, "costs": -8.5, "simulationMode": [null, null, null, null, null], "rewards": [10, -10, 10, 10, -10], "path": ["0", "0", "1", "2", "3", "4", "6"], "rt": [27514, 287, 3371, 378, 1032], "actions": ["up", "up", "up", "right", "right"], "actionTimes": [30788, 31577, 35449, 36327, 37859], "queries": {"click": {"state": {"target": ["23", "12", "13", "14", "22", "15", "18", "24", "25", "1", "2", "7", "10", "8", "9", "4", "5"], "time": [5072, 6379, 7716, 9040, 10214, 12922, 14078, 16531, 17565, 19006, 20484, 22006, 23325, 24639, 25917, 27599, 28868]}, "edge": {"target": [], "time": []}}, "mouseover": {"state": {"target": ["12", "13", "12", "0", "23", "0", "12", "12", "13", "14", "20", "19", "22", "19", "13", "13", "15", "18", "23", "24", "23", "0", "12", "0", "23", "24", "25", "23", "1", "1", "2", "7", "10", "8", "9", "4", "4", "5", "6"], "time": [3442, 3491, 3872, 3921, 4097, 5320, 5599, 6223, 6810, 8531, 9324, 9615, 9791, 10487, 12329, 12469, 12783, 13540, 14546, 14776, 15176, 15291, 15352, 15509, 15673, 16430, 17169, 18132, 18223, 18823, 19477, 20743, 22863, 24390, 25086, 26467, 27443, 28454, 29254]}, "edge": {"target": [], "time": []}}, "mouseout": {"state": {"target": ["12", "13", "0", "12", "13", "12", "0", "23", "0", "12", "12", "13", "14", "20", "19", "22", "19", "13", "13", "15", "15", "18", "23", "24", "23", "0", "12", "0", "23", "24", "25", "23", "1", "1", "2", "7", "10", "2", "8", "9", "4", "4", "5", "6", "7", "7", "17", "20", "19"], "time": [null, 204, 3418, 3466, 3848, 3903, 3995, 5296, 5326, 6096, 6671, 7955, 9264, 9561, 9748, 10408, 12226, 12365, 12517, 13219, 13437, 14358, 14625, 15128, 15261, 15327, 15479, 15582, 16315, 16824, 17829, 18150, 18605, 19223, 20694, 22221, 23524, 24262, 24856, 26201, 26764, 27940, 29193, 29272, 33597, 38940, 39613, 39940, 39976]}, "edge": {"target": [], "time": []}}}, "displayed_time": "38.36", "trialTime": 41579, "trial_type": "mouselab-mdp", "trial_index": 4, "time_elapsed": 330309, "internal_node_id": "0.0-2.0-2.0-0.0"}}, {"uniqueid": "w96997703:a73380414", "current_trial": 5, "dateTime": 1691149306144, "trialdata": {"revealed_states": [], "clicked_states": ["23", "12", "13", "14", "19", "20"], "num_clicks_accrued": [0, 0, 0, 0, 0, 0, 0, 0, 0, 0, 0, 0, 0], "stateRewards": ["", -10, 10, -10, 10, 10, -10, 10, 10, -10, -10, -10, 10, 10, 10, -10, 10, -10, 10, 10, 10, -10, -10, -10, 10, -10, -10, -10, 10, -10, 10, -10, 10, -10], "withholdReward": false, "trial_id": "practice_2", "block": "test", "trialIndex": 1, "score": 50.5, "costs": -3, "simulationMode": [null, null, null, null, null], "rewards": [10, 10, 10, 10, 10], "path": ["0", "0", "12", "13", "14", "19", "20"], "rt": [11234, 193, 176, 147, 178], "actions": ["right", "right", "right", "down", "right"], "actionTimes": [12636, 13329, 14009, 14659, 15338], "queries": {"click": {"state": {"target": ["23", "12", "13", "14", "19", "20"], "time": [2352, 3963, 5897, 7447, 8934, 10479]}, "edge": {"target": [], "time": []}}, "mouseover": {"state": {"target": ["23", "0", "12", "12", "13", "14", "20", "19", "20", "22"], "time": [2105, 2620, 3026, 3498, 4982, 6539, 8121, 8460, 10295, 12112]}, "edge": {"target": [], "time": []}}, "mouseout": {"state": {"target": ["0", "23", "0", "12", "12", "13", "14", "20", "19", "20", "19", "22", "22"], "time": [1675, 2547, 2638, 3415, 4262, 6128, 7618, 8151, 9144, 10731, 12082, 12142, 16940]}, "edge": {"target": [], "time": []}}}, "displayed_time": "15.84", "trialTime": 19911, "trial_type": "mouselab-mdp", "trial_index": 5, "time_elapsed": 350316, "internal_node_id": "0.0-2.0-2.0-1.0"}}, {"uniqueid": "w96997703:a73380414", "current_trial": 6, "dateTime": 1691149336129, "trialdata": {"view_history": [{"page_index": 0, "viewing_time": 25821}, {"page_index": 1, "viewing_time": 4162}], "rt": 29983, "trial_id": "mouselab_instructions_2_misaligned", "trial_type": "instructions", "trial_index": 6, "time_elapsed": 380301, "internal_node_id": "0.0-2.0-3.0"}}, {"uniqueid": "w96997703:a73380414", "current_trial": 7, "dateTime": 1691149370460, "trialdata": {"rt": 34329, "response": {"Q0": "The cost for clicking on nodes may vary between nodes.", "Q1": "The better I perform the higher my bonus will be.", "Q2": "No, the amount of cash at each node of the web may be different each time.", "Q3": "To get the highest total score.", "Q4": "Only before moving the spider.", "Q5": "3 seconds"}, "question_order": [0, 1, 2, 3, 4, 5], "correct": {"Q0": "The cost for clicking on nodes may vary between nodes.", "Q1": "The better I perform the higher my bonus will be.", "Q2": "No, the amount of cash at each node of the web may be different each time.", "Q3": "To get the highest total score.", "Q4": "Only before moving the spider.", "Q5": "3 seconds"}, "trial_id": "mouselab_quiz_misaligned", "trial_type": "survey-multi-choice", "trial_index": 7, "time_elapsed": 414632, "internal_node_id": "0.0-2.0-4.0"}}, {"uniqueid": "w96997703:a73380414", "current_trial": 8, "dateTime": 1691149387186, "trialdata": {"rt": 16723, "stimulus": "\n<h1> Get ready to start the game! </h1>\n\nThank you for reading the instructions. Get ready start with the 40 rounds of this game.\n<br><br>\nIf you need to take a break, feel free to take one after the end of a round, before continuing to the next one.\n<br><br>\nRemember, the more money the spider gets, the bigger your bonus will be!\n<br><br>\n<div style='text-align: center;'>Press <code>space</code> to begin.</div>\n\n<br><br>\n(If, at any point, the <code>space</code> key does not take you to the next page, click once on the text and try again.)", "response": " ", "trial_id": "mdp_ready", "trial_type": "html-keyboard-response", "trial_index": 8, "time_elapsed": 431358, "internal_node_id": "0.0-4.0-0.0"}}, {"uniqueid": "w96997703:a73380414", "current_trial": 9, "dateTime": 1691149409778, "trialdata": {"revealed_states": [], "clicked_states": ["23", "24", "25", "12", "13", "14", "19", "15", "17"], "num_clicks_accrued": [0, 0, 0, 0, 0, 0, 0, 0, 0, 0, 0, 0, 0], "stateRewards": ["", -2, -4, -6, 12, -58, -70, -80, 2, 16, -88, -62, 1, 2, -5, 11, 77, -35, -44, -5, 18, -83, 87, 1, -3, -5, 13, -44, -21, -86, 10, -52, 8, 29], "withholdReward": false, "trial_id": "mdp_trial_1", "block": "test", "trialIndex": 2, "score": 78.65, "costs": -7.35, "simulationMode": [null, null, null, null, null, null], "rewards": [1, 2, -5, 11, 77], "path": ["0", "0", "12", "13", "14", "15", "16"], "rt": [11110, 1340, 361, 328, 175, 392], "actions": ["right", "right", "right", "right", "up", "up"], "actionTimes": [12530, 13872, 14736, 15563, 16246, 17142], "queries": {"click": {"state": {"target": ["23", "24", "25", "12", "13", "14", "19", "15", "17"], "time": [2141, 3298, 4194, 5384, 6218, 7150, 8184, 9155, 10152]}, "edge": {"target": [], "time": []}}, "mouseover": {"state": {"target": ["0", "23", "24", "25", "30", "31", "12", "13", "14", "19", "15", "17", "17", "13", "12", "0", "12", "0", "0"], "time": [1612, 1762, 2847, 3791, 4815, 4906, 5027, 5960, 6614, 7693, 8807, 9437, 9716, 11461, 11618, 11697, 11848, 13617, 13866]}, "edge": {"target": [], "time": []}}, "mouseout": {"state": {"target": ["22", "0", "0", "23", "23", "24", "25", "30", "31", "12", "13", "14", "19", "19", "14", "15", "17", "17", "13", "12", "0", "12", "0", "0", "12", "13", "19"], "time": [320, 853, 1732, 2386, 2683, 3707, 4754, 4876, 4924, 5675, 6511, 7390, 8288, 8395, 8656, 9395, 9443, 10346, 11497, 11666, 11812, 13163, 13750, 14180, 18439, 21601, 21801]}, "edge": {"target": [], "time": []}}}, "displayed_time": "17.65", "trialTime": 22482, "trial_type": "mouselab-mdp", "trial_index": 9, "time_elapsed": 453950, "internal_node_id": "0.0-4.0-1.0-0.0"}}, {"uniqueid": "w96997703:a73380414", "current_trial": 10, "dateTime": 1691149427588, "trialdata": {"revealed_states": [], "clicked_states": ["23", "24", "25", "26", "29", "27"], "num_clicks_accrued": [0, 0, 0, 0, 0, 0, 0, 0, 0, 0, 0, 0, 0], "stateRewards": ["", 1, 1, -2, 7, -31, -6, 76, 1, -36, -16, -53, 2, 1, 7, 13, -47, -10, 47, -7, 72, 46, -56, -2, -2, -2, 11, -80, 44, 38, 16, 67, 85, -78], "withholdReward": false, "trial_id": "mdp_trial_2", "block": "test", "trialIndex": 3, "score": 36.1, "costs": -6.9, "simulationMode": [null, null, null, null, null], "rewards": [-2, -2, -2, 11, 38], "path": ["0", "0", "23", "24", "25", "26", "29"], "rt": [10615, 147, 180, 161, 98], "actions": ["left", "left", "left", "up", "left"], "actionTimes": [12478, 13131, 13811, 14477, 15074], "queries": {"click": {"state": {"target": ["23", "24", "25", "26", "29", "27"], "time": [2627, 3590, 4266, 5245, 6057, 9045]}, "edge": {"target": [], "time": []}}, "mouseover": {"state": {"target": ["12", "0", "23", "0", "12", "0", "24", "25", "26", "29", "27", "28", "23", "23", "28", "28", "0"], "time": [2049, 2255, 2430, 2891, 3024, 3224, 3448, 4054, 4866, 5835, 6694, 9608, 10226, 10692, 10850, 11250, 11704]}, "edge": {"target": [], "time": []}}, "mouseout": {"state": {"target": ["19", "12", "0", "12", "0", "23", "0", "12", "0", "23", "24", "25", "26", "29", "26", "27", "28", "23", "23", "28", "27", "28", "0"], "time": [273, 534, 2006, 2206, 2339, 2860, 2957, 3200, 3248, 3315, 3854, 4702, 5774, 6325, 6616, 9475, 10062, 10305, 10705, 10929, 11171, 11286, 15866]}, "edge": {"target": [], "time": []}}}, "displayed_time": "15.86", "trialTime": 17716, "trial_type": "mouselab-mdp", "trial_index": 10, "time_elapsed": 471760, "internal_node_id": "0.0-4.0-1.0-1.0"}}, {"uniqueid": "w96997703:a73380414", "current_trial": 11, "dateTime": 1691149450133, "trialdata": {"revealed_states": [], "clicked_states": ["12", "13", "14", "19", "21", "20", "22"], "num_clicks_accrued": [0, 0, 0, 0, 0, 0, 0, 0, 0, 0, 0, 0, 0], "stateRewards": ["", 2, 3, -3, 12, -43, 81, -82, -15, 58, -7, -75, -1, -1, 3, -5, 50, -25, -8, 4, 66, 65, -66, 2, -4, 2, -1, -10, 10, 37, 11, 88, -37, 8], "withholdReward": false, "trial_id": "mdp_trial_3", "block": "test", "trialIndex": 4, "score": 61.95, "costs": -9.05, "simulationMode": [null, null, null, null, null, null], "rewards": [-1, -1, 3, 4, 66], "path": ["0", "0", "12", "13", "14", "19", "20"], "rt": [8682, 5334, 186, 175, 145, 290], "actions": ["right", "right", "right", "right", "down", "right"], "actionTimes": [11386, 16721, 17412, 18092, 18740, 19533], "queries": {"click": {"state": {"target": ["12", "13", "14", "19", "21", "20", "22"], "time": [3428, 4120, 4896, 6079, 6899, 10423, 13485]}, "edge": {"target": [], "time": []}}, "mouseover": {"state": {"target": ["12", "13", "14", "19", "21", "20", "20", "14", "14", "22", "19"], "time": [3159, 3880, 4534, 5243, 6673, 7363, 9950, 12125, 12428, 13118, 13675]}, "edge": {"target": [], "time": []}}, "mouseout": {"state": {"target": ["12", "12", "0", "12", "13", "14", "19", "21", "21", "20", "20", "20", "14", "14", "22", "19", "20", "19"], "time": [300, 669, 2917, 3692, 4395, 5152, 6406, 7002, 7073, 9605, 10628, 11131, 12246, 12652, 13645, 13736, 20775, 20829]}, "edge": {"target": [], "time": []}}}, "displayed_time": "20.04", "trialTime": 22448, "trial_type": "mouselab-mdp", "trial_index": 11, "time_elapsed": 494305, "internal_node_id": "0.0-4.0-1.0-2.0"}}, {"uniqueid": "w96997703:a73380414", "current_trial": 12, "dateTime": 1691149484037, "trialdata": {"revealed_states": [], "clicked_states": ["1", "2", "7", "4", "10", "8", "23", "24", "25", "26", "30", "32", "33", "31"], "num_clicks_accrued": [0, 0, 0, 0, 0, 0, 0, 0, 0, 0, 0, 0, 0], "stateRewards": ["", -1, 3, 2, 9, 41, 4, -46, -12, -54, -87, -25, 2, 3, -1, 11, -77, 12, -33, -9, -32, 35, 72, 1, 3, -7, 4, 37, 65, -73, 6, 77, -43, 8], "withholdReward": false, "trial_id": "mdp_trial_4", "block": "test", "trialIndex": 5, "score": 61.9, "costs": -18.1, "simulationMode": [null, null, null, null, null], "rewards": [1, 3, -7, 6, 77], "path": ["0", "0", "23", "24", "25", "30", "31"], "rt": [27705, 127, 183, 101, 186], "actions": ["left", "left", "left", "down", "right"], "actionTimes": [28910, 29542, 30228, 30830, 31527], "queries": {"click": {"state": {"target": ["1", "2", "7", "4", "10", "8", "23", "24", "25", "26", "30", "32", "33", "31"], "time": [1988, 2687, 3521, 6901, 7852, 11116, 12465, 13542, 14863, 15990, 17215, 18286, 21475, 24761]}, "edge": {"target": [], "time": []}}, "mouseover": {"state": {"target": ["12", "1", "2", "7", "4", "2", "10", "8", "3", "2", "2", "1", "23", "24", "25", "26", "30", "31", "32", "33", "30", "31", "23", "28", "26", "29"], "time": [1450, 1754, 2329, 2995, 4558, 7296, 7375, 8732, 11428, 11518, 11543, 11597, 12239, 12881, 14244, 15601, 16437, 17528, 18103, 18812, 21713, 22143, 26191, 26706, 27475, 27802]}, "edge": {"target": [], "time": []}}, "mouseout": {"state": {"target": ["22", "0", "12", "1", "2", "7", "4", "2", "10", "8", "3", "2", "2", "1", "23", "24", "24", "25", "25", "26", "30", "31", "32", "32", "33", "30", "31", "23", "28", "26", "29", "24", "23"], "time": [360, 1372, 1602, 2202, 2929, 3795, 7217, 7339, 8132, 11361, 11458, 11524, 11549, 11615, 12724, 13646, 14063, 15086, 15541, 16268, 17473, 17540, 18497, 18715, 21683, 21756, 24960, 26306, 27360, 27748, 28196, 32685, 32751]}, "edge": {"target": [], "time": []}}}, "displayed_time": "32.03", "trialTime": 33805, "trial_type": "mouselab-mdp", "trial_index": 12, "time_elapsed": 528208, "internal_node_id": "0.0-4.0-1.0-3.0"}}, {"uniqueid": "w96997703:a73380414", "current_trial": 13, "dateTime": 1691149515129, "trialdata": {"revealed_states": [], "clicked_states": ["12", "23", "13", "14", "15", "17", "16", "19", "20", "21", "22"], "num_clicks_accrued": [0, 0, 0, 0, 0, 0, 0, 0, 0, 0, 0, 0, 0], "stateRewards": ["", -1, -3, -7, -4, -85, -70, 79, 8, 84, -66, 42, 2, -2, -3, -16, -54, -66, 68, -3, 21, -14, 7, -2, -1, -3, -8, 75, 80, 86, -7, -84, 73, -16], "withholdReward": false, "trial_id": "mdp_trial_5", "block": "test", "trialIndex": 6, "score": 0.34999999999999787, "costs": -14.650000000000002, "simulationMode": [null, null, null, null, null], "rewards": [2, -2, -3, -3, 21], "path": ["0", "0", "12", "13", "14", "19", "20"], "rt": [25443, 99, 113, 78, 299], "actions": ["right", "right", "right", "down", "right"], "actionTimes": [26348, 26952, 27566, 28148, 28951], "queries": {"click": {"state": {"target": ["12", "23", "13", "14", "15", "17", "16", "19", "20", "21", "22"], "time": [2158, 3019, 3830, 4942, 6259, 7698, 10921, 14068, 16481, 19621, 22743]}, "edge": {"target": [], "time": []}}, "mouseover": {"state": {"target": ["12", "13", "12", "0", "23", "0", "13", "14", "15", "17", "17", "16", "20", "19", "20", "20", "21", "19", "22", "19"], "time": [1058, 1688, 1755, 2355, 2439, 3324, 3512, 4075, 5717, 6522, 7219, 8879, 11853, 12217, 14524, 15088, 17008, 20255, 20425, 23017]}, "edge": {"target": [], "time": []}}, "mouseout": {"state": {"target": ["0", "12", "13", "12", "0", "23", "0", "13", "14", "15", "17", "17", "17", "16", "20", "19", "20", "20", "21", "19", "22", "19"], "time": [1040, 1082, 1719, 2312, 2403, 3251, 3330, 4026, 5141, 6492, 6528, 7867, 8758, 11126, 12041, 14331, 14973, 16693, 20001, 20279, 22993, 23054]}, "edge": {"target": [], "time": []}}}, "displayed_time": "29.45", "trialTime": 30993, "trial_type": "mouselab-mdp", "trial_index": 13, "time_elapsed": 559301, "internal_node_id": "0.0-4.0-1.0-4.0"}}, {"uniqueid": "w96997703:a73380414", "current_trial": 14, "dateTime": 1691149544829, "trialdata": {"revealed_states": [], "clicked_states": ["23", "1", "12", "2", "3", "4", "8", "9", "6", "5", "7"], "num_clicks_accrued": [0, 0, 0, 0, 0, 0, 0, 0, 0, 0, 0, 0, 0], "stateRewards": ["", -2, -3, 1, -14, 48, -49, 67, -1, -35, -48, 3, -2, 1, -4, -5, 86, -84, 39, 1, 48, 41, -42, -1, -4, 2, -7, 18, -86, 17, 7, -9, 57, -69], "withholdReward": false, "trial_id": "mdp_trial_6", "block": "test", "trialIndex": 7, "score": 36.75, "costs": -12.250000000000002, "simulationMode": [null, null, null, null, null], "rewards": [-2, -3, 1, -14, 67], "path": ["0", "0", "1", "2", "3", "4", "7"], "rt": [23157, 53, 219, 94, 142], "actions": ["up", "up", "up", "right", "down"], "actionTimes": [24177, 24730, 25459, 26055, 26697], "queries": {"click": {"state": {"target": ["23", "1", "12", "2", "3", "4", "8", "9", "6", "5", "7"], "time": [1701, 2750, 3695, 5168, 6623, 8029, 9738, 10985, 14097, 17271, 20905]}, "edge": {"target": [], "time": []}}, "mouseover": {"state": {"target": ["12", "0", "23", "0", "12", "1", "12", "13", "13", "2", "7", "7", "3", "4", "4", "8", "3", "3", "9", "11", "3", "4", "6", "5", "7"], "time": [1227, 1402, 1536, 2032, 2099, 2499, 3117, 3898, 4346, 4904, 5431, 5909, 6297, 6848, 7587, 8557, 9992, 10331, 10580, 12064, 12409, 12452, 12597, 14705, 18007]}, "edge": {"target": [], "time": []}}, "mouseout": {"state": {"target": ["14", "13", "12", "0", "12", "0", "23", "0", "12", "1", "12", "13", "13", "2", "7", "7", "3", "4", "4", "3", "8", "3", "3", "9", "8", "11", "8", "3", "4", "6", "6", "5", "6", "7", "18", "13", "22"], "time": [415, 481, 572, 1184, 1378, 1433, 2008, 2063, 2160, 2990, 3862, 4019, 4540, 5401, 5443, 6025, 6818, 6854, 8242, 8526, 9968, 10010, 10404, 11192, 11967, 12288, 12391, 12440, 12536, 14311, 14596, 17510, 17770, 21175, 27784, 27832, 27874]}, "edge": {"target": [], "time": []}}}, "displayed_time": "27.20", "trialTime": 29604, "trial_type": "mouselab-mdp", "trial_index": 14, "time_elapsed": 589000, "internal_node_id": "0.0-4.0-1.0-5.0"}}, {"uniqueid": "w96997703:a73380414", "current_trial": 15, "dateTime": 1691149574682, "trialdata": {"revealed_states": [], "clicked_states": ["23", "1", "12", "13", "14", "19", "21", "22", "20", "15", "17"], "num_clicks_accrued": [0, 0, 0, 0, 0, 0, 0, 0, 0, 0, 0, 0, 0], "stateRewards": ["", -2, 1, -7, 9, 8, 25, 61, -7, -17, 69, -81, 1, 4, -4, -11, 16, 67, 44, 3, 6, -45, -54, -2, 3, 6, -11, -15, 32, -47, 3, -39, -6, -88], "withholdReward": false, "trial_id": "mdp_trial_7", "block": "test", "trialIndex": 8, "score": 44.75, "costs": -12.250000000000002, "simulationMode": [null, null, null, null, null], "rewards": [1, 4, -4, -11, 67], "path": ["0", "0", "12", "13", "14", "15", "17"], "rt": [23264, 65, 123, 119, 129], "actions": ["right", "right", "right", "up", "right"], "actionTimes": [24999, 25568, 26194, 26815, 27443], "queries": {"click": {"state": {"target": ["23", "1", "12", "13", "14", "19", "21", "22", "20", "15", "17"], "time": [2444, 3168, 4123, 5557, 6662, 8056, 9308, 12533, 15709, 19398, 21071]}, "edge": {"target": [], "time": []}}, "mouseover": {"state": {"target": ["0", "23", "1", "12", "13", "13", "14", "20", "19", "21", "22", "19", "20", "15", "17", "17", "16"], "time": [2034, 2192, 2882, 3779, 4366, 4930, 6038, 7425, 7662, 8655, 10551, 12744, 12811, 19189, 19698, 19832, 21740]}, "edge": {"target": [], "time": []}}, "mouseout": {"state": {"target": ["0", "0", "23", "1", "1", "12", "13", "13", "14", "20", "19", "21", "21", "22", "19", "20", "15", "15", "17", "17", "17", "16", "15"], "time": [1877, 2107, 2719, 3281, 3452, 4330, 4384, 5735, 6832, 7528, 8261, 9509, 10321, 12720, 12780, 15900, 19402, 19662, 19741, 21237, 21576, 28639, 28821]}, "edge": {"target": [], "time": []}}}, "displayed_time": "27.94", "trialTime": 29758, "trial_type": "mouselab-mdp", "trial_index": 15, "time_elapsed": 618853, "internal_node_id": "0.0-4.0-1.0-6.0"}}, {"uniqueid": "w96997703:a73380414", "current_trial": 16, "dateTime": 1691149595262, "trialdata": {"revealed_states": [], "clicked_states": ["1", "2", "3", "8", "4", "5", "6"], "num_clicks_accrued": [0, 0, 0, 0, 0, 0, 0, 0, 0, 0, 0, 0, 0], "stateRewards": ["", 1, 1, -5, 10, -31, 73, 14, -8, -23, 63, -70, -1, 2, 8, 7, 25, -59, 27, -10, -40, -71, -15, -2, 3, -8, -5, -19, 77, -34, 7, 67, 63, 19], "withholdReward": false, "trial_id": "mdp_trial_8", "block": "test", "trialIndex": 9, "score": 71.55, "costs": -8.45, "simulationMode": [null, null, null, null, null], "rewards": [1, 1, -5, 10, 73], "path": ["0", "0", "1", "2", "3", "4", "6"], "rt": [15068, 62, 206, 101, 103], "actions": ["up", "up", "up", "right", "right"], "actionTimes": [15856, 16420, 17127, 17731, 18339], "queries": {"click": {"state": {"target": ["1", "2", "3", "8", "4", "5", "6"], "time": [1705, 2906, 4302, 6089, 7468, 8914, 12109]}, "edge": {"target": [], "time": []}}, "mouseover": {"state": {"target": ["1", "2", "7", "7", "3", "8", "4", "5", "6", "16", "7"], "time": [1479, 2254, 3163, 3442, 3823, 5422, 6561, 8482, 9233, 12486, 12680]}, "edge": {"target": [], "time": []}}, "mouseout": {"state": {"target": ["14", "13", "12", "0", "1", "2", "7", "7", "3", "8", "3", "4", "5", "6", "16", "7"], "time": [146, 255, 412, 1012, 1879, 3121, 3181, 3587, 4520, 6319, 6428, 7749, 9172, 12328, 12528, 17762]}, "edge": {"target": [], "time": []}}}, "displayed_time": "18.84", "trialTime": 20482, "trial_type": "mouselab-mdp", "trial_index": 16, "time_elapsed": 639434, "internal_node_id": "0.0-4.0-1.0-7.0"}}, {"uniqueid": "w96997703:a73380414", "current_trial": 17, "dateTime": 1691149640336, "trialdata": {"revealed_states": [], "clicked_states": ["1", "2", "3", "8", "9", "12", "23", "24", "25", "26", "30", "29", "27", "28", "32", "31", "33"], "num_clicks_accrued": [0, 0, 0, 0, 0, 0, 0, 0, 0, 0, 0, 0, 0], "stateRewards": ["", -1, 3, -5, -2, -13, -9, -34, -7, -81, 32, 35, -2, -2, 1, -14, -32, 81, 7, 4, 82, 56, -8, -1, 3, -8, 6, -24, -24, -53, 2, 38, 61, 54], "withholdReward": false, "trial_id": "mdp_trial_9", "block": "test", "trialIndex": 10, "score": 35.45, "costs": -21.549999999999997, "simulationMode": [null, null, null, null, null], "rewards": [-1, 3, -8, 2, 61], "path": ["0", "0", "23", "24", "25", "30", "32"], "rt": [39083, 527, 221, 49, 120], "actions": ["left", "left", "left", "down", "down"], "actionTimes": [39910, 40941, 41664, 42213, 42836], "queries": {"click": {"state": {"target": ["1", "2", "3", "8", "9", "12", "23", "24", "25", "26", "30", "29", "27", "28", "32", "31", "33"], "time": [2310, 4599, 5856, 7128, 8367, 12670, 13942, 15147, 16356, 17483, 18585, 19675, 22858, 26017, 29273, 33431, 36663]}, "edge": {"target": [], "time": []}}, "mouseover": {"state": {"target": ["12", "0", "23", "1", "12", "2", "7", "7", "3", "7", "8", "11", "9", "7", "0", "12", "0", "23", "0", "0", "24", "25", "26", "30", "31", "24", "29", "27", "28", "23", "31", "30", "32", "31", "30", "33", "30"], "time": [1020, 1432, 1601, 1910, 2995, 3467, 4842, 5091, 5599, 6253, 6938, 7762, 8192, 8713, 12021, 12178, 13456, 13541, 14165, 14444, 14662, 15679, 16988, 18157, 18793, 19126, 19496, 20168, 23270, 26517, 26728, 26838, 26971, 29703, 33864, 34076, 36899]}, "edge": {"target": [], "time": []}}, "mouseout": {"state": {"target": ["18", "12", "0", "12", "0", "23", "1", "12", "2", "7", "7", "3", "7", "3", "8", "11", "9", "3", "7", "0", "12", "12", "0", "23", "0", "0", "23", "24", "24", "25", "26", "30", "31", "24", "26", "29", "29", "27", "28", "23", "31", "30", "32", "31", "31", "30", "33", "30", "31", "22"], "time": [336, 499, 983, 1250, 1487, 1741, 2498, 3316, 4812, 4909, 5418, 6078, 6454, 6853, 7417, 7992, 8568, 8664, 8786, 12117, 12850, 13444, 13498, 14104, 14195, 14450, 14534, 15346, 15637, 16552, 17702, 18750, 18853, 19156, 19272, 19782, 19956, 23058, 26171, 26571, 26741, 26862, 29467, 33652, 33840, 33955, 36875, 36942, 38196, 44035]}, "edge": {"target": [], "time": []}}}, "displayed_time": "43.34", "trialTime": 44974, "trial_type": "mouselab-mdp", "trial_index": 17, "time_elapsed": 684508, "internal_node_id": "0.0-4.0-1.0-8.0"}}, {"uniqueid": "w96997703:a73380414", "current_trial": 18, "dateTime": 1691149663153, "trialdata": {"revealed_states": [], "clicked_states": ["12", "13", "14", "15", "17", "18", "16"], "num_clicks_accrued": [0, 0, 0, 0, 0, 0, 0, 0, 0, 0, 0, 0, 0], "stateRewards": ["", 1, 4, -8, -13, -13, -87, -77, -10, -44, 54, 42, 2, -3, -4, 12, -9, -80, 52, 9, 84, -2, -65, 1, -4, -5, -6, 8, 80, 32, 13, -59, -5, -13], "withholdReward": false, "trial_id": "mdp_trial_10", "block": "test", "trialIndex": 11, "score": 49.95, "costs": -9.05, "simulationMode": [null, null, null, null, null], "rewards": [2, -3, -4, 12, 52], "path": ["0", "0", "12", "13", "14", "15", "18"], "rt": [17295, 170, 150, 89, 31], "actions": ["right", "right", "right", "up", "left"], "actionTimes": [18424, 19097, 19749, 20343, 20878], "queries": {"click": {"state": {"target": ["12", "13", "14", "15", "17", "18", "16"], "time": [2084, 3266, 4413, 6010, 7671, 11187, 14646]}, "edge": {"target": [], "time": []}}, "mouseover": {"state": {"target": ["12", "13", "12", "13", "14", "14", "15", "20", "16", "17", "18", "16"], "time": [1267, 1358, 1711, 2315, 3533, 3745, 5847, 6404, 7173, 7409, 11027, 11541]}, "edge": {"target": [], "time": []}}, "mouseout": {"state": {"target": ["22", "0", "12", "13", "12", "13", "14", "14", "15", "15", "20", "15", "16", "17", "15", "18", "16"], "time": [340, 1237, 1309, 1534, 2261, 3436, 3551, 4599, 6100, 6192, 6507, 7064, 7325, 7822, 9009, 11396, 14836]}, "edge": {"target": [], "time": []}}}, "displayed_time": "21.38", "trialTime": 22716, "trial_type": "mouselab-mdp", "trial_index": 18, "time_elapsed": 707325, "internal_node_id": "0.0-4.0-1.0-9.0"}}, {"uniqueid": "w96997703:a73380414", "current_trial": 19, "dateTime": 1691149692073, "trialdata": {"revealed_states": [], "clicked_states": ["12", "23", "24", "25", "26", "30", "27", "1", "2", "3", "4", "8", "11"], "num_clicks_accrued": [0, 0, 0, 0, 0, 0, 0, 0, 0, 0, 0, 0, 0], "stateRewards": ["", -2, 1, -7, -8, -37, -76, -87, 11, 30, -63, 80, -1, 4, 2, -1, 42, 17, 52, -3, -75, -80, -68, 2, -3, -5, -15, -48, 82, 24, -7, 5, -22, -71], "withholdReward": false, "trial_id": "mdp_trial_11", "block": "test", "trialIndex": 12, "score": 70.65, "costs": -12.350000000000001, "simulationMode": [null, null, null, null, null], "rewards": [-2, 1, -7, 11, 80], "path": ["0", "0", "1", "2", "3", "8", "11"], "rt": [21863, 315, 52, 84, 95], "actions": ["up", "up", "up", "left", "left"], "actionTimes": [24001, 24818, 25372, 25956, 26561], "queries": {"click": {"state": {"target": ["12", "23", "24", "25", "26", "30", "27", "1", "2", "3", "4", "8", "11"], "time": [3116, 4097, 5312, 6591, 7849, 8956, 10642, 14832, 15694, 16480, 17721, 18872, 20192]}, "edge": {"target": [], "time": []}}, "mouseover": {"state": {"target": ["0", "12", "13", "12", "0", "23", "1", "24", "25", "31", "26", "31", "30", "31", "28", "27", "28", "23", "32", "2", "1", "2", "7", "3", "4", "6", "8", "7", "7", "11", "2", "2", "8", "9"], "time": [2246, 2313, 2355, 2888, 3682, 3845, 4542, 4966, 6396, 6826, 7607, 8183, 8546, 9152, 9691, 9927, 10860, 10939, 11423, 14301, 14482, 15404, 15912, 16191, 17196, 17929, 18335, 19183, 19510, 19916, 20443, 22024, 22206, 22394]}, "edge": {"target": [], "time": []}}, "mouseout": {"state": {"target": ["29", "26", "12", "13", "14", "0", "0", "12", "13", "12", "12", "0", "23", "1", "23", "24", "24", "25", "31", "25", "26", "24", "31", "30", "31", "28", "27", "28", "23", "32", "2", "1", "2", "7", "3", "4", "6", "3", "8", "3", "7", "7", "8", "11", "2", "2", "8", "9"], "time": [1222, 1234, 1282, 1307, 1325, 1943, 2288, 2337, 2646, 3276, 3652, 3797, 4306, 4863, 4930, 5572, 6323, 6753, 7328, 7522, 7995, 8128, 8504, 9115, 9213, 9733, 10830, 10890, 10969, 13423, 14446, 14985, 15870, 16124, 16675, 17899, 18057, 18293, 19020, 19098, 19280, 19631, 19868, 20334, 20485, 22054, 22224, 23587]}, "edge": {"target": [], "time": []}}}, "displayed_time": "27.07", "trialTime": 28820, "trial_type": "mouselab-mdp", "trial_index": 19, "time_elapsed": 736245, "internal_node_id": "0.0-4.0-1.0-10.0"}}, {"uniqueid": "w96997703:a73380414", "current_trial": 20, "dateTime": 1691149717559, "trialdata": {"revealed_states": [], "clicked_states": ["1", "12", "23", "13", "14", "19", "20", "22"], "num_clicks_accrued": [0, 0, 0, 0, 0, 0, 0, 0, 0, 0, 0, 0, 0], "stateRewards": ["", -2, 2, -2, -7, -50, -62, -45, 7, 36, -24, -72, -1, -1, 8, -1, -67, 20, -52, 2, 35, -50, 80, -1, 1, 6, -6, -70, 6, 88, 8, -47, 74, -19], "withholdReward": false, "trial_id": "mdp_trial_12", "block": "test", "trialIndex": 13, "score": 81.6, "costs": -6.4, "simulationMode": [null, null, null, null, null], "rewards": [-1, -1, 8, 2, 80], "path": ["0", "0", "12", "13", "14", "19", "22"], "rt": [17853, 397, 225, 530, 172], "actions": ["right", "right", "right", "down", "left"], "actionTimes": [19756, 20659, 21389, 22422, 23093], "queries": {"click": {"state": {"target": ["1", "12", "23", "13", "14", "19", "20", "22"], "time": [3213, 5224, 6481, 8636, 9966, 11202, 12378, 15988]}, "edge": {"target": [], "time": []}}, "mouseover": {"state": {"target": ["12", "12", "1", "1", "12", "23", "0", "13", "14", "14", "20", "19", "20", "19", "22", "21"], "time": [2058, 2245, 2487, 3033, 3481, 5832, 6722, 7952, 8885, 9115, 10799, 10944, 12168, 15645, 15778, 16293]}, "edge": {"target": [], "time": []}}, "mouseout": {"state": {"target": ["3", "4", "18", "12", "0", "12", "12", "1", "1", "12", "23", "0", "13", "14", "14", "20", "19", "20", "20", "19", "22", "21", "13"], "time": [385, 409, 579, 633, 2033, 2124, 2330, 2766, 3402, 5426, 6619, 6752, 8842, 8903, 10144, 10823, 11356, 12537, 15627, 15711, 16214, 23792, 25155]}, "edge": {"target": [], "time": []}}}, "displayed_time": "23.59", "trialTime": 25385, "trial_type": "mouselab-mdp", "trial_index": 20, "time_elapsed": 761731, "internal_node_id": "0.0-4.0-1.0-11.0"}}, {"uniqueid": "w96997703:a73380414", "current_trial": 21, "dateTime": 1691149734484, "trialdata": {"revealed_states": [], "clicked_states": ["12", "23", "24", "25", "26", "28"], "num_clicks_accrued": [0, 0, 0, 0, 0, 0, 0, 0, 0, 0, 0, 0, 0], "stateRewards": ["", 2, 4, -6, -13, -75, -81, 30, 7, 5, 59, -65, -1, -1, 7, 14, -38, 36, -41, 1, -54, -5, 64, 2, -1, 5, 6, -19, 79, 11, 16, -33, -50, 58], "withholdReward": false, "trial_id": "mdp_trial_13", "block": "test", "trialIndex": 14, "score": 86.5, "costs": -4.5, "simulationMode": [null, null, null, null, null], "rewards": [2, -1, 5, 6, 79], "path": ["0", "0", "23", "24", "25", "26", "28"], "rt": [10824, 414, 187, 102, 278], "actions": ["left", "left", "left", "up", "right"], "actionTimes": [11660, 12578, 13266, 13871, 14653], "queries": {"click": {"state": {"target": ["12", "23", "24", "25", "26", "28"], "time": [1602, 2744, 3682, 4858, 6127, 7930]}, "edge": {"target": [], "time": []}}, "mouseover": {"state": {"target": ["12", "13", "0", "23", "0", "24", "25", "26", "24", "29", "28"], "time": [1065, 2156, 2404, 2592, 3070, 3343, 4663, 5729, 6711, 7311, 7850]}, "edge": {"target": [], "time": []}}, "mouseout": {"state": {"target": ["13", "0", "12", "13", "12", "0", "23", "0", "24", "24", "25", "24", "26", "24", "24", "25", "29", "26", "28"], "time": [289, 1035, 2107, 2325, 2386, 2459, 3040, 3137, 3942, 4548, 5033, 5524, 6290, 6487, 6723, 6790, 7644, 7698, 8177]}, "edge": {"target": [], "time": []}}}, "displayed_time": "15.16", "trialTime": 16821, "trial_type": "mouselab-mdp", "trial_index": 21, "time_elapsed": 778656, "internal_node_id": "0.0-4.0-1.0-12.0"}}, {"uniqueid": "w96997703:a73380414", "current_trial": 22, "dateTime": 1691149759026, "trialdata": {"revealed_states": [], "clicked_states": ["12", "13", "14", "15", "19", "20", "21", "22"], "num_clicks_accrued": [0, 0, 0, 0, 0, 0, 0, 0, 0, 0, 0, 0, 0], "stateRewards": ["", 1, 1, 4, 11, 83, -66, 18, -16, -23, 5, 25, 1, -3, 1, -12, 18, 24, -86, -11, -64, 36, 40, 2, 1, -6, 13, 55, 29, 72, -2, 81, -72, -41], "withholdReward": false, "trial_id": "mdp_trial_14", "block": "test", "trialIndex": 15, "score": 17.4, "costs": -10.6, "simulationMode": [null, null, null, null, null], "rewards": [1, -3, 1, -11, 40], "path": ["0", "0", "12", "13", "14", "19", "22"], "rt": [19466, 222, 144, 119, 104], "actions": ["right", "right", "right", "down", "left"], "actionTimes": [20275, 21000, 21650, 22278, 22887], "queries": {"click": {"state": {"target": ["12", "13", "14", "15", "19", "20", "21", "22"], "time": [1661, 3011, 4351, 5768, 7075, 8816, 12112, 16552]}, "edge": {"target": [], "time": []}}, "mouseover": {"state": {"target": ["12", "12", "13", "14", "14", "15", "17", "20", "19", "20", "20", "21", "19", "22", "19", "20", "14", "15"], "time": [1023, 1411, 1901, 3197, 3549, 5433, 5942, 6543, 6735, 7256, 7668, 11902, 12617, 12738, 16760, 17051, 17178, 17506]}, "edge": {"target": [], "time": []}}, "mouseout": {"state": {"target": ["0", "12", "12", "0", "12", "12", "13", "14", "14", "15", "17", "20", "19", "20", "20", "21", "19", "22", "19", "20", "14", "15"], "time": [197, 289, 483, 962, 1217, 1853, 3161, 3228, 4506, 5893, 5966, 6669, 7232, 7304, 8970, 12375, 12678, 16712, 16803, 17100, 17215, 21710]}, "edge": {"target": [], "time": []}}}, "displayed_time": "23.39", "trialTime": 24445, "trial_type": "mouselab-mdp", "trial_index": 22, "time_elapsed": 803198, "internal_node_id": "0.0-4.0-1.0-13.0"}}, {"uniqueid": "w96997703:a73380414", "current_trial": 23, "dateTime": 1691149787886, "trialdata": {"revealed_states": [], "clicked_states": ["1", "12", "23", "2", "13", "24", "25", "26", "30", "32", "33", "31"], "num_clicks_accrued": [0, 0, 0, 0, 0, 0, 0, 0, 0, 0, 0, 0, 0], "stateRewards": ["", -2, -2, -3, -6, -15, -11, 41, -12, -63, -76, 2, -2, -3, 8, 9, -36, -2, -18, -16, -32, -85, -17, -2, 1, 5, -16, 82, 35, -88, -1, 80, -82, -20], "withholdReward": false, "trial_id": "mdp_trial_15", "block": "test", "trialIndex": 16, "score": 72.2, "costs": -10.8, "simulationMode": [null, null, null, null, null], "rewards": [-2, 1, 5, -1, 80], "path": ["0", "0", "23", "24", "25", "30", "31"], "rt": [22464, 136, 107, 115, 148], "actions": ["left", "left", "left", "down", "right"], "actionTimes": [24431, 25068, 25680, 26300, 26951], "queries": {"click": {"state": {"target": ["1", "12", "23", "2", "13", "24", "25", "26", "30", "32", "33", "31"], "time": [2888, 3702, 4542, 6884, 7774, 8506, 10746, 11966, 13126, 14536, 17725, 20915]}, "edge": {"target": [], "time": []}}, "mouseover": {"state": {"target": ["1", "12", "22", "23", "0", "1", "2", "7", "18", "13", "12", "0", "23", "24", "25", "31", "31", "26", "24", "24", "30", "31", "31", "32", "33", "30", "31"], "time": [2667, 3436, 4006, 4296, 4714, 6368, 6520, 7065, 7168, 7295, 8028, 8113, 8198, 8307, 10178, 10978, 11414, 11766, 12226, 12486, 12729, 13328, 13973, 14073, 15140, 17944, 18012]}, "edge": {"target": [], "time": []}}, "mouseout": {"state": {"target": ["17", "14", "13", "12", "0", "0", "1", "12", "22", "23", "0", "1", "2", "7", "18", "13", "12", "0", "23", "24", "24", "25", "31", "31", "26", "24", "24", "30", "31", "31", "32", "33", "30", "31"], "time": [898, 1334, 1376, 1461, 1528, 2564, 3042, 3861, 4042, 4679, 4721, 6374, 7022, 7089, 7216, 8004, 8034, 8143, 8264, 8658, 10094, 10905, 11008, 11541, 12123, 12238, 12505, 13298, 13365, 13983, 14667, 17914, 17981, 21071]}, "edge": {"target": [], "time": []}}}, "displayed_time": "27.45", "trialTime": 28761, "trial_type": "mouselab-mdp", "trial_index": 23, "time_elapsed": 832058, "internal_node_id": "0.0-4.0-1.0-14.0"}}, {"uniqueid": "w96997703:a73380414", "current_trial": 24, "dateTime": 1691149812194, "trialdata": {"revealed_states": [], "clicked_states": ["12", "1", "23", "2", "3", "4", "6", "7", "5"], "num_clicks_accrued": [0, 0, 0, 0, 0, 0, 0, 0, 0, 0, 0, 0, 0], "stateRewards": ["", 2, -3, 5, 11, -79, 54, 11, -9, -78, 33, 22, -2, -1, 2, 14, 43, 34, 1, 10, 49, -65, 39, -1, 1, -1, 3, -16, -2, 11, 2, 12, 48, -65], "withholdReward": false, "trial_id": "mdp_trial_16", "block": "test", "trialIndex": 17, "score": 60.45, "costs": -8.55, "simulationMode": [null, null, null, null, null], "rewards": [2, -3, 5, 11, 54], "path": ["0", "0", "1", "2", "3", "4", "6"], "rt": [18642, 71, 136, 123, 117], "actions": ["up", "up", "up", "right", "right"], "actionTimes": [19527, 20101, 20741, 21365, 21982], "queries": {"click": {"state": {"target": ["12", "1", "23", "2", "3", "4", "6", "7", "5"], "time": [2207, 2974, 3660, 4589, 5743, 7173, 9442, 13007, 16252]}, "edge": {"target": [], "time": []}}, "mouseover": {"state": {"target": ["12", "13", "12", "1", "23", "2", "7", "7", "3", "7", "4", "7", "6", "5", "6", "16", "18", "7", "5"], "time": [983, 1341, 1541, 2710, 3461, 4333, 4836, 5024, 5527, 6290, 6891, 7665, 8240, 8937, 9065, 9652, 11645, 12766, 13547]}, "edge": {"target": [], "time": []}}, "mouseout": {"state": {"target": ["0", "12", "13", "12", "1", "1", "23", "23", "1", "2", "7", "7", "3", "7", "4", "7", "4", "6", "5", "6", "16", "18", "7", "6", "5"], "time": [947, 1020, 1426, 2534, 2979, 3297, 3743, 3982, 4230, 4800, 4897, 5327, 5920, 6678, 7332, 7725, 8125, 8761, 8999, 9573, 9682, 11996, 13141, 13402, 16455]}, "edge": {"target": [], "time": []}}}, "displayed_time": "22.48", "trialTime": 24199, "trial_type": "mouselab-mdp", "trial_index": 24, "time_elapsed": 856366, "internal_node_id": "0.0-4.0-1.0-15.0"}}, {"uniqueid": "w96997703:a73380414", "current_trial": 25, "dateTime": 1691149832294, "trialdata": {"revealed_states": [], "clicked_states": ["1", "12", "23", "24", "25", "26", "29", "27"], "num_clicks_accrued": [0, 0, 0, 0, 0, 0, 0, 0, 0, 0, 0, 0, 0], "stateRewards": ["", -2, 2, 3, -7, -31, -33, 29, -8, -57, 50, -83, -1, -1, 5, 13, -23, -62, 25, 5, -66, -85, 14, 1, -2, -1, 16, 71, 33, -19, -14, 5, -43, 79], "withholdReward": false, "trial_id": "mdp_trial_17", "block": "test", "trialIndex": 18, "score": 78.6, "costs": -6.4, "simulationMode": [null, null, null, null, null], "rewards": [1, -2, -1, 16, 71], "path": ["0", "0", "23", "24", "25", "26", "27"], "rt": [14189, 171, 90, 79, 150], "actions": ["left", "left", "left", "up", "up"], "actionTimes": [15549, 16224, 16815, 17397, 18050], "queries": {"click": {"state": {"target": ["1", "12", "23", "24", "25", "26", "29", "27"], "time": [2180, 2812, 3472, 4358, 5055, 6418, 8368, 11726]}, "edge": {"target": [], "time": []}}, "mouseover": {"state": {"target": ["0", "12", "1", "12", "0", "23", "0", "0", "24", "25", "26", "30", "27", "27", "29", "27", "28"], "time": [1428, 1537, 1963, 2367, 3033, 3191, 3736, 4021, 4160, 4869, 6092, 6928, 7722, 8006, 8176, 8849, 12107]}, "edge": {"target": [], "time": []}}, "mouseout": {"state": {"target": ["6", "12", "0", "0", "12", "1", "12", "0", "23", "0", "0", "23", "24", "25", "24", "24", "26", "30", "25", "26", "27", "27", "29", "29", "26", "27"], "time": [719, 949, 1253, 1440, 1786, 2294, 2991, 3130, 3686, 3778, 4069, 4136, 4802, 5214, 5366, 5765, 6631, 7255, 7383, 7528, 7855, 8122, 8464, 8540, 8745, 11926]}, "edge": {"target": [], "time": []}}}, "displayed_time": "18.55", "trialTime": 19997, "trial_type": "mouselab-mdp", "trial_index": 25, "time_elapsed": 876466, "internal_node_id": "0.0-4.0-1.0-16.0"}}, {"uniqueid": "w96997703:a73380414", "current_trial": 26, "dateTime": 1691149870179, "trialdata": {"revealed_states": [], "clicked_states": ["1", "12", "23", "13", "14", "15", "19", "20", "21", "22", "18", "17", "16"], "num_clicks_accrued": [0, 0, 0, 0, 0, 0, 0, 0, 0, 0, 0, 0, 0], "stateRewards": ["", -2, 4, 3, 5, -61, 4, 30, 1, -47, 83, 10, 1, 4, 7, -14, 19, -74, -83, 6, -2, -2, -65, -1, -2, 4, -11, 12, -1, -68, 11, -38, -28, 66], "withholdReward": false, "trial_id": "mdp_trial_18", "block": "test", "trialIndex": 19, "score": 0.4499999999999993, "costs": -16.55, "simulationMode": [null, null, null, null, null], "rewards": [1, 4, 7, -14, 19], "path": ["0", "0", "12", "13", "14", "15", "16"], "rt": [31966, 122, 190, 64, 100], "actions": ["right", "right", "right", "up", "up"], "actionTimes": [33449, 34080, 34770, 35334, 35934], "queries": {"click": {"state": {"target": ["1", "12", "23", "13", "14", "15", "19", "20", "21", "22", "18", "17", "16"], "time": [2473, 3093, 3958, 5111, 5856, 6893, 7726, 8721, 11879, 15043, 19012, 22299, 25468]}, "edge": {"target": [], "time": []}}, "mouseover": {"state": {"target": ["12", "13", "14", "13", "12", "1", "12", "0", "23", "0", "13", "14", "15", "20", "19", "20", "20", "21", "22", "19", "20", "15", "18", "15", "17", "16", "18", "23", "25", "24", "23"], "time": [1570, 1637, 1728, 1867, 1934, 2255, 2746, 3345, 3442, 4163, 4830, 5314, 6641, 7344, 7453, 7931, 8380, 9446, 12317, 15303, 15358, 18514, 18768, 19259, 19968, 22833, 29842, 31271, 31573, 31792, 32325]}, "edge": {"target": [], "time": []}}, "mouseout": {"state": {"target": ["28", "23", "0", "12", "13", "14", "13", "12", "1", "12", "0", "23", "0", "13", "14", "14", "15", "20", "19", "20", "20", "21", "22", "19", "20", "15", "18", "15", "17", "16", "16", "18", "23", "25", "24", "23"], "time": [322, 625, 1504, 1613, 1674, 1825, 1904, 2213, 2655, 3321, 3358, 4127, 4193, 5260, 5861, 6011, 7071, 7368, 7901, 7968, 8888, 12062, 15273, 15334, 15400, 18703, 19229, 19289, 22500, 25668, 29539, 30145, 31326, 31629, 32289, 32337]}, "edge": {"target": [], "time": []}}}, "displayed_time": "36.43", "trialTime": 37780, "trial_type": "mouselab-mdp", "trial_index": 26, "time_elapsed": 914350, "internal_node_id": "0.0-4.0-1.0-17.0"}}, {"uniqueid": "w96997703:a73380414", "current_trial": 27, "dateTime": 1691149890977, "trialdata": {"revealed_states": [], "clicked_states": ["23", "1", "12", "25"], "num_clicks_accrued": [0, 0, 0, 0, 0, 0, 0, 0, 0, 0, 0, 0, 0], "stateRewards": ["", -2, -3, 4, 1, 33, -53, 15, 9, -12, 61, -6, -2, 4, 6, -11, 47, -43, -7, -11, 46, 23, -28, -1, -1, 3, -10, 11, 76, -76, 10, 18, -38, 87], "withholdReward": false, "trial_id": "mdp_trial_19", "block": "test", "trialIndex": 20, "score": -85.2, "costs": -0.19999999999999996, "simulationMode": [null, null, null, null, null], "rewards": [-1, -1, 3, -10, -76], "path": ["0", "0", "23", "24", "25", "26", "29"], "rt": [14425, 207, 136, 94, 554], "actions": ["left", "left", "left", "up", "left"], "actionTimes": [15492, 16202, 16840, 17434, 18487], "queries": {"click": {"state": {"target": ["23", "1", "12", "25"], "time": [1735, 2431, 2976, 5889]}, "edge": {"target": [], "time": []}}, "mouseover": {"state": {"target": ["0", "23", "1", "1", "12", "24", "24", "25", "31", "31", "24", "26", "28", "28", "26", "27", "28", "28", "27"], "time": [1431, 1607, 2019, 2291, 2697, 3951, 4078, 5635, 6120, 7125, 7477, 7919, 8125, 8791, 8979, 9269, 10523, 11735, 12056]}, "edge": {"target": [], "time": []}}, "mouseout": {"state": {"target": ["14", "13", "12", "0", "0", "23", "1", "1", "12", "24", "24", "25", "31", "31", "24", "25", "26", "28", "28", "26", "27", "28", "28", "27"], "time": [631, 673, 728, 1231, 1497, 1903, 2044, 2600, 3145, 3975, 5593, 6059, 6162, 7162, 7513, 7591, 8076, 8191, 8833, 9197, 9585, 10736, 11947, 12662]}, "edge": {"target": [], "time": []}}}, "displayed_time": "18.99", "trialTime": 20687, "trial_type": "mouselab-mdp", "trial_index": 27, "time_elapsed": 935149, "internal_node_id": "0.0-4.0-1.0-18.0"}}, {"uniqueid": "w96997703:a73380414", "current_trial": 28, "dateTime": 1691149940328, "trialdata": {"revealed_states": [], "clicked_states": ["23", "12", "1", "13", "14", "19", "15", "20", "21", "22", "17", "18", "16", "2", "7", "3", "4", "6", "5"], "num_clicks_accrued": [0, 0, 0, 0, 0, 0, 0, 0, 0, 0, 0, 0, 0], "stateRewards": ["", -2, -1, 3, -3, 71, -58, -21, 7, -10, -75, -37, 2, 4, -1, -12, -79, -29, -48, 3, -41, -10, -30, -1, -2, 1, -15, 13, 66, 22, -1, -42, -86, -55], "withholdReward": false, "trial_id": "mdp_trial_20", "block": "test", "trialIndex": 21, "score": 42.150000000000006, "costs": -25.849999999999998, "simulationMode": [null, null, null, null, null], "rewards": [-2, -1, 3, -3, 71], "path": ["0", "0", "1", "2", "3", "4", "5"], "rt": [42782, 66, 141, 398, 100], "actions": ["up", "up", "up", "right", "up"], "actionTimes": [44707, 45275, 45924, 46823, 47427], "queries": {"click": {"state": {"target": ["23", "12", "1", "13", "14", "19", "15", "20", "21", "22", "17", "18", "16", "2", "7", "3", "4", "6", "5"], "time": [3060, 4457, 5195, 5971, 6755, 7586, 9299, 10068, 13186, 16281, 19785, 22825, 25955, 29269, 31276, 34587, 36206, 37855, 40931]}, "edge": {"target": [], "time": []}}, "mouseover": {"state": {"target": ["23", "23", "0", "12", "1", "13", "14", "14", "20", "19", "20", "21", "15", "20", "21", "22", "19", "17", "18", "15", "16", "17", "17", "15", "2", "7", "3", "4", "4", "6", "5", "4", "3", "8", "9", "4"], "time": [2470, 2779, 4117, 4341, 4723, 5474, 6152, 6479, 7279, 7406, 7745, 8678, 9084, 9758, 10707, 13748, 16505, 19673, 20400, 23071, 23192, 27087, 27681, 28874, 29177, 30510, 32212, 34799, 35525, 37609, 40517, 41420, 41468, 41583, 42286, 44630]}, "edge": {"target": [], "time": []}}, "mouseout": {"state": {"target": ["1", "0", "23", "23", "23", "23", "0", "12", "1", "13", "14", "14", "20", "19", "20", "19", "21", "19", "14", "15", "20", "21", "21", "22", "19", "17", "18", "15", "16", "17", "17", "15", "2", "2", "7", "7", "3", "4", "4", "6", "5", "6", "6", "4", "3", "8", "9", "4", "6"], "time": [707, 2369, 2587, 3294, 4021, 4105, 4154, 4662, 5371, 6128, 6200, 6861, 7345, 7715, 7800, 8472, 8812, 8866, 8902, 9417, 10223, 13330, 13597, 16456, 16554, 20072, 22980, 23089, 26118, 27275, 28827, 28923, 29282, 29607, 31515, 31976, 34756, 34829, 36392, 37991, 41111, 41208, 41395, 41450, 41492, 41620, 44340, 44667, 45393]}, "edge": {"target": [], "time": []}}}, "displayed_time": "47.93", "trialTime": 49245, "trial_type": "mouselab-mdp", "trial_index": 28, "time_elapsed": 984500, "internal_node_id": "0.0-4.0-1.0-19.0"}}, {"uniqueid": "w96997703:a73380414", "current_trial": 29, "dateTime": 1691149957700, "trialdata": {"revealed_states": [], "clicked_states": ["9", "5"], "num_clicks_accrued": [0, 0, 0, 0, 0, 0, 0, 0, 0, 0, 0, 0, 0], "stateRewards": ["", 1, 1, 7, -11, 80, -20, -53, -14, 3, 31, 27, 2, -1, -8, -10, 33, 41, 86, 9, 78, -37, -13, -1, -2, -6, -8, -80, 75, 4, -16, -49, -74, 24], "withholdReward": false, "trial_id": "mdp_trial_21", "block": "test", "trialIndex": 22, "score": 73.7, "costs": -4.3, "simulationMode": [null, null, null, null, null], "rewards": [1, 1, 7, -11, 80], "path": ["0", "0", "1", "2", "3", "4", "5"], "rt": [8781, 139, 114, 57, 98], "actions": ["up", "up", "up", "right", "up"], "actionTimes": [9986, 10626, 11243, 11804, 12402], "queries": {"click": {"state": {"target": ["9", "5"], "time": [2215, 5773]}, "edge": {"target": [], "time": []}}, "mouseover": {"state": {"target": ["12", "7", "3", "9", "5", "6", "16", "16"], "time": [1418, 1551, 1618, 1836, 5573, 5991, 6185, 8959]}, "edge": {"target": [], "time": []}}, "mouseout": {"state": {"target": ["16", "17", "14", "13", "12", "12", "7", "3", "9", "5", "6", "16", "16"], "time": [48, 230, 388, 733, 842, 1442, 1575, 1654, 2357, 5937, 6028, 6222, 9513]}, "edge": {"target": [], "time": []}}}, "displayed_time": "15.21", "trialTime": 17263, "trial_type": "mouselab-mdp", "trial_index": 29, "time_elapsed": 1001872, "internal_node_id": "0.0-4.0-1.0-20.0"}}, {"uniqueid": "w96997703:a73380414", "current_trial": 30, "dateTime": 1691149975013, "trialdata": {"revealed_states": [], "clicked_states": ["32", "21"], "num_clicks_accrued": [0, 0, 0, 0, 0, 0, 0, 0, 0, 0, 0, 0, 0], "stateRewards": ["", -1, -3, -6, 14, 41, 18, 63, -14, 80, 21, 17, -2, -4, -2, -5, 13, 70, 8, -4, -64, -10, -20, 2, -1, 4, -1, -17, -55, 42, -7, 47, 54, 15], "withholdReward": false, "trial_id": "mdp_trial_22", "block": "test", "trialIndex": 23, "score": 47.7, "costs": -4.3, "simulationMode": [null, null, null, null, null], "rewards": [2, -1, 4, -7, 54], "path": ["0", "0", "23", "24", "25", "30", "32"], "rt": [8089, 52, 200, 158, 416], "actions": ["left", "left", "left", "down", "down"], "actionTimes": [9499, 10052, 10752, 11412, 12330], "queries": {"click": {"state": {"target": ["32", "21"], "time": [2414, 6032]}, "edge": {"target": [], "time": []}}, "mouseover": {"state": {"target": ["0", "12", "32", "21"], "time": [1536, 1591, 2191, 5795]}, "edge": {"target": [], "time": []}}, "mouseout": {"state": {"target": ["7", "0", "0", "12", "32", "21"], "time": [791, 1264, 1561, 1627, 2554, 6171]}, "edge": {"target": [], "time": []}}}, "displayed_time": "15.41", "trialTime": 17205, "trial_type": "mouselab-mdp", "trial_index": 30, "time_elapsed": 1019185, "internal_node_id": "0.0-4.0-1.0-21.0"}}, {"uniqueid": "w96997703:a73380414", "current_trial": 31, "dateTime": 1691150011023, "trialdata": {"revealed_states": [], "clicked_states": ["29", "17", "21", "32"], "num_clicks_accrued": [0, 0, 0, 0, 0, 0, 0, 0, 0, 0, 0, 0, 0], "stateRewards": ["", 1, -4, -6, -1, -21, 17, -72, 10, 77, 67, -46, -1, 4, -2, 14, -66, -49, -45, -15, -52, 23, -67, 2, -2, -2, 15, -3, 45, -64, 5, -44, 83, 61], "withholdReward": false, "trial_id": "mdp_trial_23", "block": "test", "trialIndex": 24, "score": 77.4, "costs": -8.6, "simulationMode": [null, null, null, null, null], "rewards": [2, -2, -2, 5, 83], "path": ["0", "0", "23", "24", "25", "30", "32"], "rt": [16048, 99, 69, 65, 144], "actions": ["left", "left", "left", "down", "down"], "actionTimes": [17544, 18146, 18714, 19281, 19928], "queries": {"click": {"state": {"target": ["29", "17", "21", "32"], "time": [2477, 5657, 9804, 13396]}, "edge": {"target": [], "time": []}}, "mouseover": {"state": {"target": ["12", "0", "23", "24", "29", "26", "17", "16", "15", "14", "19", "21", "32"], "time": [1635, 1908, 1950, 2004, 2241, 2671, 3343, 9044, 9395, 9425, 9461, 9540, 13225]}, "edge": {"target": [], "time": []}}, "mouseout": {"state": {"target": ["19", "22", "12", "0", "12", "0", "23", "24", "29", "26", "17", "17", "16", "15", "14", "19", "21", "21", "21", "32"], "time": [1059, 1083, 1156, 1617, 1665, 1938, 1986, 2047, 2647, 2695, 5833, 6875, 9371, 9413, 9443, 9498, 9910, 10007, 12969, 13587]}, "edge": {"target": [], "time": []}}}, "displayed_time": "20.43", "trialTime": 35904, "trial_type": "mouselab-mdp", "trial_index": 31, "time_elapsed": 1055195, "internal_node_id": "0.0-4.0-1.0-22.0"}}, {"uniqueid": "w96997703:a73380414", "current_trial": 32, "dateTime": 1691150028036, "trialdata": {"revealed_states": [], "clicked_states": ["33"], "num_clicks_accrued": [0, 0, 0, 0, 0, 0, 0, 0, 0, 0, 0, 0, 0], "stateRewards": ["", 1, 2, 3, 16, 63, -25, 16, -4, -14, 82, -66, -1, -3, -3, -11, -14, 19, 46, 3, -34, -82, 66, -2, -3, 4, -5, -63, 77, -37, -1, -45, -41, 84], "withholdReward": false, "trial_id": "mdp_trial_24", "block": "test", "trialIndex": 25, "score": 79.85, "costs": -2.15, "simulationMode": [null, null, null, null, null], "rewards": [-2, -3, 4, -1, 84], "path": ["0", "0", "23", "24", "25", "30", "33"], "rt": [6064, 123, 135, 49, 167], "actions": ["left", "left", "left", "down", "left"], "actionTimes": [7651, 8278, 8913, 9464, 10133], "queries": {"click": {"state": {"target": ["33"], "time": [3975]}, "edge": {"target": [], "time": []}}, "mouseover": {"state": {"target": ["0", "23", "23", "24", "30", "33", "30", "31", "14", "17", "13", "12"], "time": [2108, 2453, 2598, 2628, 3192, 3501, 4143, 4204, 5009, 5306, 7287, 7311]}, "edge": {"target": [], "time": []}}, "mouseout": {"state": {"target": ["0", "0", "23", "23", "24", "30", "33", "30", "31", "14", "17", "13", "12", "13", "14"], "time": [1168, 2271, 2519, 2604, 2671, 3434, 4112, 4185, 4241, 5033, 7233, 7293, 12934, 13127, 13351]}, "edge": {"target": [], "time": []}}}, "displayed_time": "15.59", "trialTime": 16893, "trial_type": "mouselab-mdp", "trial_index": 32, "time_elapsed": 1072208, "internal_node_id": "0.0-4.0-1.0-23.0"}}, {"uniqueid": "w96997703:a73380414", "current_trial": 33, "dateTime": 1691150046007, "trialdata": {"revealed_states": [], "clicked_states": ["5"], "num_clicks_accrued": [0, 0, 0, 0, 0, 0, 0, 0, 0, 0, 0, 0, 0], "stateRewards": ["", -2, 4, -3, -13, 63, -36, 62, 11, 78, 34, -51, 2, -2, 8, -6, -40, -18, 31, 9, 64, 39, 79, 1, 4, -4, 15, -12, 76, 73, -10, -77, 86, -4], "withholdReward": false, "trial_id": "mdp_trial_25", "block": "test", "trialIndex": 26, "score": 46.85, "costs": -2.15, "simulationMode": [null, null, null, null, null], "rewards": [-2, 4, -3, -13, 63], "path": ["0", "0", "1", "2", "3", "4", "5"], "rt": [6406, 135, 116, 128, 956], "actions": ["up", "up", "up", "right", "up"], "actionTimes": [7634, 8272, 8888, 9518, 10975], "queries": {"click": {"state": {"target": ["5"], "time": [2921]}, "edge": {"target": [], "time": []}}, "mouseover": {"state": {"target": ["12", "13", "14", "17", "16", "4", "5"], "time": [1404, 1452, 1616, 1931, 2458, 2585, 2780]}, "edge": {"target": [], "time": []}}, "mouseout": {"state": {"target": ["14", "13", "12", "0", "12", "13", "14", "17", "16", "4", "5"], "time": [659, 774, 846, 1374, 1434, 1483, 1695, 2422, 2464, 2597, 3052]}, "edge": {"target": [], "time": []}}}, "displayed_time": "15.23", "trialTime": 17852, "trial_type": "mouselab-mdp", "trial_index": 33, "time_elapsed": 1090179, "internal_node_id": "0.0-4.0-1.0-24.0"}}, {"uniqueid": "w96997703:a73380414", "current_trial": 34, "dateTime": 1691150063333, "trialdata": {"revealed_states": [], "clicked_states": ["28"], "num_clicks_accrued": [0, 0, 0, 0, 0, 0, 0, 0, 0, 0, 0, 0, 0], "stateRewards": ["", -1, 2, 6, 11, 21, -21, -21, -6, 48, -71, 88, -1, -3, 3, 7, 64, 2, 9, -4, 37, -67, 72, 2, 2, -8, -8, -10, 71, -40, -3, 73, 80, 47], "withholdReward": false, "trial_id": "mdp_trial_26", "block": "test", "trialIndex": 27, "score": 56.85, "costs": -2.15, "simulationMode": [null, null, null, null, null], "rewards": [2, 2, -8, -8, 71], "path": ["0", "0", "23", "24", "25", "26", "28"], "rt": [5629, 102, 99, 24, 61], "actions": ["left", "left", "left", "up", "right"], "actionTimes": [7874, 8479, 9082, 9606, 10170], "queries": {"click": {"state": {"target": ["28"], "time": [4279]}, "edge": {"target": [], "time": []}}, "mouseover": {"state": {"target": ["0", "23", "24", "26", "29", "26", "28", "12"], "time": [2863, 3081, 3330, 3493, 3766, 3996, 4093, 4590]}, "edge": {"target": [], "time": []}}, "mouseout": {"state": {"target": ["6", "7", "1", "0", "23", "24", "26", "29", "26", "28", "12"], "time": [1730, 1784, 1863, 2948, 3214, 3378, 3655, 3926, 4044, 4505, 4620]}, "edge": {"target": [], "time": []}}}, "displayed_time": "16.25", "trialTime": 17205, "trial_type": "mouselab-mdp", "trial_index": 34, "time_elapsed": 1107505, "internal_node_id": "0.0-4.0-1.0-25.0"}}, {"uniqueid": "w96997703:a73380414", "current_trial": 35, "dateTime": 1691150087656, "trialdata": {"revealed_states": [], "clicked_states": ["1", "2", "3", "4", "7", "6", "5"], "num_clicks_accrued": [0, 0, 0, 0, 0, 0, 0, 0, 0, 0, 0, 0, 0], "stateRewards": ["", -1, 4, -3, 3, 57, -61, 5, -11, 23, -1, 34, -2, -4, -1, -13, 27, 38, -36, 4, -45, 21, 88, 1, -2, -1, 1, -69, -5, -78, -12, -9, 38, -54], "withholdReward": false, "trial_id": "mdp_trial_27", "block": "test", "trialIndex": 28, "score": 50.95, "costs": -9.05, "simulationMode": [null, null, null, null, null], "rewards": [-1, 4, -3, 3, 57], "path": ["0", "0", "1", "2", "3", "4", "5"], "rt": [17020, 71, 70, 98, 69], "actions": ["up", "up", "up", "right", "up"], "actionTimes": [19984, 20557, 21132, 21735, 22305], "queries": {"click": {"state": {"target": ["1", "2", "3", "4", "7", "6", "5"], "time": [3978, 5515, 6655, 8391, 10030, 13443, 16575]}, "edge": {"target": [], "time": []}}, "mouseover": {"state": {"target": ["1", "2", "7", "3", "4", "4", "6", "7", "18", "18", "6", "5"], "time": [3742, 5336, 5681, 6226, 6838, 7486, 9303, 9836, 10266, 10975, 13241, 14210]}, "edge": {"target": [], "time": []}}, "mouseout": {"state": {"target": ["0", "1", "2", "7", "3", "4", "4", "6", "7", "18", "18", "6", "5"], "time": [3524, 4154, 5650, 6002, 6813, 6874, 8600, 9788, 10212, 10303, 11944, 13574, 16759]}, "edge": {"target": [], "time": []}}}, "displayed_time": "22.81", "trialTime": 24210, "trial_type": "mouselab-mdp", "trial_index": 35, "time_elapsed": 1131828, "internal_node_id": "0.0-4.0-1.0-26.0"}}, {"uniqueid": "w96997703:a73380414", "current_trial": 36, "dateTime": 1691150109127, "trialdata": {"revealed_states": [], "clicked_states": ["32", "27", "20"], "num_clicks_accrued": [0, 0, 0, 0, 0, 0, 0, 0, 0, 0, 0, 0, 0], "stateRewards": ["", 2, 4, 4, -8, -36, -33, 38, 16, -51, 57, 57, 1, 3, 4, -6, 45, 68, 87, 1, 63, 24, -55, -2, 2, -6, -13, -63, -50, 8, 2, 80, 6, 60], "withholdReward": false, "trial_id": "mdp_trial_28", "block": "test", "trialIndex": 29, "score": 65.55, "costs": -6.449999999999999, "simulationMode": [null, null, null, null, null], "rewards": [1, 3, 4, 1, 63], "path": ["0", "0", "12", "13", "14", "19", "20"], "rt": [14452, 49, 93, 50, 67], "actions": ["right", "right", "right", "down", "right"], "actionTimes": [16020, 16571, 17166, 17717, 18285], "queries": {"click": {"state": {"target": ["32", "27", "20"], "time": [2611, 7175, 12219]}, "edge": {"target": [], "time": []}}, "mouseover": {"state": {"target": ["0", "31", "32", "23", "24", "26", "27", "1", "13", "22", "21", "20"], "time": [2067, 2218, 2382, 6168, 6483, 6616, 6804, 7543, 10863, 10978, 11238, 12056]}, "edge": {"target": [], "time": []}}, "mouseout": {"state": {"target": ["4", "2", "1", "0", "0", "0", "31", "32", "23", "24", "26", "27", "1", "13", "22", "21", "20"], "time": [855, 982, 1037, 1092, 1691, 2103, 2255, 2736, 6435, 6544, 6707, 7361, 10657, 10929, 10990, 11959, 12462]}, "edge": {"target": [], "time": []}}}, "displayed_time": "18.79", "trialTime": 21350, "trial_type": "mouselab-mdp", "trial_index": 36, "time_elapsed": 1153298, "internal_node_id": "0.0-4.0-1.0-27.0"}}, {"uniqueid": "w96997703:a73380414", "current_trial": 37, "dateTime": 1691150126444, "trialdata": {"revealed_states": [], "clicked_states": ["9"], "num_clicks_accrued": [0, 0, 0, 0, 0, 0, 0, 0, 0, 0, 0, 0, 0], "stateRewards": ["", -2, 2, -4, -4, -59, 88, 62, -3, 69, -15, -34, 1, -2, -5, 7, -54, -20, 78, -16, -74, -53, -21, 2, -4, 2, 13, -8, -44, 26, 9, 72, 4, 17], "withholdReward": false, "trial_id": "mdp_trial_29", "block": "test", "trialIndex": 30, "score": 59.85, "costs": -2.15, "simulationMode": [null, null, null, null, null], "rewards": [-2, 2, -4, -3, 69], "path": ["0", "0", "1", "2", "3", "8", "9"], "rt": [5965, 117, 116, 92, 83], "actions": ["up", "up", "up", "left", "up"], "actionTimes": [7308, 7929, 8545, 9139, 9724], "queries": {"click": {"state": {"target": ["9"], "time": [3727]}, "edge": {"target": [], "time": []}}, "mouseover": {"state": {"target": ["12", "13", "19", "21", "19", "14", "15", "4", "5", "9", "8", "10", "2", "2", "2"], "time": [1443, 1516, 2062, 2177, 2673, 2697, 2740, 2885, 3073, 3430, 4036, 4073, 4856, 5145, 6732]}, "edge": {"target": [], "time": []}}, "mouseout": {"state": {"target": ["14", "13", "12", "0", "12", "13", "19", "21", "19", "14", "15", "4", "5", "9", "8", "10", "2", "2", "2"], "time": [638, 668, 795, 1413, 1486, 1988, 2110, 2655, 2685, 2721, 2758, 2988, 3309, 3909, 4048, 4109, 4878, 5417, 6804]}, "edge": {"target": [], "time": []}}}, "displayed_time": "15.34", "trialTime": 17205, "trial_type": "mouselab-mdp", "trial_index": 37, "time_elapsed": 1170616, "internal_node_id": "0.0-4.0-1.0-28.0"}}, {"uniqueid": "w96997703:a73380414", "current_trial": 38, "dateTime": 1691150143271, "trialdata": {"revealed_states": [], "clicked_states": ["18"], "num_clicks_accrued": [0, 0, 0, 0, 0, 0, 0, 0, 0, 0, 0, 0, 0], "stateRewards": ["", 2, -2, -8, 9, -20, 55, -58, 14, 42, 2, 36, 1, -3, -5, 5, -58, 57, 60, 16, 57, 30, -70, -2, 1, 3, 10, 59, 23, 77, -13, -26, 88, -72], "withholdReward": false, "trial_id": "mdp_trial_30", "block": "test", "trialIndex": 31, "score": 55.85, "costs": -2.15, "simulationMode": [null, null, null, null, null], "rewards": [1, -3, -5, 5, 60], "path": ["0", "0", "12", "13", "14", "15", "18"], "rt": [9155, 113, 97, 81, 117], "actions": ["right", "right", "right", "up", "left"], "actionTimes": [10505, 11118, 11714, 12298, 12915], "queries": {"click": {"state": {"target": ["18"], "time": [3368]}, "edge": {"target": [], "time": []}}, "mouseover": {"state": {"target": ["12", "28", "26", "26", "28", "15", "18", "14", "22", "31", "30", "33", "30", "25"], "time": [1542, 2160, 2293, 2639, 2687, 3070, 3184, 7097, 7303, 8890, 8975, 9175, 9544, 9617]}, "edge": {"target": [], "time": []}}, "mouseout": {"state": {"target": ["2", "1", "12", "28", "26", "26", "28", "15", "18", "14", "22", "31", "30", "33", "30", "25"], "time": [773, 845, 1760, 2245, 2408, 2669, 2832, 3111, 3583, 7194, 8727, 8932, 9047, 9502, 9574, 10168]}, "edge": {"target": [], "time": []}}}, "displayed_time": "15.35", "trialTime": 16709, "trial_type": "mouselab-mdp", "trial_index": 38, "time_elapsed": 1187443, "internal_node_id": "0.0-4.0-1.0-29.0"}}, {"uniqueid": "w96997703:a73380414", "current_trial": 39, "dateTime": 1691150177197, "trialdata": {"revealed_states": [], "clicked_states": ["28", "5", "21", "33", "32", "9"], "num_clicks_accrued": [0, 0, 0, 0, 0, 0, 0, 0, 0, 0, 0, 0, 0], "stateRewards": ["", -1, -4, -6, -15, 21, -67, -63, 9, 51, 69, -14, -1, 3, 8, -8, 39, 72, 63, 15, 19, 47, 15, 1, 4, 5, 16, -18, 34, 35, -14, -80, 40, 1], "withholdReward": false, "trial_id": "mdp_trial_31", "block": "test", "trialIndex": 32, "score": 36.1, "costs": -12.9, "simulationMode": [null, null, null, null, null], "rewards": [-1, -4, -6, 9, 51], "path": ["0", "0", "1", "2", "3", "8", "9"], "rt": [25282, 49, 139, 25, 114], "actions": ["up", "up", "up", "left", "up"], "actionTimes": [29611, 30162, 30803, 31331, 31947], "queries": {"click": {"state": {"target": ["28", "5", "21", "33", "32", "9"], "time": [6446, 10258, 14058, 17799, 21463, 25753]}, "edge": {"target": [], "time": []}}, "mouseover": {"state": {"target": ["23", "30", "33", "30", "24", "28", "13", "18", "5", "16", "15", "14", "19", "21", "22", "31", "30", "33", "30", "31", "32", "8", "9", "4", "6"], "time": [4997, 5160, 5330, 5839, 6105, 6184, 7371, 9673, 10068, 13489, 13520, 13544, 13586, 13756, 17372, 17451, 17511, 17608, 18020, 18057, 21328, 25375, 25580, 26023, 26053]}, "edge": {"target": [], "time": []}}, "mouseout": {"state": {"target": ["31", "31", "23", "0", "23", "30", "33", "30", "24", "28", "13", "18", "5", "16", "15", "14", "19", "21", "22", "31", "30", "33", "30", "31", "32", "8", "9", "4", "6"], "time": [3609, 3773, 3930, 4972, 5027, 5275, 5784, 5935, 6147, 6602, 7698, 9715, 10406, 13507, 13538, 13568, 13647, 14186, 17378, 17487, 17554, 17984, 18045, 18075, 21619, 25465, 25895, 26029, 26101]}, "edge": {"target": [], "time": []}}}, "displayed_time": "32.45", "trialTime": 33802, "trial_type": "mouselab-mdp", "trial_index": 39, "time_elapsed": 1221369, "internal_node_id": "0.0-4.0-1.0-30.0"}}, {"uniqueid": "w96997703:a73380414", "current_trial": 40, "dateTime": 1691150195615, "trialdata": {"revealed_states": [], "clicked_states": [], "num_clicks_accrued": [0, 0, 0, 0, 0, 0, 0, 0, 0, 0, 0, 0, 0], "stateRewards": ["", 1, 1, -3, 7, 49, 78, 26, -5, 26, 48, -43, -1, -3, 2, -5, 4, -1, -60, 10, -35, 51, 81, -2, 1, -7, -5, -39, -86, -54, 4, -3, 74, 77], "withholdReward": false, "trial_id": "mdp_trial_32", "block": "test", "trialIndex": 33, "score": -67, "costs": 0, "simulationMode": [null, null, null, null, null], "rewards": [-1, -3, 2, -5, -60], "path": ["0", "0", "12", "13", "14", "15", "18"], "rt": [6992, 96, 158, 238, 97], "actions": ["right", "right", "right", "up", "left"], "actionTimes": [8228, 8830, 9491, 10232, 10830], "queries": {"click": {"state": {"target": [], "time": []}, "edge": {"target": [], "time": []}}, "mouseover": {"state": {"target": ["12", "13", "13", "14", "19", "20", "20", "19", "20", "21"], "time": [1355, 1409, 2239, 2792, 3422, 4505, 5335, 5498, 6122, 7624]}, "edge": {"target": [], "time": []}}, "mouseout": {"state": {"target": ["17", "15", "13", "12", "0", "12", "13", "13", "14", "19", "20", "20", "19", "20", "21"], "time": [488, 530, 603, 670, 1288, 1385, 1682, 2372, 3287, 4468, 4547, 5408, 6061, 7238, 8036]}, "edge": {"target": [], "time": []}}}, "displayed_time": "15.24", "trialTime": 18296, "trial_type": "mouselab-mdp", "trial_index": 40, "time_elapsed": 1239787, "internal_node_id": "0.0-4.0-1.0-31.0"}}, {"uniqueid": "w96997703:a73380414", "current_trial": 41, "dateTime": 1691150223429, "trialdata": {"revealed_states": [], "clicked_states": ["9", "5", "7", "25", "32", "33", "31"], "num_clicks_accrued": [0, 0, 0, 0, 0, 0, 0, 0, 0, 0, 0, 0, 0], "stateRewards": ["", 2, 4, 7, 7, -79, -2, -21, -5, -53, 47, -21, 1, -3, -1, 7, 83, 7, 84, -7, 80, -37, 69, 2, -4, 5, 2, 4, -20, -30, 7, 71, 44, -81], "withholdReward": false, "trial_id": "mdp_trial_33", "block": "test", "trialIndex": 34, "score": 67.15, "costs": -13.85, "simulationMode": [null, null, null, null, null], "rewards": [2, -4, 5, 7, 71], "path": ["0", "0", "23", "24", "25", "30", "31"], "rt": [22109, 133, 60, 24, 85], "actions": ["left", "left", "left", "down", "right"], "actionTimes": [23345, 23980, 24543, 25071, 25658], "queries": {"click": {"state": {"target": ["9", "5", "7", "25", "32", "33", "31"], "time": [2047, 5236, 8544, 12274, 13470, 16793, 19940]}, "edge": {"target": [], "time": []}}, "mouseover": {"state": {"target": ["1", "2", "3", "9", "5", "6", "4", "7", "18", "18", "31", "30", "25", "32", "33", "30", "31"], "time": [1566, 1632, 1663, 1911, 2493, 8090, 8260, 8415, 8805, 9840, 11694, 11749, 12191, 13281, 16431, 16958, 17316]}, "edge": {"target": [], "time": []}}, "mouseout": {"state": {"target": ["20", "21", "0", "1", "2", "3", "9", "5", "6", "4", "7", "7", "18", "18", "31", "30", "25", "32", "32", "33", "30", "31"], "time": [409, 439, 1529, 1590, 1638, 1741, 2359, 5418, 8199, 8290, 8549, 8750, 8835, 11603, 11713, 12033, 12512, 13475, 13633, 16922, 16989, 20096]}, "edge": {"target": [], "time": []}}}, "displayed_time": "26.16", "trialTime": 27700, "trial_type": "mouselab-mdp", "trial_index": 41, "time_elapsed": 1267601, "internal_node_id": "0.0-4.0-1.0-32.0"}}, {"uniqueid": "w96997703:a73380414", "current_trial": 42, "dateTime": 1691150240688, "trialdata": {"revealed_states": [], "clicked_states": ["21"], "num_clicks_accrued": [0, 0, 0, 0, 0, 0, 0, 0, 0, 0, 0, 0, 0], "stateRewards": ["", 2, -1, 8, -2, -16, 69, -39, -7, -13, -27, -86, 2, -2, 2, 13, -34, -16, -20, -5, 19, 81, 32, -2, -1, 2, -14, 20, 80, 58, 4, 70, 12, 73], "withholdReward": false, "trial_id": "mdp_trial_34", "block": "test", "trialIndex": 35, "score": 75.85, "costs": -2.15, "simulationMode": [null, null, null, null, null], "rewards": [2, -2, 2, -5, 81], "path": ["0", "0", "12", "13", "14", "19", "21"], "rt": [5087, 49, 102, 90, 256], "actions": ["right", "right", "right", "down", "down"], "actionTimes": [6411, 6967, 7571, 8165, 8924], "queries": {"click": {"state": {"target": ["21"], "time": [2728]}, "edge": {"target": [], "time": []}}, "mouseover": {"state": {"target": ["0", "12", "13", "19", "21", "20", "14", "13", "18", "14"], "time": [1416, 1465, 1525, 2028, 2319, 5596, 5662, 5741, 5850, 6214]}, "edge": {"target": [], "time": []}}, "mouseout": {"state": {"target": ["23", "0", "0", "12", "13", "19", "21", "20", "14", "13", "18", "14"], "time": [628, 1101, 1428, 1501, 1543, 2210, 2876, 5632, 5699, 5747, 5947, 6287]}, "edge": {"target": [], "time": []}}}, "displayed_time": "15.32", "trialTime": 17144, "trial_type": "mouselab-mdp", "trial_index": 42, "time_elapsed": 1284860, "internal_node_id": "0.0-4.0-1.0-33.0"}}, {"uniqueid": "w96997703:a73380414", "current_trial": 43, "dateTime": 1691150265476, "trialdata": {"revealed_states": [], "clicked_states": ["21", "32", "22", "20", "16"], "num_clicks_accrued": [0, 0, 0, 0, 0, 0, 0, 0, 0, 0, 0, 0, 0], "stateRewards": ["", 1, 2, 2, -15, -84, 28, -26, 13, 31, 86, 30, -2, 1, -1, -8, 66, -40, -1, -10, -32, 57, -17, 1, 2, -2, 9, -23, 77, 85, 12, -32, -62, -35], "withholdReward": false, "trial_id": "mdp_trial_35", "block": "test", "trialIndex": 36, "score": 45.25, "costs": -10.75, "simulationMode": [null, null, null, null, null], "rewards": [-2, 1, -1, -8, 66], "path": ["0", "0", "12", "13", "14", "15", "16"], "rt": [18635, 74, 96, 1, 114], "actions": ["right", "right", "right", "up", "up"], "actionTimes": [20740, 21314, 21912, 22416, 23038], "queries": {"click": {"state": {"target": ["21", "32", "22", "20", "16"], "time": [3892, 7224, 10382, 13557, 17193]}, "edge": {"target": [], "time": []}}, "mouseover": {"state": {"target": ["1", "2", "8", "10", "28", "24", "21", "32", "22", "19", "20", "17", "16"], "time": [2351, 2472, 3157, 3236, 3278, 3314, 3672, 5453, 8809, 10602, 10676, 16878, 17029]}, "edge": {"target": [], "time": []}}, "mouseout": {"state": {"target": ["14", "13", "12", "0", "1", "2", "8", "10", "28", "24", "21", "32", "22", "19", "20", "17", "16"], "time": [1473, 1527, 1582, 2242, 2430, 2533, 3212, 3254, 3302, 3320, 4066, 7416, 10566, 10638, 13729, 16908, 17296]}, "edge": {"target": [], "time": []}}}, "displayed_time": "23.54", "trialTime": 24664, "trial_type": "mouselab-mdp", "trial_index": 43, "time_elapsed": 1309648, "internal_node_id": "0.0-4.0-1.0-34.0"}}, {"uniqueid": "w96997703:a73380414", "current_trial": 44, "dateTime": 1691150288157, "trialdata": {"revealed_states": [], "clicked_states": ["11", "6", "21", "22"], "num_clicks_accrued": [0, 0, 0, 0, 0, 0, 0, 0, 0, 0, 0, 0, 0], "stateRewards": ["", -1, 3, -7, 16, -32, -74, -48, 2, 10, 15, -30, 1, 1, -2, 10, 12, -83, 67, 13, -66, 47, 65, -2, 4, 2, -14, -8, -57, 24, 9, 65, 12, 46], "withholdReward": false, "trial_id": "mdp_trial_36", "block": "test", "trialIndex": 37, "score": 69.4, "costs": -8.6, "simulationMode": [null, null, null, null, null], "rewards": [1, 1, -2, 13, 65], "path": ["0", "0", "12", "13", "14", "19", "22"], "rt": [16484, 43, 156, 33, 179], "actions": ["right", "right", "right", "down", "left"], "actionTimes": [17895, 18443, 19100, 19638, 20316], "queries": {"click": {"state": {"target": ["11", "6", "21", "22"], "time": [2790, 6391, 10136, 14273]}, "edge": {"target": [], "time": []}}, "mouseover": {"state": {"target": ["12", "13", "13", "12", "10", "8", "11", "8", "2", "7", "6", "17", "19", "21", "22", "19", "20"], "time": [1552, 1606, 1764, 1848, 2169, 2442, 2551, 2965, 3030, 3066, 6234, 9627, 9808, 9972, 13582, 14460, 14503]}, "edge": {"target": [], "time": []}}, "mouseout": {"state": {"target": ["17", "14", "13", "12", "0", "12", "13", "13", "12", "10", "8", "11", "8", "2", "7", "6", "17", "19", "21", "22", "19", "20"], "time": [510, 564, 606, 703, 903, 1588, 1642, 1824, 1903, 2182, 2504, 2927, 2974, 3054, 3096, 6567, 9645, 9839, 10223, 14436, 14485, 14527]}, "edge": {"target": [], "time": []}}}, "displayed_time": "20.82", "trialTime": 22557, "trial_type": "mouselab-mdp", "trial_index": 44, "time_elapsed": 1332329, "internal_node_id": "0.0-4.0-1.0-35.0"}}, {"uniqueid": "w96997703:a73380414", "current_trial": 45, "dateTime": 1691150306259, "trialdata": {"revealed_states": [], "clicked_states": ["27", "29", "28"], "num_clicks_accrued": [0, 0, 0, 0, 0, 0, 0, 0, 0, 0, 0, 0, 0], "stateRewards": ["", -1, 2, -2, 5, 80, -61, -27, 12, 44, -26, -75, -2, -4, 1, -16, 42, -49, -50, 4, -44, 2, 80, -2, -2, 5, -2, 59, 10, 24, 7, -48, -86, -44], "withholdReward": false, "trial_id": "mdp_trial_37", "block": "test", "trialIndex": 38, "score": 51.55, "costs": -6.449999999999999, "simulationMode": [null, null, null, null, null], "rewards": [-2, -2, 5, -2, 59], "path": ["0", "0", "23", "24", "25", "26", "27"], "rt": [12054, 109, 87, 31, 101], "actions": ["left", "left", "left", "up", "up"], "actionTimes": [13793, 14403, 14993, 15524, 16127], "queries": {"click": {"state": {"target": ["27", "29", "28"], "time": [3179, 7224, 10419]}, "edge": {"target": [], "time": []}}, "mouseover": {"state": {"target": ["24", "26", "27", "10", "29", "26", "28"], "time": [2438, 2601, 2808, 4498, 6909, 7436, 7847]}, "edge": {"target": [], "time": []}}, "mouseout": {"state": {"target": ["20", "19", "12", "0", "24", "26", "27", "10", "29", "26", "28"], "time": [1075, 1160, 1365, 1893, 2462, 2729, 3341, 6521, 7387, 7490, 10543]}, "edge": {"target": [], "time": []}}}, "displayed_time": "16.63", "trialTime": 17975, "trial_type": "mouselab-mdp", "trial_index": 45, "time_elapsed": 1350431, "internal_node_id": "0.0-4.0-1.0-36.0"}}, {"uniqueid": "w96997703:a73380414", "current_trial": 46, "dateTime": 1691150335144, "trialdata": {"revealed_states": [], "clicked_states": ["21", "20", "22", "16", "17", "18"], "num_clicks_accrued": [0, 0, 0, 0, 0, 0, 0, 0, 0, 0, 0, 0, 0], "stateRewards": ["", 2, 3, -1, 6, 44, -4, -59, -14, -3, 64, 16, 1, -3, 3, 6, 3, 49, 19, 3, -49, -14, -86, 1, 2, -3, -8, -33, 14, 32, -13, -77, -47, -67], "withholdReward": false, "trial_id": "mdp_trial_38", "block": "test", "trialIndex": 39, "score": 43.1, "costs": -12.9, "simulationMode": [null, null, null, null, null], "rewards": [1, -3, 3, 6, 49], "path": ["0", "0", "12", "13", "14", "15", "17"], "rt": [23406, 54, 85, 62, 76], "actions": ["right", "right", "right", "up", "right"], "actionTimes": [24462, 25021, 25608, 26174, 26751], "queries": {"click": {"state": {"target": ["21", "20", "22", "16", "17", "18"], "time": [2760, 6244, 9962, 13757, 17244, 20535]}, "edge": {"target": [], "time": []}}, "mouseover": {"state": {"target": ["12", "0", "31", "30", "32", "21", "20", "19", "22", "19", "17", "16", "17", "15", "18", "15"], "time": [1188, 1467, 1588, 1764, 2073, 2533, 6065, 9372, 9499, 10141, 13316, 13504, 17108, 18138, 18429, 20755]}, "edge": {"target": [], "time": []}}, "mouseout": {"state": {"target": ["1", "12", "0", "31", "30", "32", "21", "20", "20", "19", "22", "19", "20", "17", "16", "17", "17", "15", "18", "15", "17"], "time": [631, 1449, 1479, 1715, 1879, 2097, 2927, 6374, 9354, 9433, 10117, 10172, 10220, 13340, 13916, 17435, 18090, 18253, 20713, 20785, 20810]}, "edge": {"target": [], "time": []}}}, "displayed_time": "27.25", "trialTime": 28770, "trial_type": "mouselab-mdp", "trial_index": 46, "time_elapsed": 1379316, "internal_node_id": "0.0-4.0-1.0-37.0"}}, {"uniqueid": "w96997703:a73380414", "current_trial": 47, "dateTime": 1691150384426, "trialdata": {"revealed_states": [], "clicked_states": ["10", "7", "11", "9", "5", "6", "32", "21", "29", "27", "28", "33"], "num_clicks_accrued": [0, 0, 0, 0, 0, 0, 0, 0, 0, 0, 0, 0, 0], "stateRewards": ["", 2, -1, 3, -12, -83, 6, -33, 9, 28, 24, -50, -2, -1, -2, -5, -87, 37, 82, 12, 80, -5, 10, -2, -3, -6, 9, 22, -1, 16, 9, 77, -62, 58], "withholdReward": false, "trial_id": "mdp_trial_39", "block": "test", "trialIndex": 40, "score": 30.200000000000003, "costs": -25.799999999999994, "simulationMode": [null, null, null, null, null], "rewards": [-2, -3, -6, 9, 58], "path": ["0", "0", "23", "24", "25", "30", "33"], "rt": [43282, 385, 150, 117, 121], "actions": ["left", "left", "left", "down", "left"], "actionTimes": [44522, 45413, 46068, 46689, 47311], "queries": {"click": {"state": {"target": ["10", "7", "11", "9", "5", "6", "32", "21", "29", "27", "28", "33"], "time": [2954, 6160, 9605, 12760, 16055, 19428, 22715, 25892, 29549, 33388, 37016, 40788]}, "edge": {"target": [], "time": []}}, "mouseover": {"state": {"target": ["12", "12", "24", "25", "26", "28", "10", "10", "18", "15", "18", "7", "8", "11", "8", "9", "5", "6", "16", "18", "0", "32", "21", "20", "13", "12", "23", "24", "25", "29", "26", "28", "28", "26", "27", "28", "23", "31", "30", "33", "33", "30", "31"], "time": [1418, 1654, 1818, 1878, 1987, 2139, 2211, 2714, 3302, 3381, 3702, 3920, 8310, 9463, 9862, 10214, 14436, 19197, 21384, 21433, 21487, 21820, 23983, 26739, 26812, 28968, 29035, 29071, 29162, 29404, 29725, 29798, 32718, 32803, 33221, 36680, 37419, 40150, 40181, 40411, 40641, 40980, 41065]}, "edge": {"target": [], "time": []}}, "mouseout": {"state": {"target": ["12", "0", "12", "12", "24", "25", "26", "28", "10", "10", "18", "15", "18", "7", "8", "11", "8", "9", "5", "6", "16", "18", "0", "32", "21", "20", "13", "12", "23", "24", "25", "29", "26", "28", "28", "26", "27", "28", "23", "31", "30", "33", "33", "30"], "time": [861, 1363, 1491, 1684, 1836, 1921, 2088, 2163, 2254, 3090, 3350, 3671, 3747, 6331, 9301, 9814, 10111, 12970, 16211, 19615, 21408, 21445, 21505, 22923, 26030, 26763, 26842, 28998, 29053, 29113, 29174, 29671, 29774, 29816, 32760, 32978, 33529, 37158, 40102, 40157, 40241, 40423, 40950, 41035]}, "edge": {"target": [], "time": []}}}, "displayed_time": "47.81", "trialTime": 49162, "trial_type": "mouselab-mdp", "trial_index": 47, "time_elapsed": 1428598, "internal_node_id": "0.0-4.0-1.0-38.0"}}, {"uniqueid": "w96997703:a73380414", "current_trial": 48, "dateTime": 1691150401612, "trialdata": {"revealed_states": [], "clicked_states": ["16"], "num_clicks_accrued": [0, 0, 0, 0, 0, 0, 0, 0, 0, 0, 0, 0, 0], "stateRewards": ["", 2, -1, 5, 8, 75, -35, -77, 1, -9, -81, -58, 1, 2, -7, 5, 77, -16, 19, 16, -10, -18, 40, -2, 3, 7, -5, 64, 1, -62, 10, 27, 10, 65], "withholdReward": false, "trial_id": "mdp_trial_40", "block": "test", "trialIndex": 41, "score": 75.85, "costs": -2.15, "simulationMode": [null, null, null, null, null], "rewards": [1, 2, -7, 5, 77], "path": ["0", "0", "12", "13", "14", "15", "16"], "rt": [5125, 6, 135, 72, 64], "actions": ["right", "right", "right", "up", "up"], "actionTimes": [6414, 6922, 7566, 8139, 8706], "queries": {"click": {"state": {"target": ["16"], "time": [2878]}, "edge": {"target": [], "time": []}}, "mouseover": {"state": {"target": ["12", "13", "13", "15", "16"], "time": [1427, 1499, 2081, 2541, 2681]}, "edge": {"target": [], "time": []}}, "mouseout": {"state": {"target": ["31", "0", "12", "13", "13", "15", "16"], "time": [469, 742, 1463, 1911, 2208, 2578, 3014]}, "edge": {"target": [], "time": []}}}, "displayed_time": "15.29", "trialTime": 17073, "trial_type": "mouselab-mdp", "trial_index": 48, "time_elapsed": 1445784, "internal_node_id": "0.0-4.0-1.0-39.0"}}, {"uniqueid": "w96997703:a73380414", "current_trial": 49, "dateTime": 1691150445074, "trialdata": {"rt": 43459, "response": {"Q0": "$-2 to $2", "Q1": "$-16 to $16", "Q2": "$-88 to $88", "Q3": "The cost for clicking on nodes varied between nodes.", "Q4": "Very motivated"}, "question_order": [0, 1, 2, 3, 4], "trial_id": "final_quiz_control", "trial_type": "survey-multi-choice", "trial_index": 49, "time_elapsed": 1489245, "internal_node_id": "0.0-4.0-2.0"}}, {"uniqueid": "w96997703:a73380414", "current_trial": 50, "dateTime": 1691150623985, "trialdata": {"rt": 178908, "response": {"Q0": "Try to to find the most profitable routes through the nodes and get to the most profitable exit node using the least reveals.", "Q1": "I was spending a lot on revealing nodes so I changed to just selecting exit nodes and choosing the path to that node without revealing nodes in between to cut the cost of revealing unnecessary nodes.", "Q2": "It was difficult to improve because there was a large amount of guesswork and luck involved that I had no control over."}, "trial_id": "self_report_control", "trial_type": "survey-text", "trial_index": 50, "time_elapsed": 1668157, "internal_node_id": "0.0-4.0-3.0"}}, {"uniqueid": "w96997703:a73380414", "current_trial": 51, "dateTime": 1691150687944, "trialdata": {"rt": 63956, "response": {"Q0": "Neither disagree nor agree", "Q1": "Disagree", "Q2": "Agree", "Q3": "Strongly agree", "Q4": "Strongly disagree", "Q5": "Strongly agree", "Q6": "Strongly disagree"}, "question_order": [0, 1, 2, 3, 4, 5, 6], "trial_id": "self_report_2", "trial_type": "survey-multi-choice", "trial_index": 51, "time_elapsed": 1732116, "internal_node_id": "0.0-4.0-4.0"}}, {"uniqueid": "w96997703:a73380414", "current_trial": 52, "dateTime": 1691150712858, "trialdata": {"rt": 24911, "response": {"gender": "male", "age": "47", "colorblind": "0", "effort": "0"}, "trial_type": "survey-html-form", "trial_index": 52, "time_elapsed": 1757030, "internal_node_id": "0.0-4.0-5.0"}}, {"uniqueid": "w96997703:a73380414", "current_trial": 53, "dateTime": 1691150771817, "trialdata": {"rt": 58957, "response": {"Q0": "No, was everything clearly explained.", "Q1": "No.", "Q2": "N/A"}, "trial_type": "survey-text", "trial_index": 53, "time_elapsed": 1815989, "internal_node_id": "0.0-4.0-6.0"}}, {"uniqueid": "w96997703:a73380414", "current_trial": 54, "dateTime": 1691150778059, "trialdata": {"rt": 6239, "stimulus": "Press 'Finish HIT' in order to reach the completion code. Once the data has been saved, you will receive the code either in this window or in the original browser window where you started the experiment.\n", "response": 0, "trial_type": "html-button-response", "trial_index": 54, "time_elapsed": 1822231, "internal_node_id": "0.0-5.0"}}, {"uniqueid": "w96997703:a73380414", "current_trial": 55, "dateTime": 1691150779060, "trialdata": {"success": true, "trial_type": "fullscreen", "trial_index": 55, "time_elapsed": 1823232, "internal_node_id": "0.0-6.0"}}], "questiondata": {"params": {"CODE": "C6DMOQA6", "MIN_TIME": 14, "inspectCost": 1, "startTime": "Fri Aug 04 2023 12:35:55 GMT+0100 (British Summer Time)", "bonusRate": 0.002, "variance": "1_2_4_8_44", "branching": "31123"}, "final_score": 1944.2}, "eventdata": [{"eventtype": "initialized", "value": null, "timestamp": 1691148954755, "interval": 0}, {"eventtype": "window_resize", "value": [1028, 778], "timestamp": 1691148954755, "interval": 0}, {"eventtype": "window_resize", "value": [1028, 778], "timestamp": 1691148955065, "interval": 310}, {"eventtype": "window_resize", "value": [2048, 1152], "timestamp": 1691148958539, "interval": 3474}, {"eventtype": "window_resize", "value": [1028, 778], "timestamp": 1691150778278, "interval": 1819739}], "useragent": "Mozilla/5.0 (Windows NT 10.0; Win64; x64) AppleWebKit/537.36 (KHTML, like Gecko) Chrome/115.0.0.0 Safari/537.36", "mode": "live", "id": "w96997703:a73380414", "status": "user data saved", "Beginhit": "2023-08-04 11:35:55.034645", "Beginexp": "2023-08-04 11:36:00.599369", "Endhit": "2023-08-04 12:06:20.77971", "psiturkStatus": 3, "browser": "<redacted>", "platform": "windows", "language": "en-GB"}