{"condition": 0, "counterbalance": 0, "assignmentId": "a89046792", "workerId": "w20584059", "hitId": "h22508690", "currenttrial": 55, "bonus": 0, "data": [{"uniqueid": "w20584059:a89046792", "current_trial": 0, "dateTime": 1691159486743, "trialdata": {"success": true, "trial_type": "fullscreen", "trial_index": 0, "time_elapsed": 12603, "internal_node_id": "0.0-0.0"}}, {"uniqueid": "w20584059:a89046792", "current_trial": 1, "dateTime": 1691159583685, "trialdata": {"view_history": [{"page_index": 0, "viewing_time": 96936}], "rt": 96937, "trial_id": "exp_instructions_control", "trial_type": "instructions", "trial_index": 1, "time_elapsed": 109545, "internal_node_id": "0.0-1.0"}}, {"uniqueid": "w20584059:a89046792", "current_trial": 2, "dateTime": 1691159587659, "trialdata": {"success": true, "trial_type": "fullscreen", "trial_index": 2, "time_elapsed": 113519, "internal_node_id": "0.0-2.0-0.0"}}, {"uniqueid": "w20584059:a89046792", "current_trial": 3, "dateTime": 1691159940475, "trialdata": {"view_history": [{"page_index": 0, "viewing_time": 154590}, {"page_index": 1, "viewing_time": 124440}, {"page_index": 2, "viewing_time": 26208}, {"page_index": 3, "viewing_time": 47584}], "rt": 352822, "trial_id": "mouselab_instructions_1_control", "trial_type": "instructions", "trial_index": 3, "time_elapsed": 466335, "internal_node_id": "0.0-2.0-1.0"}}, {"uniqueid": "w20584059:a89046792", "current_trial": 4, "dateTime": 1691159974800, "trialdata": {"revealed_states": [], "clicked_states": ["26", "15", "3"], "num_clicks_accrued": [0, 0, 0, 0, 0, 0, 0, 0, 0, 0, 0, 0, 0], "stateRewards": ["", 10, 10, -10, -10, 10, 10, -10, -10, -10, -10, -10, 10, 10, 10, 10, -10, 10, -10, -10, -10, 10, 10, 10, 10, 10, 10, -10, 10, 10, -10, 10, -10, 10], "withholdReward": false, "trial_id": "practice_1", "block": "test", "trialIndex": 0, "score": 32, "costs": -1.5, "simulationMode": [null, null, null, null, null], "rewards": [10, 10, 10, 10, -10], "path": ["0", "0", "12", "13", "14", "15", "16"], "rt": [16568, 310, 606, 1043, 219], "actions": ["right", "right", "right", "up", "up"], "actionTimes": [22126, 22935, 24060, 25612, 26350], "queries": {"click": {"state": {"target": ["26", "15", "3"], "time": [11660, 14258, 15866]}, "edge": {"target": [], "time": []}}, "mouseover": {"state": {"target": ["23", "26", "25", "24", "23", "12", "13", "15", "14", "13", "12", "1", "2", "3", "2", "1", "0", "0", "22", "21", "12", "0"], "time": [10602, 10932, 12546, 12776, 12826, 12911, 12960, 13275, 15073, 15123, 15205, 15254, 15292, 15338, 16818, 16900, 17219, 17316, 17649, 17866, 19227, 20363]}, "edge": {"target": [], "time": []}}, "mouseout": {"state": {"target": ["0", "23", "26", "25", "24", "23", "12", "13", "15", "14", "13", "12", "1", "2", "3", "2", "1", "0", "0", "22", "21", "12", "0"], "time": [10584, 10616, 12463, 12563, 12811, 12864, 12945, 13080, 15045, 15091, 15140, 15223, 15276, 15322, 16786, 16868, 17035, 17238, 17399, 17717, 18865, 19994, 29921]}, "edge": {"target": [], "time": []}}}, "displayed_time": "26.86", "trialTime": 32861, "trial_type": "mouselab-mdp", "trial_index": 4, "time_elapsed": 500596, "internal_node_id": "0.0-2.0-2.0-0.0"}}, {"uniqueid": "w20584059:a89046792", "current_trial": 5, "dateTime": 1691160013237, "trialdata": {"revealed_states": [], "clicked_states": ["26", "15", "8", "4"], "num_clicks_accrued": [0, 0, 0, 0, 0, 0, 0, 0, 0, 0, 0, 0, 0], "stateRewards": ["", -10, 10, -10, 10, -10, 10, -10, -10, 10, 10, 10, 10, 10, -10, 10, 10, -10, -10, -10, -10, -10, -10, -10, 10, -10, 10, 10, 10, -10, -10, -10, 10, -10], "withholdReward": false, "trial_id": "practice_2", "block": "test", "trialIndex": 1, "score": 11.5, "costs": -2, "simulationMode": [null, null, null, null, null], "rewards": [-10, 10, -10, 10, 10], "path": ["0", "0", "23", "24", "25", "26", "27"], "rt": [13626, 96, 6973, 1698, 376], "actions": ["left", "left", "left", "up", "up"], "actionTimes": [20265, 20888, 28380, 30601, 31491], "queries": {"click": {"state": {"target": ["26", "15", "8", "4"], "time": [8108, 9956, 12419, 14332]}, "edge": {"target": [], "time": []}}, "mouseover": {"state": {"target": ["28", "26", "28", "3", "4", "6", "16", "15", "15", "13", "12", "12", "2", "3", "8", "4", "4", "7", "0"], "time": [7654, 7786, 8667, 8767, 9166, 9248, 9334, 9417, 9703, 10346, 10446, 11575, 11661, 11925, 12025, 12973, 14021, 14753, 15881]}, "edge": {"target": [], "time": []}}, "mouseout": {"state": {"target": ["0", "28", "26", "28", "3", "4", "6", "16", "15", "15", "13", "12", "12", "2", "3", "8", "4", "4", "7"], "time": [7471, 7669, 8535, 8685, 9122, 9215, 9263, 9367, 9582, 10263, 10397, 11002, 11610, 11725, 11991, 12774, 13140, 14735, 14818]}, "edge": {"target": [], "time": []}}}, "displayed_time": "32.01", "trialTime": 38012, "trial_type": "mouselab-mdp", "trial_index": 5, "time_elapsed": 539072, "internal_node_id": "0.0-2.0-2.0-1.0"}}, {"uniqueid": "w20584059:a89046792", "current_trial": 6, "dateTime": 1691160090791, "trialdata": {"view_history": [{"page_index": 0, "viewing_time": 62720}, {"page_index": 1, "viewing_time": 14832}], "rt": 77552, "trial_id": "mouselab_instructions_2_control", "trial_type": "instructions", "trial_index": 6, "time_elapsed": 616651, "internal_node_id": "0.0-2.0-3.0"}}, {"uniqueid": "w20584059:a89046792", "current_trial": 7, "dateTime": 1691160142038, "trialdata": {"rt": 51221, "response": {"Q0": "The cost for clicking on nodes may vary between nodes.", "Q1": "The better I perform the higher my bonus will be.", "Q2": "No, the amount of cash at each node of the web may be different each time.", "Q3": "To get the highest total score.", "Q4": "Only before moving the spider.", "Q5": "3 seconds"}, "question_order": [0, 1, 2, 3, 4, 5], "correct": {"Q0": "The cost for clicking on nodes may vary between nodes.", "Q1": "The better I perform the higher my bonus will be.", "Q2": "No, the amount of cash at each node of the web may be different each time.", "Q3": "To get the highest total score.", "Q4": "Only before moving the spider.", "Q5": "3 seconds"}, "trial_id": "mouselab_quiz_control", "trial_type": "survey-multi-choice", "trial_index": 7, "time_elapsed": 667898, "internal_node_id": "0.0-2.0-4.0"}}, {"uniqueid": "w20584059:a89046792", "current_trial": 8, "dateTime": 1691160163090, "trialdata": {"rt": 21044, "stimulus": "\n<h1> Get ready to start the game! </h1>\n\nThank you for reading the instructions. Get ready start with the 40 rounds of this game.\n<br><br>\nIf you need to take a break, feel free to take one after the end of a round, before continuing to the next one.\n<br><br>\nRemember, the more money the spider gets, the bigger your bonus will be!\n<br><br>\n<div style='text-align: center;'>Press <code>space</code> to begin.</div>\n\n<br><br>\n(If, at any point, the <code>space</code> key does not take you to the next page, click once on the text and try again.)", "response": " ", "trial_id": "mdp_ready", "trial_type": "html-keyboard-response", "trial_index": 8, "time_elapsed": 688949, "internal_node_id": "0.0-4.0-0.0"}}, {"uniqueid": "w20584059:a89046792", "current_trial": 9, "dateTime": 1691160190670, "trialdata": {"revealed_states": [], "clicked_states": ["9"], "num_clicks_accrued": [0, 0, 0, 0, 0, 0, 0, 0, 0, 0, 0, 0, 0], "stateRewards": ["", -1, 2, -6, 6, 43, 78, 78, -2, 55, -29, -17, -2, -4, 1, -15, 13, 7, -79, 8, -28, -68, 36, -1, -3, 3, -16, 84, -18, 87, 10, 32, 13, -81], "withholdReward": false, "trial_id": "mdp_trial_1", "block": "test", "trialIndex": 2, "score": 46.6, "costs": -1.4, "simulationMode": [null, null, null, null, null], "rewards": [-1, 2, -6, -2, 55], "path": ["0", "0", "1", "2", "3", "8", "9"], "rt": [6726, 316, 162, 474, 2236], "actions": ["up", "up", "up", "left", "up"], "actionTimes": [10573, 11406, 12083, 13075, 15835], "queries": {"click": {"state": {"target": ["9"], "time": [5426]}, "edge": {"target": [], "time": []}}, "mouseover": {"state": {"target": ["1", "2", "8", "9", "4", "6", "15", "20", "19", "22", "12", "0"], "time": [4636, 4684, 4886, 5017, 6117, 6149, 6247, 6613, 9059, 9173, 9324, 9390]}, "edge": {"target": [], "time": []}}, "mouseout": {"state": {"target": ["0", "1", "2", "8", "9", "4", "6", "15", "20", "19", "22", "12", "0"], "time": [4605, 4670, 4717, 4901, 5882, 6132, 6165, 6282, 9024, 9124, 9207, 9357, 9440]}, "edge": {"target": [], "time": []}}}, "displayed_time": "17.85", "trialTime": 27133, "trial_type": "mouselab-mdp", "trial_index": 9, "time_elapsed": 716502, "internal_node_id": "0.0-4.0-1.0-0.0"}}, {"uniqueid": "w20584059:a89046792", "current_trial": 10, "dateTime": 1691160213669, "trialdata": {"revealed_states": [], "clicked_states": ["21", "32", "5"], "num_clicks_accrued": [0, 0, 0, 0, 0, 0, 0, 0, 0, 0, 0, 0, 0], "stateRewards": ["", 2, 3, -3, 4, 72, -28, 34, -12, 57, -64, -15, 2, 1, -4, -15, 2, 49, 31, -1, -42, -58, 31, -2, 1, -2, -13, -75, -19, -22, -6, 61, 10, -56], "withholdReward": false, "trial_id": "mdp_trial_2", "block": "test", "trialIndex": 3, "score": 73.8, "costs": -4.199999999999999, "simulationMode": [null, null, null, null, null], "rewards": [2, 3, -3, 4, 72], "path": ["0", "0", "1", "2", "3", "4", "5"], "rt": [10837, 15, 746, 647, 907], "actions": ["up", "up", "up", "right", "up"], "actionTimes": [12946, 13477, 14755, 15921, 17345], "queries": {"click": {"state": {"target": ["21", "32", "5"], "time": [3121, 6110, 9766]}, "edge": {"target": [], "time": []}}, "mouseover": {"state": {"target": ["22", "19", "21", "32", "1", "5", "4", "1"], "time": [2552, 2586, 2786, 4032, 8606, 9103, 10152, 12097]}, "edge": {"target": [], "time": []}}, "mouseout": {"state": {"target": ["0", "0", "22", "19", "21", "32", "1", "5", "4", "1"], "time": [1513, 2485, 2568, 2636, 3449, 6458, 8619, 10117, 10252, 12179]}, "edge": {"target": [], "time": []}}}, "displayed_time": "17.87", "trialTime": 22620, "trial_type": "mouselab-mdp", "trial_index": 10, "time_elapsed": 739528, "internal_node_id": "0.0-4.0-1.0-1.0"}}, {"uniqueid": "w20584059:a89046792", "current_trial": 11, "dateTime": 1691160241830, "trialdata": {"revealed_states": [], "clicked_states": ["9"], "num_clicks_accrued": [0, 0, 0, 0, 0, 0, 0, 0, 0, 0, 0, 0, 0], "stateRewards": ["", -2, -1, -2, -15, 87, 57, 29, -10, 77, -80, -7, 1, -3, 6, 14, -11, 87, -59, 4, -71, 16, -11, 2, 2, -7, 2, -47, 61, 50, 14, -20, 17, 81], "withholdReward": false, "trial_id": "mdp_trial_3", "block": "test", "trialIndex": 4, "score": 60.6, "costs": -1.4, "simulationMode": [null, null, null, null, null], "rewards": [-2, -1, -2, -10, 77], "path": ["0", "0", "1", "2", "3", "8", "9"], "rt": [6678, 31, 146, 464, 739], "actions": ["up", "up", "up", "left", "up"], "actionTimes": [9711, 10265, 10942, 11927, 13182], "queries": {"click": {"state": {"target": ["9"], "time": [4959]}, "edge": {"target": [], "time": []}}, "mouseover": {"state": {"target": ["1", "2", "3", "9", "8", "26", "29", "30", "25", "26", "27", "24", "23", "0", "0"], "time": [3930, 3977, 4011, 4561, 5475, 5724, 5842, 6007, 6141, 6190, 6807, 7270, 7337, 7389, 7671]}, "edge": {"target": [], "time": []}}, "mouseout": {"state": {"target": ["0", "0", "1", "2", "3", "9", "8", "26", "29", "30", "25", "26", "27", "24", "23", "0"], "time": [1101, 3898, 3945, 3994, 4483, 5425, 5509, 5809, 5861, 6123, 6158, 6257, 7153, 7305, 7352, 7435]}, "edge": {"target": [], "time": []}}}, "displayed_time": "17.04", "trialTime": 27799, "trial_type": "mouselab-mdp", "trial_index": 11, "time_elapsed": 767690, "internal_node_id": "0.0-4.0-1.0-2.0"}}, {"uniqueid": "w20584059:a89046792", "current_trial": 12, "dateTime": 1691160268454, "trialdata": {"revealed_states": [], "clicked_states": ["32", "21", "16", "27", "9"], "num_clicks_accrued": [0, 0, 0, 0, 0, 0, 0, 0, 0, 0, 0, 0, 0], "stateRewards": ["", -1, 1, -5, -6, -78, 47, -13, 12, 48, -88, 20, 2, -3, -2, 13, -20, 37, -57, 14, -38, 30, 31, -2, -2, 8, 2, -23, 78, 28, 12, -74, -88, 8], "withholdReward": false, "trial_id": "mdp_trial_4", "block": "test", "trialIndex": 5, "score": -96, "costs": -7, "simulationMode": [null, null, null, null, null], "rewards": [-1, 1, -5, -6, -78], "path": ["0", "0", "1", "2", "3", "4", "5"], "rt": [15164, 115, 97, 659, 599], "actions": ["up", "up", "up", "right", "up"], "actionTimes": [16582, 17207, 17821, 18997, 20117], "queries": {"click": {"state": {"target": ["32", "21", "16", "27", "9"], "time": [2543, 5063, 7343, 10167, 12839]}, "edge": {"target": [], "time": []}}, "mouseover": {"state": {"target": ["31", "32", "21", "19", "14", "15", "16", "16", "18", "0", "28", "26", "26", "27", "28", "10", "9", "2"], "time": [1959, 2122, 3371, 5783, 5816, 5850, 5898, 6164, 7927, 8276, 9505, 9689, 9840, 9905, 10687, 12299, 12599, 14527]}, "edge": {"target": [], "time": []}}, "mouseout": {"state": {"target": ["0", "31", "32", "21", "19", "14", "15", "16", "16", "16", "18", "0", "28", "26", "26", "27", "28", "10", "9", "2", "1", "0"], "time": [1841, 1974, 2824, 5748, 5801, 5834, 5867, 5998, 7402, 7860, 7945, 9372, 9522, 9741, 9856, 10488, 10780, 12333, 13266, 14727, 25120, 25319]}, "edge": {"target": [], "time": []}}}, "displayed_time": "20.63", "trialTime": 26231, "trial_type": "mouselab-mdp", "trial_index": 12, "time_elapsed": 794314, "internal_node_id": "0.0-4.0-1.0-3.0"}}, {"uniqueid": "w20584059:a89046792", "current_trial": 13, "dateTime": 1691160288217, "trialdata": {"revealed_states": [], "clicked_states": ["5", "32"], "num_clicks_accrued": [0, 0, 0, 0, 0, 0, 0, 0, 0, 0, 0, 0, 0], "stateRewards": ["", 2, -3, -4, -1, 25, -16, 16, 10, -71, -20, -55, 1, 3, -4, -9, 1, 32, 11, -6, 32, -50, -41, -1, 4, 4, -8, 7, -81, 70, 2, -52, 45, -10], "withholdReward": false, "trial_id": "mdp_trial_5", "block": "test", "trialIndex": 6, "score": 51.2, "costs": -2.8, "simulationMode": [null, null, null, null, null], "rewards": [-1, 4, 4, 2, 45], "path": ["0", "0", "23", "24", "25", "30", "32"], "rt": [8154, 68, 631, 449, 255], "actions": ["left", "left", "left", "down", "down"], "actionTimes": [10188, 10781, 11925, 12891, 13661], "queries": {"click": {"state": {"target": ["5", "32"], "time": [3177, 5816]}, "edge": {"target": [], "time": []}}, "mouseover": {"state": {"target": ["0", "1", "9", "5", "4", "2", "24", "32", "21", "0"], "time": [2057, 2462, 2611, 2827, 3629, 3962, 4092, 4308, 6339, 9349]}, "edge": {"target": [], "time": []}}, "mouseout": {"state": {"target": ["0", "0", "1", "9", "5", "4", "2", "24", "32", "21"], "time": [934, 2081, 2479, 2746, 3561, 3710, 3979, 4143, 6023, 9034]}, "edge": {"target": [], "time": []}}}, "displayed_time": "16.04", "trialTime": 19348, "trial_type": "mouselab-mdp", "trial_index": 13, "time_elapsed": 814076, "internal_node_id": "0.0-4.0-1.0-4.0"}}, {"uniqueid": "w20584059:a89046792", "current_trial": 14, "dateTime": 1691160314253, "trialdata": {"revealed_states": [], "clicked_states": ["5", "16", "32", "27", "21", "9"], "num_clicks_accrued": [0, 0, 0, 0, 0, 0, 0, 0, 0, 0, 0, 0, 0], "stateRewards": ["", -2, 2, -4, -4, -59, 88, 62, -3, 69, -15, -34, 1, -2, -5, 7, -54, -20, 78, -16, -74, -53, -21, 2, -4, 2, 13, -8, -44, 26, 9, 72, 4, 17], "withholdReward": false, "trial_id": "mdp_trial_6", "block": "test", "trialIndex": 7, "score": 53.6, "costs": -8.4, "simulationMode": [null, null, null, null, null], "rewards": [-2, 2, -4, -3, 69], "path": ["0", "0", "1", "2", "3", "8", "9"], "rt": [17568, 74, 162, 375, 485], "actions": ["up", "up", "up", "left", "up"], "actionTimes": [19482, 20075, 20761, 21657, 22665], "queries": {"click": {"state": {"target": ["5", "16", "32", "27", "21", "9"], "time": [3018, 6233, 9425, 12001, 14233, 16808]}, "edge": {"target": [], "time": []}}, "mouseover": {"state": {"target": ["7", "4", "5", "4", "2", "23", "24", "33", "30", "31", "14", "17", "17", "16", "15", "14", "22", "32", "27", "28", "21", "13", "9", "9", "8", "1"], "time": [2326, 2362, 2440, 3589, 3716, 3888, 3938, 4055, 5152, 5185, 5299, 5516, 5732, 5883, 6516, 6583, 6733, 8777, 11635, 12235, 12617, 16339, 16409, 16540, 17042, 17125]}, "edge": {"target": [], "time": []}}, "mouseout": {"state": {"target": ["0", "0", "7", "4", "5", "4", "2", "23", "24", "33", "30", "31", "14", "17", "17", "16", "15", "14", "22", "32", "27", "28", "21", "21", "13", "9", "9", "8", "1", "0"], "time": [493, 2261, 2357, 2392, 3538, 3640, 3733, 3906, 3973, 5138, 5170, 5202, 5335, 5532, 5833, 6482, 6565, 6632, 6881, 9823, 12202, 12254, 14996, 16323, 16359, 16442, 17013, 17061, 17423, 24222]}, "edge": {"target": [], "time": []}}}, "displayed_time": "23.18", "trialTime": 25625, "trial_type": "mouselab-mdp", "trial_index": 14, "time_elapsed": 840112, "internal_node_id": "0.0-4.0-1.0-5.0"}}, {"uniqueid": "w20584059:a89046792", "current_trial": 15, "dateTime": 1691160333025, "trialdata": {"revealed_states": [], "clicked_states": ["5"], "num_clicks_accrued": [0, 0, 0, 0, 0, 0, 0, 0, 0, 0, 0, 0, 0], "stateRewards": ["", -1, 3, 2, 9, 41, 4, -46, -12, -54, -87, -25, 2, 3, -1, 11, -77, 12, -33, -9, -32, 35, 72, 1, 3, -7, 4, 37, 65, -73, 6, 77, -43, 8], "withholdReward": false, "trial_id": "mdp_trial_7", "block": "test", "trialIndex": 8, "score": 52.6, "costs": -1.4, "simulationMode": [null, null, null, null, null], "rewards": [-1, 3, 2, 9, 41], "path": ["0", "0", "1", "2", "3", "4", "5"], "rt": [5235, 116, 153, 542, 600], "actions": ["up", "up", "up", "right", "up"], "actionTimes": [7260, 7893, 8563, 9619, 10739], "queries": {"click": {"state": {"target": ["5"], "time": [3808]}, "edge": {"target": [], "time": []}}, "mouseover": {"state": {"target": ["1", "2", "9", "5", "3", "27"], "time": [2689, 2736, 2973, 3500, 4267, 4649]}, "edge": {"target": [], "time": []}}, "mouseout": {"state": {"target": ["0", "1", "2", "9", "5", "3", "27"], "time": [2651, 2721, 2772, 3287, 4234, 4284, 6362]}, "edge": {"target": [], "time": []}}}, "displayed_time": "16.03", "trialTime": 18356, "trial_type": "mouselab-mdp", "trial_index": 15, "time_elapsed": 858885, "internal_node_id": "0.0-4.0-1.0-6.0"}}, {"uniqueid": "w20584059:a89046792", "current_trial": 16, "dateTime": 1691160351670, "trialdata": {"revealed_states": [], "clicked_states": ["21"], "num_clicks_accrued": [0, 0, 0, 0, 0, 0, 0, 0, 0, 0, 0, 0, 0], "stateRewards": ["", 1, 1, -2, 7, -31, -6, 76, 1, -36, -16, -53, 2, 1, 7, 13, -47, -10, 47, -7, 72, 46, -56, -2, -2, -2, 11, -80, 44, 38, 16, 67, 85, -78], "withholdReward": false, "trial_id": "mdp_trial_8", "block": "test", "trialIndex": 9, "score": 47.6, "costs": -1.4, "simulationMode": [null, null, null, null, null], "rewards": [2, 1, 7, -7, 46], "path": ["0", "0", "12", "13", "14", "19", "21"], "rt": [4388, 603, 299, 226, 320], "actions": ["right", "right", "right", "down", "down"], "actionTimes": [6259, 7386, 8197, 8938, 9780], "queries": {"click": {"state": {"target": ["21"], "time": [2901]}, "edge": {"target": [], "time": []}}, "mouseover": {"state": {"target": ["22", "21"], "time": [2375, 2559]}, "edge": {"target": [], "time": []}}, "mouseout": {"state": {"target": ["28", "0", "0", "22", "21"], "time": [743, 1042, 2310, 2408, 3121]}, "edge": {"target": [], "time": []}}}, "displayed_time": "15.88", "trialTime": 18230, "trial_type": "mouselab-mdp", "trial_index": 16, "time_elapsed": 877530, "internal_node_id": "0.0-4.0-1.0-7.0"}}, {"uniqueid": "w20584059:a89046792", "current_trial": 17, "dateTime": 1691160370706, "trialdata": {"revealed_states": [], "clicked_states": ["27", "16", "32", "21"], "num_clicks_accrued": [0, 0, 0, 0, 0, 0, 0, 0, 0, 0, 0, 0, 0], "stateRewards": ["", 2, 4, 7, -6, -76, -81, 2, 5, -66, -3, 36, -2, -4, 6, -2, -69, 4, -49, -6, 67, 38, -67, 2, 1, 1, 6, -68, -21, 52, -16, -16, 6, -70], "withholdReward": false, "trial_id": "mdp_trial_9", "block": "test", "trialIndex": 10, "score": 26.4, "costs": -5.6, "simulationMode": [null, null, null, null, null], "rewards": [-2, -4, 6, -6, 38], "path": ["0", "0", "12", "13", "14", "19", "21"], "rt": [11596, 83, 53, 473, 213], "actions": ["right", "right", "right", "down", "down"], "actionTimes": [12978, 13587, 14160, 15160, 15883], "queries": {"click": {"state": {"target": ["27", "16", "32", "21"], "time": [2349, 4347, 7148, 9363]}, "edge": {"target": [], "time": []}}, "mouseover": {"state": {"target": ["28", "27", "10", "2", "7", "16", "18", "13", "12", "32", "21", "21", "13", "7", "3", "9", "3"], "time": [1834, 1916, 2715, 2738, 2758, 2835, 4779, 4830, 5010, 6906, 7470, 7953, 9632, 9683, 9750, 9998, 11878]}, "edge": {"target": [], "time": []}}, "mouseout": {"state": {"target": ["0", "0", "28", "27", "10", "2", "7", "16", "18", "13", "12", "32", "21", "21", "13", "7", "3", "9", "3"], "time": [633, 1749, 1850, 2666, 2734, 2752, 2775, 4717, 4796, 4849, 6355, 7354, 7504, 9565, 9649, 9700, 9897, 11828, 11912]}, "edge": {"target": [], "time": []}}}, "displayed_time": "16.40", "trialTime": 18584, "trial_type": "mouselab-mdp", "trial_index": 17, "time_elapsed": 896565, "internal_node_id": "0.0-4.0-1.0-8.0"}}, {"uniqueid": "w20584059:a89046792", "current_trial": 18, "dateTime": 1691160390035, "trialdata": {"revealed_states": [], "clicked_states": ["9"], "num_clicks_accrued": [0, 0, 0, 0, 0, 0, 0, 0, 0, 0, 0, 0, 0], "stateRewards": ["", -2, -2, -7, -13, -10, 49, -68, -1, 84, 70, 88, 1, 4, 4, 12, -57, 25, 30, 8, -1, -77, 57, 2, 3, 2, 3, -18, -80, 23, -15, -41, 70, 11], "withholdReward": false, "trial_id": "mdp_trial_10", "block": "test", "trialIndex": 11, "score": 70.6, "costs": -1.4, "simulationMode": [null, null, null, null, null], "rewards": [-2, -2, -7, -1, 84], "path": ["0", "0", "1", "2", "3", "8", "9"], "rt": [3925, 567, 57, 338, 586], "actions": ["up", "up", "up", "left", "up"], "actionTimes": [6397, 7476, 8046, 8908, 10005], "queries": {"click": {"state": {"target": ["9"], "time": [3345]}, "edge": {"target": [], "time": []}}, "mouseover": {"state": {"target": ["1", "2", "9", "5", "4", "1"], "time": [2818, 2851, 3114, 4232, 5610, 5695]}, "edge": {"target": [], "time": []}}, "mouseout": {"state": {"target": ["0", "1", "2", "9", "5", "4"], "time": [2764, 2835, 2868, 4097, 5593, 5642]}, "edge": {"target": [], "time": []}}}, "displayed_time": "16.48", "trialTime": 18910, "trial_type": "mouselab-mdp", "trial_index": 18, "time_elapsed": 915894, "internal_node_id": "0.0-4.0-1.0-9.0"}}, {"uniqueid": "w20584059:a89046792", "current_trial": 19, "dateTime": 1691160425964, "trialdata": {"revealed_states": [], "clicked_states": ["5"], "num_clicks_accrued": [0, 0, 0, 0, 0, 0, 0, 0, 0, 0, 0, 0, 0], "stateRewards": ["", 1, 3, -2, 15, 51, 15, -19, 11, 67, -45, -73, 2, 4, -2, -13, 36, 9, -28, 10, -30, 31, 16, 1, 2, -1, -16, 14, -22, 36, -1, 88, -5, 45], "withholdReward": false, "trial_id": "mdp_trial_11", "block": "test", "trialIndex": 12, "score": 66.6, "costs": -1.4, "simulationMode": [null, null, null, null, null], "rewards": [1, 3, -2, 15, 51], "path": ["0", "0", "1", "2", "3", "4", "5"], "rt": [4203, 27, 17, 443, 584], "actions": ["up", "up", "up", "right", "up"], "actionTimes": [5948, 6494, 7051, 8027, 9132], "queries": {"click": {"state": {"target": ["5"], "time": [2695]}, "edge": {"target": [], "time": []}}, "mouseover": {"state": {"target": ["4", "5", "4"], "time": [1795, 2267, 3140]}, "edge": {"target": [], "time": []}}, "mouseout": {"state": {"target": ["1", "0", "4", "5", "4", "0"], "time": [992, 1764, 1827, 3091, 3158, 10640]}, "edge": {"target": [], "time": []}}}, "displayed_time": "15.75", "trialTime": 35494, "trial_type": "mouselab-mdp", "trial_index": 19, "time_elapsed": 951823, "internal_node_id": "0.0-4.0-1.0-10.0"}}, {"uniqueid": "w20584059:a89046792", "current_trial": 20, "dateTime": 1691160443725, "trialdata": {"revealed_states": [], "clicked_states": ["27", "16"], "num_clicks_accrued": [0, 0, 0, 0, 0, 0, 0, 0, 0, 0, 0, 0, 0], "stateRewards": ["", -1, -2, -8, 8, -27, -82, 19, -14, -62, 4, 1, -2, 2, 6, 10, 73, -51, -2, 2, 73, -48, 54, -1, 2, -4, 11, -25, 47, 86, 15, 33, 43, -42], "withholdReward": false, "trial_id": "mdp_trial_12", "block": "test", "trialIndex": 13, "score": 86.2, "costs": -2.8, "simulationMode": [null, null, null, null, null], "rewards": [-2, 2, 6, 10, 73], "path": ["0", "0", "12", "13", "14", "15", "16"], "rt": [6322, 569, 476, 384, 112], "actions": ["right", "right", "right", "up", "up"], "actionTimes": [7722, 8802, 9789, 10698, 11333], "queries": {"click": {"state": {"target": ["27", "16"], "time": [2631, 4544]}, "edge": {"target": [], "time": []}}, "mouseover": {"state": {"target": ["28", "27", "10", "2", "16", "16", "15", "18", "5", "4", "7"], "time": [2011, 2394, 2856, 2885, 2928, 3394, 4989, 5388, 5553, 6714, 6783]}, "edge": {"target": [], "time": []}}, "mouseout": {"state": {"target": ["0", "28", "27", "10", "2", "16", "16", "15", "18", "5", "4", "7"], "time": [1912, 2326, 2836, 2880, 2909, 2945, 4922, 5037, 5404, 6549, 6750, 6800]}, "edge": {"target": [], "time": []}}}, "displayed_time": "15.41", "trialTime": 17225, "trial_type": "mouselab-mdp", "trial_index": 20, "time_elapsed": 969585, "internal_node_id": "0.0-4.0-1.0-11.0"}}, {"uniqueid": "w20584059:a89046792", "current_trial": 21, "dateTime": 1691160461851, "trialdata": {"revealed_states": [], "clicked_states": ["21", "32"], "num_clicks_accrued": [0, 0, 0, 0, 0, 0, 0, 0, 0, 0, 0, 0, 0], "stateRewards": ["", -1, 2, 6, 11, 21, -21, -21, -6, 48, -71, 88, -1, -3, 3, 7, 64, 2, 9, -4, 37, -67, 72, 2, 2, -8, -8, -10, 71, -40, -3, 73, 80, 47], "withholdReward": false, "trial_id": "mdp_trial_13", "block": "test", "trialIndex": 14, "score": 70.2, "costs": -2.8, "simulationMode": [null, null, null, null, null], "rewards": [2, 2, -8, -3, 80], "path": ["0", "0", "23", "24", "25", "30", "32"], "rt": [6751, 334, 588, 307, 223], "actions": ["left", "left", "left", "down", "down"], "actionTimes": [8347, 9193, 10297, 11129, 11876], "queries": {"click": {"state": {"target": ["21", "32"], "time": [3266, 5225]}, "edge": {"target": [], "time": []}}, "mouseover": {"state": {"target": ["0", "22", "21", "32", "30", "25", "26", "27", "28", "23"], "time": [2739, 2856, 3041, 4128, 5641, 5668, 5799, 5932, 7544, 7610]}, "edge": {"target": [], "time": []}}, "mouseout": {"state": {"target": ["0", "0", "22", "21", "32", "30", "25", "26", "27", "28", "23", "0"], "time": [793, 2789, 2889, 3504, 5612, 5654, 5700, 5866, 7476, 7560, 7660, 16589]}, "edge": {"target": [], "time": []}}}, "displayed_time": "15.60", "trialTime": 17673, "trial_type": "mouselab-mdp", "trial_index": 21, "time_elapsed": 987710, "internal_node_id": "0.0-4.0-1.0-12.0"}}, {"uniqueid": "w20584059:a89046792", "current_trial": 22, "dateTime": 1691160479373, "trialdata": {"revealed_states": [], "clicked_states": ["16"], "num_clicks_accrued": [0, 0, 0, 0, 0, 0, 0, 0, 0, 0, 0, 0, 0], "stateRewards": ["", -2, 2, -5, -6, 10, -66, -58, -10, -11, -63, -70, -1, -4, -5, 7, 66, -64, -43, -3, 45, -37, 4, -2, -2, -6, -4, -30, 33, 43, 15, -32, -65, -59], "withholdReward": false, "trial_id": "mdp_trial_14", "block": "test", "trialIndex": 15, "score": 61.6, "costs": -1.4, "simulationMode": [null, null, null, null, null], "rewards": [-1, -4, -5, 7, 66], "path": ["0", "0", "12", "13", "14", "15", "16"], "rt": [4782, 497, 292, 332, 133], "actions": ["right", "right", "right", "up", "up"], "actionTimes": [6247, 7261, 8071, 8925, 9575], "queries": {"click": {"state": {"target": ["16"], "time": [3182]}, "edge": {"target": [], "time": []}}, "mouseover": {"state": {"target": ["17", "16", "17"], "time": [2189, 2672, 3804]}, "edge": {"target": [], "time": []}}, "mouseout": {"state": {"target": ["1", "1", "17", "16"], "time": [743, 875, 2621, 3686]}, "edge": {"target": [], "time": []}}}, "displayed_time": "15.47", "trialTime": 17071, "trial_type": "mouselab-mdp", "trial_index": 22, "time_elapsed": 1005232, "internal_node_id": "0.0-4.0-1.0-13.0"}}, {"uniqueid": "w20584059:a89046792", "current_trial": 23, "dateTime": 1691160501293, "trialdata": {"revealed_states": [], "clicked_states": ["10", "7", "28", "18"], "num_clicks_accrued": [0, 0, 0, 0, 0, 0, 0, 0, 0, 0, 0, 0, 0], "stateRewards": ["", -2, 4, -5, -12, 85, -24, -18, -15, -78, -22, 26, -1, -1, 2, 14, -45, 52, -23, 7, -33, 24, -6, -2, -4, 5, -7, -16, 36, -39, 5, 71, -87, -23], "withholdReward": false, "trial_id": "mdp_trial_15", "block": "test", "trialIndex": 16, "score": -29.6, "costs": -5.6, "simulationMode": [null, null, null, null, null], "rewards": [-2, -4, 5, -7, -16], "path": ["0", "0", "23", "24", "25", "26", "27"], "rt": [13571, 14, 237, 709, 116], "actions": ["left", "left", "left", "up", "up"], "actionTimes": [15069, 15626, 16388, 17620, 18254], "queries": {"click": {"state": {"target": ["10", "7", "28", "18"], "time": [2538, 5024, 7896, 11273]}, "edge": {"target": [], "time": []}}, "mouseover": {"state": {"target": ["1", "10", "1", "7", "1", "28", "1", "18", "12", "0"], "time": [2007, 2258, 4484, 4770, 7280, 7511, 8759, 8859, 11619, 11885]}, "edge": {"target": [], "time": []}}, "mouseout": {"state": {"target": ["17", "12", "0", "1", "10", "1", "7", "1", "28", "1", "18", "12"], "time": [611, 910, 1674, 2058, 2789, 4499, 5484, 7295, 8510, 8777, 11519, 11685]}, "edge": {"target": [], "time": []}}}, "displayed_time": "18.77", "trialTime": 21468, "trial_type": "mouselab-mdp", "trial_index": 23, "time_elapsed": 1027153, "internal_node_id": "0.0-4.0-1.0-14.0"}}, {"uniqueid": "w20584059:a89046792", "current_trial": 24, "dateTime": 1691160520545, "trialdata": {"revealed_states": [], "clicked_states": ["32", "29"], "num_clicks_accrued": [0, 0, 0, 0, 0, 0, 0, 0, 0, 0, 0, 0, 0], "stateRewards": ["", 1, -1, 4, -2, -75, -75, 84, -9, -60, -79, 59, 2, -4, 8, 9, -17, -82, 80, 14, -4, 49, 49, -1, 3, 6, -11, -33, 34, 55, 9, -57, 5, 59], "withholdReward": false, "trial_id": "mdp_trial_16", "block": "test", "trialIndex": 17, "score": 49.2, "costs": -2.8, "simulationMode": [null, null, null, null, null], "rewards": [-1, 3, 6, -11, 55], "path": ["0", "0", "23", "24", "25", "26", "29"], "rt": [9629, 88, 222, 498, 348], "actions": ["left", "left", "left", "up", "left"], "actionTimes": [11357, 11966, 12700, 13708, 14572], "queries": {"click": {"state": {"target": ["32", "29"], "time": [4087, 7382]}, "edge": {"target": [], "time": []}}, "mouseover": {"state": {"target": ["31", "32", "33", "32", "30", "29", "25", "24", "23"], "time": [2797, 2898, 3196, 3545, 6289, 6505, 9632, 9667, 9715]}, "edge": {"target": [], "time": []}}, "mouseout": {"state": {"target": ["0", "0", "31", "32", "33", "32", "30", "29", "25", "24", "23"], "time": [593, 2714, 2832, 3131, 3480, 4909, 6325, 8906, 9648, 9698, 9733]}, "edge": {"target": [], "time": []}}}, "displayed_time": "15.73", "trialTime": 18797, "trial_type": "mouselab-mdp", "trial_index": 24, "time_elapsed": 1046404, "internal_node_id": "0.0-4.0-1.0-15.0"}}, {"uniqueid": "w20584059:a89046792", "current_trial": 25, "dateTime": 1691160547287, "trialdata": {"revealed_states": [], "clicked_states": ["5", "9", "32", "21", "16", "27"], "num_clicks_accrued": [0, 0, 0, 0, 0, 0, 0, 0, 0, 0, 0, 0, 0], "stateRewards": ["", -1, 3, 1, -11, -22, -36, 19, -5, -70, -52, 50, -2, -4, 4, -2, -41, -83, 29, -2, 22, 10, -6, -2, 3, -2, 14, 54, 44, 77, -9, -65, -37, -40], "withholdReward": false, "trial_id": "mdp_trial_17", "block": "test", "trialIndex": 18, "score": 58.6, "costs": -8.4, "simulationMode": [null, null, null, null, null], "rewards": [-2, 3, -2, 14, 54], "path": ["0", "0", "23", "24", "25", "26", "27"], "rt": [18005, 169, 339, 275, 16], "actions": ["left", "left", "left", "up", "up"], "actionTimes": [19510, 20199, 21052, 21852, 22391], "queries": {"click": {"state": {"target": ["5", "9", "32", "21", "16", "27"], "time": [3763, 5921, 9714, 11707, 14419, 16515]}, "edge": {"target": [], "time": []}}, "mouseover": {"state": {"target": ["0", "15", "17", "16", "6", "5", "4", "7", "3", "9", "3", "2", "1", "32", "21", "19", "14", "15", "16", "7", "10", "27", "26", "28", "23"], "time": [1774, 2252, 2470, 3183, 3285, 3501, 4215, 4569, 5412, 5562, 6310, 6347, 8435, 8918, 10370, 12247, 12347, 12522, 12663, 14658, 14709, 14961, 18645, 18697, 18764]}, "edge": {"target": [], "time": []}}, "mouseout": {"state": {"target": ["0", "0", "15", "17", "16", "6", "5", "4", "7", "3", "9", "3", "2", "1", "32", "21", "19", "14", "15", "16", "7", "10", "27", "26", "28", "23"], "time": [824, 2119, 2368, 3052, 3233, 3318, 4155, 4300, 5260, 5462, 6248, 6330, 8389, 8454, 10169, 12180, 12331, 12476, 12567, 14624, 14676, 14725, 18482, 18662, 18710, 18861]}, "edge": {"target": [], "time": []}}}, "displayed_time": "22.93", "trialTime": 26289, "trial_type": "mouselab-mdp", "trial_index": 25, "time_elapsed": 1073147, "internal_node_id": "0.0-4.0-1.0-16.0"}}, {"uniqueid": "w20584059:a89046792", "current_trial": 26, "dateTime": 1691160569060, "trialdata": {"revealed_states": [], "clicked_states": ["33", "27", "17", "16"], "num_clicks_accrued": [0, 0, 0, 0, 0, 0, 0, 0, 0, 0, 0, 0, 0], "stateRewards": ["", 2, 2, 3, -15, 23, -14, 73, -7, -32, -20, -6, 1, 1, -5, -12, 73, 6, -84, 11, -81, -57, 13, -2, -1, -4, -8, -52, -58, 49, 13, 5, -41, -41], "withholdReward": false, "trial_id": "mdp_trial_18", "block": "test", "trialIndex": 19, "score": 52.4, "costs": -5.6, "simulationMode": [null, null, null, null, null], "rewards": [1, 1, -5, -12, 73], "path": ["0", "0", "12", "13", "14", "15", "16"], "rt": [14027, 360, 276, 355, 181], "actions": ["right", "right", "right", "up", "up"], "actionTimes": [16046, 16924, 17719, 18597, 19287], "queries": {"click": {"state": {"target": ["33", "27", "17", "16"], "time": [4498, 6538, 10874, 13074]}, "edge": {"target": [], "time": []}}, "mouseover": {"state": {"target": ["23", "24", "25", "29", "33", "33", "30", "25", "26", "27", "26", "28", "24", "31", "22", "19", "17", "16", "18", "13", "12", "0"], "time": [2528, 3076, 3141, 3307, 3974, 4239, 5055, 5106, 5163, 5185, 6976, 9127, 9677, 9725, 10078, 10142, 10458, 11190, 13428, 13460, 13519, 15445]}, "edge": {"target": [], "time": []}}, "mouseout": {"state": {"target": ["0", "23", "24", "25", "29", "33", "33", "30", "25", "26", "27", "26", "28", "24", "31", "22", "19", "17", "16", "18", "13", "12", "0"], "time": [2493, 2593, 3125, 3191, 3908, 4007, 4939, 5088, 5158, 5181, 6917, 7018, 9643, 9709, 9924, 10109, 10175, 11124, 13382, 13443, 13477, 13801, 20418]}, "edge": {"target": [], "time": []}}}, "displayed_time": "19.81", "trialTime": 21333, "trial_type": "mouselab-mdp", "trial_index": 26, "time_elapsed": 1094919, "internal_node_id": "0.0-4.0-1.0-17.0"}}, {"uniqueid": "w20584059:a89046792", "current_trial": 27, "dateTime": 1691160587905, "trialdata": {"revealed_states": [], "clicked_states": ["21", "32"], "num_clicks_accrued": [0, 0, 0, 0, 0, 0, 0, 0, 0, 0, 0, 0, 0], "stateRewards": ["", 2, 3, -6, -5, -3, 55, 40, 11, 61, 11, 51, 2, -4, -6, 9, -25, 29, -15, -6, 7, -77, -2, -2, -4, 1, 14, -43, -1, 56, -12, -54, 41, -74], "withholdReward": false, "trial_id": "mdp_trial_19", "block": "test", "trialIndex": 20, "score": 21.2, "costs": -2.8, "simulationMode": [null, null, null, null, null], "rewards": [-2, -4, 1, -12, 41], "path": ["0", "0", "23", "24", "25", "30", "32"], "rt": [7728, 408, 141, 741, 254], "actions": ["left", "left", "left", "down", "down"], "actionTimes": [9944, 10863, 11529, 12790, 13569], "queries": {"click": {"state": {"target": ["21", "32"], "time": [4918, 6949]}, "edge": {"target": [], "time": []}}, "mouseover": {"state": {"target": ["19", "21", "32"], "time": [4101, 4151, 5822]}, "edge": {"target": [], "time": []}}, "mouseout": {"state": {"target": ["0", "19", "21", "32"], "time": [3537, 4118, 5382, 7327]}, "edge": {"target": [], "time": []}}}, "displayed_time": "16.22", "trialTime": 18374, "trial_type": "mouselab-mdp", "trial_index": 27, "time_elapsed": 1113764, "internal_node_id": "0.0-4.0-1.0-18.0"}}, {"uniqueid": "w20584059:a89046792", "current_trial": 28, "dateTime": 1691160612987, "trialdata": {"revealed_states": [], "clicked_states": ["5", "9", "32", "27", "21"], "num_clicks_accrued": [0, 0, 0, 0, 0, 0, 0, 0, 0, 0, 0, 0, 0], "stateRewards": ["", 1, 2, 2, -15, -84, 28, -26, 13, 31, 86, 30, -2, 1, -1, -8, 66, -40, -1, -10, -32, 57, -17, 1, 2, -2, 9, -23, 77, 85, 12, -32, -62, -35], "withholdReward": false, "trial_id": "mdp_trial_20", "block": "test", "trialIndex": 21, "score": 38, "costs": -7, "simulationMode": [null, null, null, null, null], "rewards": [-2, 1, -1, -10, 57], "path": ["0", "0", "12", "13", "14", "19", "21"], "rt": [12083, 160, 53, 496, 116], "actions": ["right", "right", "right", "down", "down"], "actionTimes": [13527, 14200, 14773, 15797, 16431], "queries": {"click": {"state": {"target": ["5", "9", "32", "27", "21"], "time": [2554, 4545, 6625, 8569, 10537]}, "edge": {"target": [], "time": []}}, "mouseover": {"state": {"target": ["0", "0", "7", "4", "5", "9", "8", "28", "24", "30", "32", "30", "25", "26", "27", "1", "13", "19", "21", "19", "14", "15", "15", "14", "13"], "time": [1535, 1999, 2080, 2131, 2380, 3470, 4776, 4843, 4893, 5116, 5227, 6954, 7006, 7061, 7139, 8917, 8956, 9009, 9299, 11944, 11996, 12076, 12722, 12807, 12888]}, "edge": {"target": [], "time": []}}, "mouseout": {"state": {"target": ["0", "0", "0", "7", "4", "5", "9", "8", "28", "24", "30", "32", "30", "25", "26", "27", "1", "13", "19", "21", "19", "14", "15", "15", "14", "13", "12"], "time": [980, 1580, 2012, 2099, 2179, 3297, 4743, 4793, 4877, 4925, 5168, 6920, 6988, 7041, 7081, 8817, 8936, 8975, 9028, 11893, 11977, 12031, 12290, 12770, 12855, 20935, 21018]}, "edge": {"target": [], "time": []}}}, "displayed_time": "16.95", "trialTime": 24677, "trial_type": "mouselab-mdp", "trial_index": 28, "time_elapsed": 1138847, "internal_node_id": "0.0-4.0-1.0-19.0"}}, {"uniqueid": "w20584059:a89046792", "current_trial": 29, "dateTime": 1691160632910, "trialdata": {"revealed_states": [], "clicked_states": ["16", "17"], "num_clicks_accrued": [0, 0, 0, 0, 0, 0, 0, 0, 0, 0, 0, 0, 0], "stateRewards": ["", -2, -4, 2, 10, -17, 18, 73, 11, -32, 23, -13, -2, -4, 7, 12, -25, 66, -23, 15, 40, -76, -9, 1, 2, -7, -5, -20, 24, 3, -5, 16, -73, 70], "withholdReward": false, "trial_id": "mdp_trial_21", "block": "test", "trialIndex": 22, "score": 76.2, "costs": -2.8, "simulationMode": [null, null, null, null, null], "rewards": [-2, -4, 7, 12, 66], "path": ["0", "0", "12", "13", "14", "15", "17"], "rt": [7218, 43, 203, 351, 126], "actions": ["right", "right", "right", "up", "right"], "actionTimes": [9471, 10026, 10766, 11630, 12270], "queries": {"click": {"state": {"target": ["16", "17"], "time": [3110, 6477]}, "edge": {"target": [], "time": []}}, "mouseover": {"state": {"target": ["12", "18", "16", "15", "14", "19", "21", "20", "17", "15", "18", "13", "22"], "time": [2580, 2647, 2864, 3414, 3480, 3554, 5192, 5903, 6287, 7157, 7193, 8835, 8899]}, "edge": {"target": [], "time": []}}, "mouseout": {"state": {"target": ["0", "0", "12", "18", "16", "15", "14", "19", "21", "20", "17", "15", "18", "13", "22"], "time": [1083, 2273, 2616, 2664, 3380, 3464, 3533, 3640, 5705, 5972, 7140, 7175, 8798, 8866, 17360]}, "edge": {"target": [], "time": []}}}, "displayed_time": "16.26", "trialTime": 19476, "trial_type": "mouselab-mdp", "trial_index": 29, "time_elapsed": 1158770, "internal_node_id": "0.0-4.0-1.0-20.0"}}, {"uniqueid": "w20584059:a89046792", "current_trial": 30, "dateTime": 1691160650674, "trialdata": {"revealed_states": [], "clicked_states": ["28", "31", "22"], "num_clicks_accrued": [0, 0, 0, 0, 0, 0, 0, 0, 0, 0, 0, 0, 0], "stateRewards": ["", -2, -1, -3, -1, -78, -6, 2, -1, 22, -88, 32, 2, 2, -7, -8, -51, -17, 54, 2, -44, 54, 75, 2, -2, -8, -15, -29, 12, -67, 15, -1, -47, -47], "withholdReward": false, "trial_id": "mdp_trial_22", "block": "test", "trialIndex": 23, "score": 69.8, "costs": -4.199999999999999, "simulationMode": [null, null, null, null, null], "rewards": [2, 2, -7, 2, 75], "path": ["0", "0", "12", "13", "14", "19", "22"], "rt": [8437, 491, 601, 140, 427], "actions": ["right", "right", "right", "down", "left"], "actionTimes": [9873, 10879, 12002, 12655, 13608], "queries": {"click": {"state": {"target": ["28", "31", "22"], "time": [2275, 4257, 6162]}, "edge": {"target": [], "time": []}}, "mouseover": {"state": {"target": ["28", "24", "31", "22", "13", "18", "12", "0"], "time": [2020, 2853, 2938, 4798, 6379, 6462, 9102, 9153]}, "edge": {"target": [], "time": []}}, "mouseout": {"state": {"target": ["0", "28", "24", "31", "22", "13", "18", "12", "0"], "time": [1859, 2820, 2903, 4484, 6346, 6431, 9037, 9120, 9186]}, "edge": {"target": [], "time": []}}}, "displayed_time": "15.44", "trialTime": 17278, "trial_type": "mouselab-mdp", "trial_index": 30, "time_elapsed": 1176534, "internal_node_id": "0.0-4.0-1.0-21.0"}}, {"uniqueid": "w20584059:a89046792", "current_trial": 31, "dateTime": 1691160672463, "trialdata": {"revealed_states": [], "clicked_states": ["11", "6", "20", "33"], "num_clicks_accrued": [0, 0, 0, 0, 0, 0, 0, 0, 0, 0, 0, 0, 0], "stateRewards": ["", 2, 3, 8, 11, 25, -80, 6, -4, -56, 84, -23, -2, -4, -3, 4, -51, -9, -61, -15, -64, 67, -35, 1, -1, -7, -6, 83, 59, -15, 12, -79, 56, 41], "withholdReward": false, "trial_id": "mdp_trial_23", "block": "test", "trialIndex": 24, "score": 55.4, "costs": -5.6, "simulationMode": [null, null, null, null, null], "rewards": [1, -1, -7, 12, 56], "path": ["0", "0", "23", "24", "25", "30", "32"], "rt": [13093, 153, 252, 975, 203], "actions": ["left", "left", "left", "down", "down"], "actionTimes": [14503, 15175, 15941, 17429, 18152], "queries": {"click": {"state": {"target": ["11", "6", "20", "33"], "time": [3412, 5356, 8579, 10516]}, "edge": {"target": [], "time": []}}, "mouseover": {"state": {"target": ["1", "10", "11", "8", "3", "4", "6", "18", "13", "22", "13", "14", "14", "20", "19", "22", "31", "30", "33", "33", "29", "25", "0"], "time": [2633, 2853, 3002, 3615, 3639, 3670, 3717, 7305, 7373, 7453, 7655, 7806, 8055, 8219, 8837, 8871, 9320, 9386, 9573, 9851, 11232, 12761, 13542]}, "edge": {"target": [], "time": []}}, "mouseout": {"state": {"target": ["23", "0", "1", "10", "11", "8", "3", "4", "6", "18", "13", "22", "13", "14", "14", "20", "19", "22", "31", "30", "33", "33", "29", "25", "0", "0", "23"], "time": [587, 653, 2718, 2933, 3601, 3632, 3654, 3686, 6609, 7340, 7406, 7571, 7772, 7870, 8157, 8804, 8854, 8887, 9369, 9569, 9645, 11098, 12710, 12894, 13589, 20375, 20441]}, "edge": {"target": [], "time": []}}}, "displayed_time": "18.66", "trialTime": 21357, "trial_type": "mouselab-mdp", "trial_index": 31, "time_elapsed": 1198323, "internal_node_id": "0.0-4.0-1.0-22.0"}}, {"uniqueid": "w20584059:a89046792", "current_trial": 32, "dateTime": 1691160694999, "trialdata": {"revealed_states": [], "clicked_states": ["5", "6", "16", "18"], "num_clicks_accrued": [0, 0, 0, 0, 0, 0, 0, 0, 0, 0, 0, 0, 0], "stateRewards": ["", -1, -3, -3, 1, -38, 2, -53, -2, -1, -81, 70, -1, 1, -5, -9, 46, 15, 35, -1, -22, 38, 59, -2, 4, -8, 13, 1, -83, -43, 4, 76, 13, 48], "withholdReward": false, "trial_id": "mdp_trial_24", "block": "test", "trialIndex": 25, "score": 26.4, "costs": -5.6, "simulationMode": [null, null, null, null, null], "rewards": [-1, 1, -5, -9, 46], "path": ["0", "0", "12", "13", "14", "15", "16"], "rt": [11919, 14, 4, 591, 58], "actions": ["right", "right", "right", "up", "up"], "actionTimes": [13281, 13813, 14354, 15472, 16050], "queries": {"click": {"state": {"target": ["5", "6", "16", "18"], "time": [3867, 6122, 8499, 10962]}, "edge": {"target": [], "time": []}}, "mouseover": {"state": {"target": ["1", "2", "3", "10", "24", "25", "26", "8", "5", "5", "4", "7", "6", "16", "17", "15", "18", "13"], "time": [2059, 2125, 2173, 2406, 2493, 2840, 3056, 3139, 3504, 3588, 4303, 4373, 5883, 6400, 8877, 9493, 9575, 11354]}, "edge": {"target": [], "time": []}}, "mouseout": {"state": {"target": ["0", "1", "2", "3", "10", "24", "25", "26", "8", "5", "5", "5", "4", "7", "6", "16", "17", "15", "18", "13"], "time": [1974, 2108, 2158, 2192, 2423, 2590, 2973, 3071, 3157, 3539, 3929, 4238, 4333, 5819, 6316, 8792, 9442, 9530, 11221, 11371]}, "edge": {"target": [], "time": []}}}, "displayed_time": "16.56", "trialTime": 22100, "trial_type": "mouselab-mdp", "trial_index": 32, "time_elapsed": 1220858, "internal_node_id": "0.0-4.0-1.0-23.0"}}, {"uniqueid": "w20584059:a89046792", "current_trial": 33, "dateTime": 1691160712657, "trialdata": {"revealed_states": [], "clicked_states": ["21", "20"], "num_clicks_accrued": [0, 0, 0, 0, 0, 0, 0, 0, 0, 0, 0, 0, 0], "stateRewards": ["", -2, -1, -5, 10, -36, -70, 68, -9, 86, 71, -10, 2, -4, 7, -7, 66, 44, -66, -13, -69, 43, 15, -2, 2, 6, -13, 62, 57, 50, -10, -69, 42, -72], "withholdReward": false, "trial_id": "mdp_trial_25", "block": "test", "trialIndex": 26, "score": 32.2, "costs": -2.8, "simulationMode": [null, null, null, null, null], "rewards": [2, -4, 7, -13, 43], "path": ["0", "0", "12", "13", "14", "19", "21"], "rt": [8141, 156, 70, 1714, 534], "actions": ["right", "right", "right", "down", "down"], "actionTimes": [9569, 10242, 10823, 13047, 14095], "queries": {"click": {"state": {"target": ["21", "20"], "time": [2915, 6642]}, "edge": {"target": [], "time": []}}, "mouseover": {"state": {"target": ["12", "19", "21", "22", "19", "20", "19", "22"], "time": [2335, 2420, 2650, 3466, 5810, 5860, 7293, 8819]}, "edge": {"target": [], "time": []}}, "mouseout": {"state": {"target": ["0", "12", "19", "21", "22", "19", "20", "19", "22"], "time": [2317, 2353, 2452, 3101, 5793, 5843, 7206, 8720, 8836]}, "edge": {"target": [], "time": []}}}, "displayed_time": "15.43", "trialTime": 17206, "trial_type": "mouselab-mdp", "trial_index": 33, "time_elapsed": 1238516, "internal_node_id": "0.0-4.0-1.0-24.0"}}, {"uniqueid": "w20584059:a89046792", "current_trial": 34, "dateTime": 1691160732020, "trialdata": {"revealed_states": [], "clicked_states": [], "num_clicks_accrued": [0, 0, 0, 0, 0, 0, 0, 0, 0, 0, 0, 0, 0], "stateRewards": ["", 1, -1, 1, -14, -10, 67, -28, -11, 72, 40, -65, -1, 1, 1, -2, 8, -55, 34, -10, 61, 33, -15, 2, -4, 7, 4, -75, 63, -21, -16, 61, 19, 21], "withholdReward": false, "trial_id": "mdp_trial_26", "block": "test", "trialIndex": 27, "score": -75, "costs": 0, "simulationMode": [null, null, null, null, null], "rewards": [1, -1, 1, -11, -65], "path": ["0", "0", "1", "2", "3", "8", "11"], "rt": [8142, 112, 349, 213, 220], "actions": ["up", "up", "up", "left", "left"], "actionTimes": [9688, 10322, 11190, 11919, 12657], "queries": {"click": {"state": {"target": [], "time": []}, "edge": {"target": [], "time": []}}, "mouseover": {"state": {"target": ["23", "24", "23", "10", "8", "9", "11", "27", "26", "25", "33", "30", "31", "24", "28"], "time": [2128, 2210, 2508, 2725, 2759, 2990, 3324, 3589, 3738, 4019, 4287, 4538, 4604, 4817, 5035]}, "edge": {"target": [], "time": []}}, "mouseout": {"state": {"target": ["22", "0", "23", "24", "23", "10", "8", "9", "11", "27", "26", "25", "33", "30", "31", "24", "28", "23"], "time": [761, 2091, 2160, 2426, 2658, 2740, 2790, 3275, 3356, 3655, 3954, 4072, 4520, 4570, 4770, 4871, 8993, 14880]}, "edge": {"target": [], "time": []}}}, "displayed_time": "15.55", "trialTime": 18951, "trial_type": "mouselab-mdp", "trial_index": 34, "time_elapsed": 1257880, "internal_node_id": "0.0-4.0-1.0-25.0"}}, {"uniqueid": "w20584059:a89046792", "current_trial": 35, "dateTime": 1691160753086, "trialdata": {"revealed_states": [], "clicked_states": ["27", "32", "21", "20", "5"], "num_clicks_accrued": [0, 0, 0, 0, 0, 0, 0, 0, 0, 0, 0, 0, 0], "stateRewards": ["", -2, -1, 3, -3, 71, -58, -21, 7, -10, -75, -37, 2, 4, -1, -12, -79, -29, -48, 3, -41, -10, -30, -1, -2, 1, -15, 13, 66, 22, -1, -42, -86, -55], "withholdReward": false, "trial_id": "mdp_trial_27", "block": "test", "trialIndex": 28, "score": 61, "costs": -7, "simulationMode": [null, null, null, null, null], "rewards": [-2, -1, 3, -3, 71], "path": ["0", "0", "1", "2", "3", "4", "5"], "rt": [10367, 4, 845, 623, 538], "actions": ["up", "up", "up", "right", "up"], "actionTimes": [13491, 14018, 15388, 16530, 17577], "queries": {"click": {"state": {"target": ["27", "32", "21", "20", "5"], "time": [3912, 5743, 7576, 9551, 11543]}, "edge": {"target": [], "time": []}}, "mouseover": {"state": {"target": ["23", "28", "27", "32", "21", "13", "15", "17", "20", "16", "6", "4", "5", "4", "2", "1"], "time": [3486, 3535, 3666, 4468, 6297, 8123, 8193, 8479, 8725, 10121, 10298, 10369, 10606, 11833, 11934, 12131]}, "edge": {"target": [], "time": []}}, "mouseout": {"state": {"target": ["0", "23", "28", "27", "32", "21", "13", "15", "17", "20", "16", "6", "4", "5", "4", "2", "1", "0"], "time": [3453, 3503, 3585, 4218, 6115, 7907, 8143, 8227, 8599, 9987, 10254, 10326, 10388, 11799, 11882, 11967, 19047, 19263]}, "edge": {"target": [], "time": []}}}, "displayed_time": "18.10", "trialTime": 20609, "trial_type": "mouselab-mdp", "trial_index": 35, "time_elapsed": 1278945, "internal_node_id": "0.0-4.0-1.0-26.0"}}, {"uniqueid": "w20584059:a89046792", "current_trial": 36, "dateTime": 1691160773091, "trialdata": {"revealed_states": [], "clicked_states": ["9", "10"], "num_clicks_accrued": [0, 0, 0, 0, 0, 0, 0, 0, 0, 0, 0, 0, 0], "stateRewards": ["", 1, 3, 1, -13, 52, -28, 67, -14, 3, 63, -70, -1, -4, 7, -11, -10, 47, -18, 6, 69, -9, -61, 2, 3, -6, 10, 63, -34, 40, -6, -79, -35, -32], "withholdReward": false, "trial_id": "mdp_trial_28", "block": "test", "trialIndex": 29, "score": 51.2, "costs": -2.8, "simulationMode": [null, null, null, null, null], "rewards": [1, 3, 1, -14, 63], "path": ["0", "0", "1", "2", "3", "8", "10"], "rt": [6916, 175, 315, 281, 198], "actions": ["up", "up", "up", "left", "down"], "actionTimes": [8331, 9021, 9858, 10658, 11370], "queries": {"click": {"state": {"target": ["9", "10"], "time": [3144, 5191]}, "edge": {"target": [], "time": []}}, "mouseover": {"state": {"target": ["0", "8", "9", "8", "10", "2", "7"], "time": [2559, 2689, 2889, 3555, 3657, 5418, 5442]}, "edge": {"target": [], "time": []}}, "mouseout": {"state": {"target": ["0", "0", "8", "9", "8", "10", "2", "7"], "time": [2257, 2592, 2722, 3524, 3589, 5401, 5439, 12566]}, "edge": {"target": [], "time": []}}}, "displayed_time": "15.42", "trialTime": 19550, "trial_type": "mouselab-mdp", "trial_index": 36, "time_elapsed": 1298950, "internal_node_id": "0.0-4.0-1.0-27.0"}}, {"uniqueid": "w20584059:a89046792", "current_trial": 37, "dateTime": 1691160810757, "trialdata": {"revealed_states": [], "clicked_states": ["7", "18"], "num_clicks_accrued": [0, 0, 0, 0, 0, 0, 0, 0, 0, 0, 0, 0, 0], "stateRewards": ["", 1, 2, -5, 14, 54, -14, -25, 16, -5, -87, 78, -1, 1, 3, -3, 52, 53, 53, -10, 73, -69, -48, 2, 3, 1, 8, -62, -7, 85, 7, 82, 52, -28], "withholdReward": false, "trial_id": "mdp_trial_29", "block": "test", "trialIndex": 30, "score": 50.2, "costs": -2.8, "simulationMode": [null, null, null, null, null], "rewards": [-1, 1, 3, -3, 53], "path": ["0", "0", "12", "13", "14", "15", "18"], "rt": [5759, 219, 306, 364, 515], "actions": ["right", "right", "right", "up", "left"], "actionTimes": [7273, 8011, 8832, 9720, 10752], "queries": {"click": {"state": {"target": ["7", "18"], "time": [2198, 4181]}, "edge": {"target": [], "time": []}}, "mouseover": {"state": {"target": ["7", "18", "1", "0"], "time": [1905, 2854, 5762, 6660]}, "edge": {"target": [], "time": []}}, "mouseout": {"state": {"target": ["0", "7", "18", "1", "0", "23"], "time": [1535, 2439, 5663, 5844, 12328, 12712]}, "edge": {"target": [], "time": []}}}, "displayed_time": "15.52", "trialTime": 37127, "trial_type": "mouselab-mdp", "trial_index": 37, "time_elapsed": 1336617, "internal_node_id": "0.0-4.0-1.0-28.0"}}, {"uniqueid": "w20584059:a89046792", "current_trial": 38, "dateTime": 1691160830420, "trialdata": {"revealed_states": [], "clicked_states": ["32", "27", "33", "20"], "num_clicks_accrued": [0, 0, 0, 0, 0, 0, 0, 0, 0, 0, 0, 0, 0], "stateRewards": ["", 1, -1, 8, 4, 76, -33, -17, -3, -1, -54, -74, -2, 2, -5, 13, -51, 63, 83, 1, 84, 29, -36, 2, -1, 7, -12, -10, -44, -43, -14, 8, -69, 19], "withholdReward": false, "trial_id": "mdp_trial_30", "block": "test", "trialIndex": 31, "score": 74.4, "costs": -5.6, "simulationMode": [null, null, null, null, null], "rewards": [-2, 2, -5, 1, 84], "path": ["0", "0", "12", "13", "14", "19", "20"], "rt": [11528, 157, 384, 1103, 466], "actions": ["right", "right", "right", "down", "right"], "actionTimes": [12987, 13668, 14577, 16194, 17170], "queries": {"click": {"state": {"target": ["32", "27", "33", "20"], "time": [2488, 5216, 7911, 9943]}, "edge": {"target": [], "time": []}}, "mouseover": {"state": {"target": ["0", "31", "32", "32", "21", "24", "26", "27", "28", "23", "30", "33", "30", "31", "21", "20", "0"], "time": [1602, 1806, 1870, 2104, 3915, 4578, 4730, 4831, 5646, 5699, 7541, 7688, 8155, 8190, 8290, 8689, 12211]}, "edge": {"target": [], "time": []}}, "mouseout": {"state": {"target": ["0", "1", "0", "0", "31", "32", "32", "21", "24", "26", "27", "28", "23", "30", "33", "30", "31", "21", "20", "0"], "time": [440, 593, 1502, 1669, 1819, 1888, 3450, 4383, 4682, 4779, 5582, 5665, 5718, 7639, 8140, 8173, 8208, 8308, 10453, 12227]}, "edge": {"target": [], "time": []}}}, "displayed_time": "17.69", "trialTime": 19145, "trial_type": "mouselab-mdp", "trial_index": 38, "time_elapsed": 1356279, "internal_node_id": "0.0-4.0-1.0-29.0"}}, {"uniqueid": "w20584059:a89046792", "current_trial": 39, "dateTime": 1691160851711, "trialdata": {"revealed_states": [], "clicked_states": ["9", "5", "10", "7"], "num_clicks_accrued": [0, 0, 0, 0, 0, 0, 0, 0, 0, 0, 0, 0, 0], "stateRewards": ["", 2, -3, -8, 14, -7, -51, 73, 2, 36, 36, -43, -1, 3, -4, 1, 6, 87, -65, 15, 61, -42, -83, -1, 3, -2, -7, 30, -48, 35, 13, 26, 60, 78], "withholdReward": false, "trial_id": "mdp_trial_31", "block": "test", "trialIndex": 32, "score": 72.4, "costs": -5.6, "simulationMode": [null, null, null, null, null], "rewards": [2, -3, -8, 14, 73], "path": ["0", "0", "1", "2", "3", "4", "7"], "rt": [12021, 536, 335, 511, 1047], "actions": ["up", "up", "up", "right", "down"], "actionTimes": [14317, 15365, 16211, 17243, 18803], "queries": {"click": {"state": {"target": ["9", "5", "10", "7"], "time": [3855, 6166, 9118, 11310]}, "edge": {"target": [], "time": []}}, "mouseover": {"state": {"target": ["0", "10", "8", "9", "9", "5", "4", "7", "1", "10", "2", "7"], "time": [2776, 2888, 2909, 2941, 3241, 4702, 6582, 6653, 8557, 8889, 9656, 9724]}, "edge": {"target": [], "time": []}}, "mouseout": {"state": {"target": ["0", "0", "0", "10", "8", "9", "9", "5", "4", "7", "1", "10", "2", "7"], "time": [545, 2357, 2805, 2905, 2937, 3106, 4319, 6548, 6631, 8457, 8774, 9639, 9705, 11618]}, "edge": {"target": [], "time": []}}}, "displayed_time": "19.32", "trialTime": 20787, "trial_type": "mouselab-mdp", "trial_index": 39, "time_elapsed": 1377570, "internal_node_id": "0.0-4.0-1.0-30.0"}}, {"uniqueid": "w20584059:a89046792", "current_trial": 40, "dateTime": 1691160871753, "trialdata": {"revealed_states": [], "clicked_states": [], "num_clicks_accrued": [0, 0, 0, 0, 0, 0, 0, 0, 0, 0, 0, 0, 0], "stateRewards": ["", 2, 4, -3, 16, -58, 30, -35, 11, -60, 47, 27, -2, -1, -7, -16, 23, -70, 68, -10, -65, -43, -34, -2, 1, 7, 9, -63, 34, -31, -8, -12, -86, 59], "withholdReward": false, "trial_id": "mdp_trial_32", "block": "test", "trialIndex": 33, "score": 41, "costs": 0, "simulationMode": [null, null, null, null, null], "rewards": [2, 4, -3, 11, 27], "path": ["0", "0", "1", "2", "3", "8", "11"], "rt": [5920, 366, 1426, 560, 809], "actions": ["up", "up", "up", "left", "left"], "actionTimes": [8850, 9731, 11673, 12752, 14083], "queries": {"click": {"state": {"target": [], "time": []}, "edge": {"target": [], "time": []}}, "mouseover": {"state": {"target": ["23", "24", "25", "29", "26", "28", "1", "18"], "time": [3460, 3526, 3609, 4127, 5322, 5389, 6636, 6719]}, "edge": {"target": [], "time": []}}, "mouseout": {"state": {"target": ["0", "23", "24", "25", "29", "26", "28", "1", "18", "13"], "time": [3427, 3507, 3576, 3626, 5305, 5355, 6587, 6668, 17757, 17943]}, "edge": {"target": [], "time": []}}}, "displayed_time": "16.94", "trialTime": 19569, "trial_type": "mouselab-mdp", "trial_index": 40, "time_elapsed": 1397612, "internal_node_id": "0.0-4.0-1.0-31.0"}}, {"uniqueid": "w20584059:a89046792", "current_trial": 41, "dateTime": 1691160894059, "trialdata": {"revealed_states": [], "clicked_states": ["21", "32"], "num_clicks_accrued": [0, 0, 0, 0, 0, 0, 0, 0, 0, 0, 0, 0, 0], "stateRewards": ["", -1, 3, 8, 10, -86, 61, -36, 10, 17, -60, 24, -1, -3, 3, 11, 50, 60, 33, -3, -20, 58, -6, 1, -4, -4, 13, -70, -71, 43, 14, 52, 82, -11], "withholdReward": false, "trial_id": "mdp_trial_33", "block": "test", "trialIndex": 34, "score": 86.2, "costs": -2.8, "simulationMode": [null, null, null, null, null], "rewards": [1, -4, -4, 14, 82], "path": ["0", "0", "23", "24", "25", "30", "32"], "rt": [5265, 162, 174, 513, 420], "actions": ["left", "left", "left", "down", "down"], "actionTimes": [11448, 12130, 12824, 13863, 14800], "queries": {"click": {"state": {"target": ["21", "32"], "time": [6878, 8509]}, "edge": {"target": [], "time": []}}, "mouseover": {"state": {"target": ["12", "22", "21", "32"], "time": [6312, 6379, 6594, 7373]}, "edge": {"target": [], "time": []}}, "mouseout": {"state": {"target": ["0", "23", "0", "12", "22", "21", "32"], "time": [657, 758, 6295, 6330, 6477, 7078, 9107]}, "edge": {"target": [], "time": []}}}, "displayed_time": "20.19", "trialTime": 21799, "trial_type": "mouselab-mdp", "trial_index": 41, "time_elapsed": 1419919, "internal_node_id": "0.0-4.0-1.0-32.0"}}, {"uniqueid": "w20584059:a89046792", "current_trial": 42, "dateTime": 1691160912430, "trialdata": {"revealed_states": [], "clicked_states": ["27", "16"], "num_clicks_accrued": [0, 0, 0, 0, 0, 0, 0, 0, 0, 0, 0, 0, 0], "stateRewards": ["", -1, 2, -2, 13, -56, -28, 10, 14, 53, -80, -29, 1, -3, -3, -14, 14, 9, -40, -9, 18, 18, 48, 1, 1, 1, -9, 64, -39, -9, 7, -52, -78, 7], "withholdReward": false, "trial_id": "mdp_trial_34", "block": "test", "trialIndex": 35, "score": 55.2, "costs": -2.8, "simulationMode": [null, null, null, null, null], "rewards": [1, 1, 1, -9, 64], "path": ["0", "0", "23", "24", "25", "26", "27"], "rt": [6538, 5, 143, 934, 113], "actions": ["left", "left", "left", "up", "up"], "actionTimes": [8805, 9327, 9996, 11453, 12079], "queries": {"click": {"state": {"target": ["27", "16"], "time": [3911, 6030]}, "edge": {"target": [], "time": []}}, "mouseover": {"state": {"target": ["27", "7", "16", "16", "16", "18", "12"], "time": [3680, 4165, 4215, 4447, 4592, 6342, 6443]}, "edge": {"target": [], "time": []}}, "mouseout": {"state": {"target": ["0", "27", "7", "16", "16", "16", "18", "12"], "time": [3383, 4082, 4182, 4247, 4530, 6276, 6393, 6459]}, "edge": {"target": [], "time": []}}}, "displayed_time": "16.27", "trialTime": 17820, "trial_type": "mouselab-mdp", "trial_index": 42, "time_elapsed": 1438289, "internal_node_id": "0.0-4.0-1.0-33.0"}}, {"uniqueid": "w20584059:a89046792", "current_trial": 43, "dateTime": 1691160936138, "trialdata": {"revealed_states": [], "clicked_states": ["7", "10"], "num_clicks_accrued": [0, 0, 0, 0, 0, 0, 0, 0, 0, 0, 0, 0, 0], "stateRewards": ["", 2, 3, -1, 16, -78, -11, 46, 2, -20, 79, -67, 2, 3, 2, 11, -83, -42, -58, -11, -67, -22, 55, 2, -1, -1, -16, -83, -82, 23, -11, -29, 13, 13], "withholdReward": false, "trial_id": "mdp_trial_35", "block": "test", "trialIndex": 36, "score": 82.2, "costs": -2.8, "simulationMode": [null, null, null, null, null], "rewards": [2, 3, -1, 2, 79], "path": ["0", "0", "1", "2", "3", "8", "10"], "rt": [6214, 225, 427, 462, 258], "actions": ["up", "up", "up", "left", "down"], "actionTimes": [9233, 9978, 10928, 11912, 12688], "queries": {"click": {"state": {"target": ["7", "10"], "time": [4001, 6041]}, "edge": {"target": [], "time": []}}, "mouseover": {"state": {"target": ["1", "7", "2", "10", "1"], "time": [3449, 3666, 4215, 4368, 6525]}, "edge": {"target": [], "time": []}}, "mouseout": {"state": {"target": ["0", "1", "7", "2", "10", "1"], "time": [3398, 3482, 4183, 4316, 6343, 6643]}, "edge": {"target": [], "time": []}}}, "displayed_time": "17.02", "trialTime": 23155, "trial_type": "mouselab-mdp", "trial_index": 43, "time_elapsed": 1461998, "internal_node_id": "0.0-4.0-1.0-34.0"}}, {"uniqueid": "w20584059:a89046792", "current_trial": 44, "dateTime": 1691160957690, "trialdata": {"revealed_states": [], "clicked_states": ["23", "27", "16", "14"], "num_clicks_accrued": [0, 0, 0, 0, 0, 0, 0, 0, 0, 0, 0, 0, 0], "stateRewards": ["", 1, -4, -4, 8, 1, -79, 68, -10, -79, 8, -74, -1, -3, -6, 14, 43, 23, 9, 5, -51, 63, 61, -2, 4, 6, -10, 69, -32, 57, 15, -80, -80, -77], "withholdReward": false, "trial_id": "mdp_trial_36", "block": "test", "trialIndex": 37, "score": 61.4, "costs": -5.6, "simulationMode": [null, null, null, null, null], "rewards": [-2, 4, 6, -10, 69], "path": ["0", "0", "23", "24", "25", "26", "27"], "rt": [12603, 107, 183, 190, 79], "actions": ["left", "left", "left", "up", "up"], "actionTimes": [14741, 15366, 16076, 16780, 17391], "queries": {"click": {"state": {"target": ["23", "27", "16", "14"], "time": [3693, 6044, 8860, 11988]}, "edge": {"target": [], "time": []}}, "mouseover": {"state": {"target": ["1", "23", "24", "27", "10", "7", "15", "16", "12", "0", "12", "13", "14", "13", "12", "0"], "time": [2935, 3383, 5429, 5861, 6361, 6398, 8223, 8571, 9223, 9623, 11480, 11532, 11647, 12303, 12483, 12685]}, "edge": {"target": [], "time": []}}, "mouseout": {"state": {"target": ["1", "23", "24", "27", "10", "7", "15", "16", "12", "0", "12", "13", "14", "13", "12"], "time": [3151, 4334, 5578, 6312, 6380, 6416, 8438, 9072, 9572, 11463, 11515, 11580, 12268, 12323, 12663]}, "edge": {"target": [], "time": []}}}, "displayed_time": "17.90", "trialTime": 21015, "trial_type": "mouselab-mdp", "trial_index": 44, "time_elapsed": 1483549, "internal_node_id": "0.0-4.0-1.0-35.0"}}, {"uniqueid": "w20584059:a89046792", "current_trial": 45, "dateTime": 1691160996875, "trialdata": {"revealed_states": [], "clicked_states": ["25", "14", "4", "8", "9", "5", "21", "32", "27", "16"], "num_clicks_accrued": [0, 0, 0, 0, 0, 0, 0, 0, 0, 0, 0, 0, 0], "stateRewards": ["", 1, 2, -3, 6, -88, 74, -45, 7, -46, 40, -77, 1, -4, 4, 3, 22, -25, -59, 8, -83, 19, -60, -1, -1, -1, -8, 26, -29, 64, -7, -88, -51, -55], "withholdReward": false, "trial_id": "mdp_trial_37", "block": "test", "trialIndex": 38, "score": 39, "costs": -14.000000000000002, "simulationMode": [null, null, null, null, null], "rewards": [-1, -1, -1, -8, 64], "path": ["0", "0", "23", "24", "25", "26", "29"], "rt": [28886, 313, 198, 674, 235], "actions": ["left", "left", "left", "up", "left"], "actionTimes": [32071, 32904, 33637, 34829, 35589], "queries": {"click": {"state": {"target": ["25", "14", "4", "8", "9", "5", "21", "32", "27", "16"], "time": [5714, 7656, 10071, 12015, 15494, 17415, 20510, 22383, 25118, 27673]}, "edge": {"target": [], "time": []}}, "mouseover": {"state": {"target": ["23", "25", "24", "23", "0", "12", "14", "18", "7", "4", "3", "4", "3", "8", "10", "24", "0", "1", "2", "3", "9", "5", "4", "18", "21", "21", "32", "24", "28", "27", "10", "2", "7", "16", "18", "12", "0"], "time": [4225, 5003, 6038, 6080, 6107, 6135, 6239, 8099, 8146, 8195, 8449, 8650, 10394, 10475, 12522, 12604, 14615, 14863, 14915, 14950, 15263, 16446, 19635, 19770, 20021, 20369, 20952, 24739, 24791, 24973, 25573, 25608, 25632, 25975, 30379, 30681, 31125]}, "edge": {"target": [], "time": []}}, "mouseout": {"state": {"target": ["0", "23", "25", "24", "23", "0", "12", "14", "18", "7", "4", "3", "4", "3", "8", "10", "24", "0", "1", "2", "3", "9", "5", "4", "18", "21", "21", "32", "24", "28", "27", "10", "2", "7", "16", "18", "12"], "time": [4073, 4304, 6020, 6074, 6101, 6130, 6169, 8048, 8123, 8171, 8258, 8599, 10361, 10442, 12489, 12538, 12637, 14813, 14898, 14933, 15082, 15979, 17959, 19672, 19821, 20084, 20771, 22771, 24758, 24874, 25202, 25591, 25626, 25664, 29345, 30511, 31042]}, "edge": {"target": [], "time": []}}}, "displayed_time": "36.12", "trialTime": 38676, "trial_type": "mouselab-mdp", "trial_index": 45, "time_elapsed": 1522734, "internal_node_id": "0.0-4.0-1.0-36.0"}}, {"uniqueid": "w20584059:a89046792", "current_trial": 46, "dateTime": 1691161018586, "trialdata": {"revealed_states": [], "clicked_states": ["20", "22", "33", "31"], "num_clicks_accrued": [0, 0, 0, 0, 0, 0, 0, 0, 0, 0, 0, 0, 0], "stateRewards": ["", 2, 3, 3, 10, 19, -21, 6, 9, 54, 68, 16, 2, 2, -6, -8, 40, -2, -75, -2, -42, 55, 59, -1, 2, 4, -14, 11, -34, -30, -6, 61, -53, 13], "withholdReward": false, "trial_id": "mdp_trial_38", "block": "test", "trialIndex": 39, "score": 54.4, "costs": -5.6, "simulationMode": [null, null, null, null, null], "rewards": [-1, 2, 4, -6, 61], "path": ["0", "0", "23", "24", "25", "30", "31"], "rt": [14275, 148, 495, 498, 324], "actions": ["left", "left", "left", "down", "right"], "actionTimes": [15798, 16471, 17501, 18517, 19357], "queries": {"click": {"state": {"target": ["20", "22", "33", "31"], "time": [4016, 5960, 8912, 12416]}, "edge": {"target": [], "time": []}}, "mouseover": {"state": {"target": ["0", "12", "13", "14", "20", "19", "22", "31", "30", "33", "30", "31", "12", "13", "12", "0", "31", "0"], "time": [2684, 2953, 3034, 3100, 3698, 4632, 4703, 6243, 6446, 6678, 9188, 9213, 9403, 9470, 10850, 11099, 12115, 12848]}, "edge": {"target": [], "time": []}}, "mouseout": {"state": {"target": ["0", "0", "0", "12", "13", "14", "20", "19", "22", "31", "30", "33", "30", "31", "12", "13", "12", "0", "31"], "time": [455, 2289, 2916, 3002, 3066, 3234, 4249, 4668, 6113, 6295, 6644, 9171, 9208, 9231, 9452, 10617, 10901, 12029, 12646]}, "edge": {"target": [], "time": []}}}, "displayed_time": "19.88", "trialTime": 21172, "trial_type": "mouselab-mdp", "trial_index": 46, "time_elapsed": 1544445, "internal_node_id": "0.0-4.0-1.0-37.0"}}, {"uniqueid": "w20584059:a89046792", "current_trial": 47, "dateTime": 1691161040901, "trialdata": {"revealed_states": [], "clicked_states": ["17", "28", "18", "29"], "num_clicks_accrued": [0, 0, 0, 0, 0, 0, 0, 0, 0, 0, 0, 0, 0], "stateRewards": ["", -2, -3, 8, -4, -30, 31, 69, 9, 66, 87, 64, -2, 2, 8, 5, 47, 16, -39, -8, -54, 51, -19, 1, -2, -2, -11, -25, -26, 43, -9, 19, -84, 86], "withholdReward": false, "trial_id": "mdp_trial_39", "block": "test", "trialIndex": 40, "score": 68.4, "costs": -5.6, "simulationMode": [null, null, null, null, null], "rewards": [1, -2, -2, -9, 86], "path": ["0", "0", "23", "24", "25", "30", "33"], "rt": [14321, 82, 280, 970, 826], "actions": ["left", "left", "left", "down", "left"], "actionTimes": [15524, 16129, 16926, 18414, 19750], "queries": {"click": {"state": {"target": ["17", "28", "18", "29"], "time": [3589, 5805, 8052, 11774]}, "edge": {"target": [], "time": []}}, "mouseover": {"state": {"target": ["12", "13", "18", "16", "15", "17", "15", "18", "1", "18", "1", "28", "1", "18", "26", "29", "27", "29", "26", "27", "28", "23", "0"], "time": [2044, 2247, 2428, 2625, 3109, 3343, 3879, 3948, 4121, 4458, 5203, 5488, 8027, 8044, 8239, 8564, 10492, 11537, 12107, 12558, 14015, 14082, 14416]}, "edge": {"target": [], "time": []}}, "mouseout": {"state": {"target": ["0", "12", "13", "18", "16", "15", "17", "17", "15", "18", "1", "18", "1", "28", "1", "18", "28", "26", "29", "27", "29", "26", "27", "28", "23"], "time": [1981, 2094, 2392, 2476, 3027, 3210, 3673, 3859, 3928, 4002, 4274, 4789, 5303, 8023, 8039, 8073, 8166, 8360, 10358, 11406, 11848, 12158, 13916, 14051, 14134]}, "edge": {"target": [], "time": []}}}, "displayed_time": "20.27", "trialTime": 21814, "trial_type": "mouselab-mdp", "trial_index": 47, "time_elapsed": 1566761, "internal_node_id": "0.0-4.0-1.0-38.0"}}, {"uniqueid": "w20584059:a89046792", "current_trial": 48, "dateTime": 1691161062698, "trialdata": {"revealed_states": [], "clicked_states": ["5", "32", "21", "9", "27"], "num_clicks_accrued": [0, 0, 0, 0, 0, 0, 0, 0, 0, 0, 0, 0, 0], "stateRewards": ["", -1, -2, 8, -6, -79, -6, 87, 9, -5, -66, -38, 2, 2, 5, -6, -82, 74, 85, -8, 67, -30, -15, 1, -2, -2, -2, 87, 64, 49, 7, 2, -38, -9], "withholdReward": false, "trial_id": "mdp_trial_40", "block": "test", "trialIndex": 41, "score": 75, "costs": -7, "simulationMode": [null, null, null, null, null], "rewards": [1, -2, -2, -2, 87], "path": ["0", "0", "23", "24", "25", "26", "27"], "rt": [12586, 142, 315, 332, 78], "actions": ["left", "left", "left", "up", "up"], "actionTimes": [14106, 14771, 15609, 16457, 17051], "queries": {"click": {"state": {"target": ["5", "32", "21", "9", "27"], "time": [2796, 4716, 6604, 8484, 11012]}, "edge": {"target": [], "time": []}}, "mouseover": {"state": {"target": ["1", "2", "3", "5", "5", "4", "1", "23", "31", "32", "21", "13", "3", "9", "8", "26", "27", "26", "25", "33", "30", "31", "23", "0"], "time": [1922, 1957, 2039, 2169, 2453, 3006, 3083, 3137, 3213, 3389, 5630, 6833, 6894, 7034, 8857, 10635, 10834, 11283, 11337, 11450, 13278, 13327, 13412, 13545]}, "edge": {"target": [], "time": []}}, "mouseout": {"state": {"target": ["0", "0", "1", "2", "3", "5", "5", "4", "1", "23", "31", "32", "21", "13", "3", "9", "9", "8", "26", "27", "27", "26", "25", "33", "30", "31", "23"], "time": [589, 1888, 1939, 2005, 2055, 2189, 2970, 3028, 3101, 3158, 3306, 5182, 6763, 6855, 6912, 8552, 8807, 8877, 10782, 11080, 11250, 11317, 11370, 13261, 13310, 13345, 13476]}, "edge": {"target": [], "time": []}}}, "displayed_time": "17.57", "trialTime": 21274, "trial_type": "mouselab-mdp", "trial_index": 48, "time_elapsed": 1588558, "internal_node_id": "0.0-4.0-1.0-39.0"}}, {"uniqueid": "w20584059:a89046792", "current_trial": 49, "dateTime": 1691161131921, "trialdata": {"rt": 69219, "response": {"Q0": "$-16 to 16", "Q1": "$-4 to $4", "Q2": "$-88 to $88", "Q3": "The cost for clicking on nodes varied between nodes.", "Q4": "Slightly motivated"}, "question_order": [0, 1, 2, 3, 4], "trial_id": "final_quiz_control", "trial_type": "survey-multi-choice", "trial_index": 49, "time_elapsed": 1657781, "internal_node_id": "0.0-4.0-2.0"}}, {"uniqueid": "w20584059:a89046792", "current_trial": 50, "dateTime": 1691161275029, "trialdata": {"rt": 143101, "response": {"Q0": "Checking the value of the last steps to estimate the highest and tried to minimise checking nodes to avoid penalty", "Q1": "Not really, I stuck to my initial strategy", "Q2": "It would have been easier if I had a better strategy "}, "trial_id": "self_report_control", "trial_type": "survey-text", "trial_index": 50, "time_elapsed": 1800888, "internal_node_id": "0.0-4.0-3.0"}}, {"uniqueid": "w20584059:a89046792", "current_trial": 51, "dateTime": 1691161300252, "trialdata": {"rt": 25220, "response": {"gender": "male", "age": "44", "colorblind": "0", "effort": "0"}, "trial_type": "survey-html-form", "trial_index": 51, "time_elapsed": 1826112, "internal_node_id": "0.0-4.0-4.0"}}, {"uniqueid": "w20584059:a89046792", "current_trial": 52, "dateTime": 1691161364474, "trialdata": {"rt": 64218, "response": {"Q0": "No", "Q1": "No, I have never participated in this type of game before..", "Q2": "none"}, "trial_type": "survey-text", "trial_index": 52, "time_elapsed": 1890334, "internal_node_id": "0.0-4.0-5.0"}}, {"uniqueid": "w20584059:a89046792", "current_trial": 53, "dateTime": 1691161366875, "trialdata": {"rt": 2395, "stimulus": "Press 'Finish HIT' in order to reach the completion code. Once the data has been saved, you will receive the code either in this window or in the original browser window where you started the experiment.\n", "response": 0, "trial_type": "html-button-response", "trial_index": 53, "time_elapsed": 1892735, "internal_node_id": "0.0-5.0"}}, {"uniqueid": "w20584059:a89046792", "current_trial": 54, "dateTime": 1691161367914, "trialdata": {"success": true, "trial_type": "fullscreen", "trial_index": 54, "time_elapsed": 1893774, "internal_node_id": "0.0-6.0"}}], "questiondata": {"params": {"CODE": "C6DMOQA6", "MIN_TIME": 14, "inspectCost": 1, "startTime": "Fri Aug 04 2023 16:31:06 GMT+0200 (South Africa Standard Time)", "bonusRate": 0.002, "variance": "1_2_4_8_44", "branching": "31123"}, "final_score": 1918.4}, "eventdata": [{"eventtype": "initialized", "value": null, "timestamp": 1691159465497, "interval": 0}, {"eventtype": "window_resize", "value": [1024, 672], "timestamp": 1691159465498, "interval": 1}, {"eventtype": "window_resize", "value": [1024, 672], "timestamp": 1691159466119, "interval": 621}, {"eventtype": "focus", "value": "off", "timestamp": 1691159466216, "interval": 97}, {"eventtype": "focus", "value": "on", "timestamp": 1691159480228, "interval": 14012}, {"eventtype": "window_resize", "value": [1024, 707], "timestamp": 1691159486046, "interval": 5818}, {"eventtype": "window_resize", "value": [1280, 800], "timestamp": 1691159486510, "interval": 464}, {"eventtype": "window_resize", "value": [1024, 672], "timestamp": 1691161367276, "interval": 1880766}], "useragent": "Mozilla/5.0 (Macintosh; Intel Mac OS X 10_15_7) AppleWebKit/537.36 (KHTML, like Gecko) Chrome/115.0.0.0 Safari/537.36", "mode": "live", "id": "w20584059:a89046792", "status": "user data saved", "Beginhit": "2023-08-04 14:30:41.790335", "Beginexp": "2023-08-04 14:31:27.585358", "Endhit": "2023-08-04 15:02:59.096791", "psiturkStatus": 3, "browser": "<redacted>", "platform": "macos", "language": "en-US"}