{"condition": 0, "counterbalance": 0, "assignmentId": "a23820477", "workerId": "w16433856", "hitId": "h98703307", "currenttrial": 73, "bonus": 0, "data": [{"uniqueid": "w16433856:a23820477", "current_trial": 0, "dateTime": 1691159471007, "trialdata": {"success": true, "trial_type": "fullscreen", "trial_index": 0, "time_elapsed": 9146, "internal_node_id": "0.0-0.0"}}, {"uniqueid": "w16433856:a23820477", "current_trial": 1, "dateTime": 1691159476808, "trialdata": {"view_history": [{"page_index": 0, "viewing_time": 5791}], "rt": 5793, "trial_id": "exp_instructions_control", "trial_type": "instructions", "trial_index": 1, "time_elapsed": 14947, "internal_node_id": "0.0-1.0"}}, {"uniqueid": "w16433856:a23820477", "current_trial": 2, "dateTime": 1691159481680, "trialdata": {"success": true, "trial_type": "fullscreen", "trial_index": 2, "time_elapsed": 19819, "internal_node_id": "0.0-2.0-0.0"}}, {"uniqueid": "w16433856:a23820477", "current_trial": 3, "dateTime": 1691159536960, "trialdata": {"view_history": [{"page_index": 0, "viewing_time": 16955}, {"page_index": 1, "viewing_time": 17033}, {"page_index": 2, "viewing_time": 4479}, {"page_index": 3, "viewing_time": 16809}], "rt": 55277, "trial_id": "mouselab_instructions_1_control", "trial_type": "instructions", "trial_index": 3, "time_elapsed": 75099, "internal_node_id": "0.0-2.0-1.0"}}, {"uniqueid": "w16433856:a23820477", "current_trial": 4, "dateTime": 1691159658375, "trialdata": {"revealed_states": [], "clicked_states": ["1", "18", "28", "2", "12", "3", "8", "9", "11", "27", "26", "29", "25", "24", "31", "30", "32", "33", "21", "7", "6", "4", "5", "10", "23", "13", "14", "16", "15", "20", "19", "22", "17"], "num_clicks_accrued": [0, 0, 0, 0, 0, 0, 0, 0, 0, 0, 0, 0, 0], "stateRewards": ["", -10, 10, 10, 10, 10, -10, 10, 10, -10, 10, -10, -10, 10, 10, 10, 10, -10, -10, 10, -10, 10, -10, 10, -10, -10, 10, -10, -10, -10, 10, 10, -10, -10], "withholdReward": false, "trial_id": "practice_1", "block": "test", "trialIndex": 0, "score": 17, "costs": -16.5, "simulationMode": [null, null, null, null, null], "rewards": [-10, 10, 10, 10, 10], "path": ["0", "0", "12", "13", "14", "19", "21"], "rt": [99547, 2939, 5787, 528, 1945], "actions": ["right", "right", "right", "down", "down"], "actionTimes": [102446, 105899, 112213, 113270, 115754], "queries": {"click": {"state": {"target": ["1", "18", "28", "2", "12", "3", "8", "9", "11", "27", "26", "29", "25", "24", "31", "30", "32", "33", "21", "7", "6", "4", "5", "10", "23", "13", "14", "16", "15", "20", "19", "22", "17"], "time": [4966, 6412, 8134, 9561, 11263, 12949, 14219, 15600, 23575, 24606, 25685, 27032, 28267, 31106, 33619, 34806, 36063, 37833, 40639, 43090, 45067, 46296, 53564, 55031, 56363, 59431, 60612, 62571, 63640, 65569, 73073, 78308, 83351]}, "edge": {"target": [], "time": []}}, "mouseover": {"state": {"target": ["1", "18", "2", "10", "28", "10", "2", "1", "0", "12", "1", "3", "8", "9", "8", "11", "27", "26", "29", "25", "24", "24", "31", "30", "32", "33", "31", "21", "22", "12", "18", "18", "7", "7", "4", "6", "4", "5", "3", "10", "23", "0", "12", "13", "13", "14", "15", "16", "15", "17", "20", "19", "20", "20", "19", "22", "17", "20", "14", "13", "12"], "time": [4245, 6000, 7180, 7214, 7828, 8779, 9095, 10297, 10597, 10895, 12151, 12494, 13881, 15244, 19045, 23060, 24147, 25162, 26743, 27994, 30277, 30745, 33276, 34349, 35580, 37243, 38729, 40059, 41361, 41394, 41945, 42059, 42326, 42725, 43676, 44508, 45793, 52476, 54309, 54625, 55743, 56993, 57310, 58309, 58858, 60291, 61128, 62259, 63108, 64159, 65157, 71026, 77407, 77506, 77623, 77974, 82924, 88456, 89090, 89623, 90072]}, "edge": {"target": [], "time": []}}, "mouseout": {"state": {"target": ["0", "0", "1", "18", "2", "10", "28", "10", "2", "2", "1", "0", "12", "1", "2", "3", "8", "9", "8", "8", "11", "27", "26", "29", "25", "26", "24", "24", "31", "30", "30", "32", "33", "30", "31", "21", "22", "12", "18", "18", "7", "7", "4", "6", "4", "5", "3", "10", "10", "23", "0", "12", "13", "13", "14", "15", "16", "15", "17", "20", "19", "20", "20", "19", "22", "17", "20", "14", "13", "12", "0", "12"], "time": [1096, 4161, 5830, 7162, 7199, 7229, 8356, 8847, 9769, 10263, 10313, 10761, 12097, 12162, 12214, 13812, 15063, 16279, 16429, 23010, 24094, 25131, 26377, 27531, 29076, 30210, 30344, 33210, 34263, 35025, 35512, 36830, 38643, 38712, 38778, 41327, 41377, 41410, 42026, 42194, 42342, 43577, 44475, 45709, 52359, 54159, 54374, 55253, 55576, 56944, 57126, 58175, 58624, 59991, 61075, 61211, 63060, 64108, 65024, 66075, 77374, 77423, 77590, 77774, 82357, 88307, 88823, 89289, 89706, 90123, 113955, 114272]}, "edge": {"target": [], "time": []}}}, "displayed_time": "116.29", "trialTime": 120126, "trial_type": "mouselab-mdp", "trial_index": 4, "time_elapsed": 196513, "internal_node_id": "0.0-2.0-2.0-0.0"}}, {"uniqueid": "w16433856:a23820477", "current_trial": 5, "dateTime": 1691159698943, "trialdata": {"revealed_states": [], "clicked_states": [], "num_clicks_accrued": [0, 0, 0, 0, 0, 0, 0, 0, 0, 0, 0, 0, 0], "stateRewards": ["", -10, 10, -10, 10, 10, -10, -10, -10, -10, -10, -10, -10, -10, -10, 10, -10, 10, -10, -10, 10, -10, 10, -10, -10, 10, -10, 10, 10, -10, -10, -10, -10, 10], "withholdReward": false, "trial_id": "practice_2", "block": "test", "trialIndex": 1, "score": -46.5, "costs": 0, "simulationMode": [null, null, null, null, null], "rewards": [-10, -10, -10, -10, -10], "path": ["0", "0", "12", "13", "14", "19", "21"], "rt": [833, 11864, 10063, 340, 170], "actions": ["right", "right", "right", "down", "down"], "actionTimes": [5221, 17611, 28210, 29087, 29782], "queries": {"click": {"state": {"target": [], "time": []}, "edge": {"target": [], "time": []}}, "mouseover": {"state": {"target": [], "time": []}, "edge": {"target": [], "time": []}}, "mouseout": {"state": {"target": ["13", "12", "0", "12", "13", "13", "1", "13", "14"], "time": [3060, 3143, 8178, 10444, 13093, 14210, 15377, 22543, 23793]}, "edge": {"target": [], "time": []}}}, "displayed_time": "30.31", "trialTime": 40002, "trial_type": "mouselab-mdp", "trial_index": 5, "time_elapsed": 237082, "internal_node_id": "0.0-2.0-2.0-1.0"}}, {"uniqueid": "w16433856:a23820477", "current_trial": 6, "dateTime": 1691159717433, "trialdata": {"view_history": [{"page_index": 0, "viewing_time": 15629}, {"page_index": 1, "viewing_time": 2855}], "rt": 18484, "trial_id": "mouselab_instructions_2_control", "trial_type": "instructions", "trial_index": 6, "time_elapsed": 255571, "internal_node_id": "0.0-2.0-3.0"}}, {"uniqueid": "w16433856:a23820477", "current_trial": 7, "dateTime": 1691159766021, "trialdata": {"rt": 48579, "response": {"Q0": "The cost for clicking on nodes may vary between nodes.", "Q1": "I will receive a $1 bonus if I perform well, otherwise I will receive no bonus.", "Q2": "No, the amount of cash at each node of the web may be different each time.", "Q3": "To click on the least number of nodes.", "Q4": "Only before moving the spider.", "Q5": "10 seconds"}, "question_order": [0, 1, 2, 3, 4, 5], "correct": {"Q0": "The cost for clicking on nodes may vary between nodes.", "Q1": "The better I perform the higher my bonus will be.", "Q2": "No, the amount of cash at each node of the web may be different each time.", "Q3": "To get the highest total score.", "Q4": "Only before moving the spider.", "Q5": "3 seconds"}, "trial_id": "mouselab_quiz_control", "trial_type": "survey-multi-choice", "trial_index": 7, "time_elapsed": 304160, "internal_node_id": "0.0-2.0-4.0"}}, {"uniqueid": "w16433856:a23820477", "current_trial": 8, "dateTime": 1691159773662, "trialdata": {"success": true, "trial_type": "fullscreen", "trial_index": 8, "time_elapsed": 311801, "internal_node_id": "0.0-2.1-0.1"}}, {"uniqueid": "w16433856:a23820477", "current_trial": 9, "dateTime": 1691159937372, "trialdata": {"view_history": [{"page_index": 0, "viewing_time": 32231}, {"page_index": 1, "viewing_time": 90894}, {"page_index": 2, "viewing_time": 9722}, {"page_index": 3, "viewing_time": 30858}], "rt": 163706, "trial_id": "mouselab_instructions_1_control", "trial_type": "instructions", "trial_index": 9, "time_elapsed": 475511, "internal_node_id": "0.0-2.1-1.1"}}, {"uniqueid": "w16433856:a23820477", "current_trial": 10, "dateTime": 1691159965219, "trialdata": {"revealed_states": [], "clicked_states": ["1"], "num_clicks_accrued": [0, 0, 0, 0, 0, 0, 0, 0, 0, 0, 0, 0, 0], "stateRewards": ["", -10, 10, 10, 10, 10, -10, 10, 10, -10, 10, -10, -10, 10, 10, 10, 10, -10, -10, 10, -10, 10, -10, 10, -10, -10, 10, -10, -10, -10, 10, 10, -10, -10], "withholdReward": false, "trial_id": "practice_1", "block": "test", "trialIndex": 2, "score": 13, "costs": -0.5, "simulationMode": [null, null, null, null, null, null], "rewards": [-10, 10, 10, 10, -10], "path": ["0", "0", "1", "2", "3", "8", "9"], "rt": [5444, 1787, 5426, 2217, 922, 852], "actions": ["up", "up", "up", "up", "left", "up"], "actionTimes": [7816, 9611, 15552, 18311, 19764, 21125], "queries": {"click": {"state": {"target": ["1"], "time": [7118]}, "edge": {"target": [], "time": []}}, "mouseover": {"state": {"target": ["1"], "time": [6539]}, "edge": {"target": [], "time": []}}, "mouseout": {"state": {"target": ["12", "0", "1", "1", "1", "2", "1", "12"], "time": [1121, 1738, 7339, 8907, 10955, 12738, 12906, 15189]}, "edge": {"target": [], "time": []}}}, "displayed_time": "21.65", "trialTime": 27137, "trial_type": "mouselab-mdp", "trial_index": 10, "time_elapsed": 503358, "internal_node_id": "0.0-2.1-2.1-0.1"}}, {"uniqueid": "w16433856:a23820477", "current_trial": 11, "dateTime": 1691159996940, "trialdata": {"revealed_states": [], "clicked_states": ["1", "2", "3", "4", "6", "5", "12", "13", "14", "15", "16"], "num_clicks_accrued": [0, 0, 0, 0, 0, 0, 0, 0, 0, 0, 0, 0, 0], "stateRewards": ["", -10, 10, -10, 10, 10, -10, -10, -10, -10, -10, -10, -10, -10, -10, 10, -10, 10, -10, -10, 10, -10, 10, -10, -10, 10, -10, 10, 10, -10, -10, -10, -10, 10], "withholdReward": false, "trial_id": "practice_2", "block": "test", "trialIndex": 3, "score": -12, "costs": -5.5, "simulationMode": [null, null, null, null, null], "rewards": [-10, -10, -10, 10, 10], "path": ["0", "0", "12", "13", "14", "15", "17"], "rt": [20823, 973, 536, 86, 1051], "actions": ["right", "right", "right", "up", "right"], "actionTimes": [23468, 24968, 26031, 26650, 28212], "queries": {"click": {"state": {"target": ["1", "2", "3", "4", "6", "5", "12", "13", "14", "15", "16"], "time": [3944, 5145, 7309, 8968, 10542, 12739, 16615, 17753, 19224, 20905, 22181]}, "edge": {"target": [], "time": []}}, "mouseover": {"state": {"target": ["1", "2", "3", "4", "6", "5", "4", "7", "18", "13", "12", "13", "14", "14", "15", "16", "19"], "time": [3492, 4690, 6746, 8051, 9594, 12244, 13427, 13561, 14979, 15010, 16259, 17211, 18295, 18593, 20247, 21621, 22793]}, "edge": {"target": [], "time": []}}, "mouseout": {"state": {"target": ["0", "1", "1", "1", "2", "3", "4", "6", "5", "4", "7", "18", "13", "12", "13", "14", "14", "15", "16", "15", "14", "19"], "time": [525, 775, 1775, 4181, 5797, 7992, 9575, 12043, 13393, 13463, 14959, 14994, 16024, 17178, 18275, 18317, 20210, 21463, 22710, 22744, 22777, 22856]}, "edge": {"target": [], "time": []}}}, "displayed_time": "28.75", "trialTime": 31028, "trial_type": "mouselab-mdp", "trial_index": 11, "time_elapsed": 535078, "internal_node_id": "0.0-2.1-2.1-1.1"}}, {"uniqueid": "w16433856:a23820477", "current_trial": 12, "dateTime": 1691160012595, "trialdata": {"view_history": [{"page_index": 0, "viewing_time": 13737}, {"page_index": 1, "viewing_time": 1911}], "rt": 15648, "trial_id": "mouselab_instructions_2_control", "trial_type": "instructions", "trial_index": 12, "time_elapsed": 550734, "internal_node_id": "0.0-2.1-3.1"}}, {"uniqueid": "w16433856:a23820477", "current_trial": 13, "dateTime": 1691160063202, "trialdata": {"rt": 50598, "response": {"Q0": "The cost for clicking on nodes may vary between nodes.", "Q1": "No.", "Q2": "Yes.", "Q3": "To get the highest total score.", "Q4": "Only before moving the spider.", "Q5": "10 seconds"}, "question_order": [0, 1, 2, 3, 4, 5], "correct": {"Q0": "The cost for clicking on nodes may vary between nodes.", "Q1": "The better I perform the higher my bonus will be.", "Q2": "No, the amount of cash at each node of the web may be different each time.", "Q3": "To get the highest total score.", "Q4": "Only before moving the spider.", "Q5": "3 seconds"}, "trial_id": "mouselab_quiz_control", "trial_type": "survey-multi-choice", "trial_index": 13, "time_elapsed": 601341, "internal_node_id": "0.0-2.1-4.1"}}, {"uniqueid": "w16433856:a23820477", "current_trial": 14, "dateTime": 1691160080351, "trialdata": {"success": true, "trial_type": "fullscreen", "trial_index": 14, "time_elapsed": 618490, "internal_node_id": "0.0-2.2-0.2"}}, {"uniqueid": "w16433856:a23820477", "current_trial": 15, "dateTime": 1691160146398, "trialdata": {"view_history": [{"page_index": 0, "viewing_time": 17546}, {"page_index": 1, "viewing_time": 18968}, {"page_index": 2, "viewing_time": 3659}, {"page_index": 3, "viewing_time": 25869}], "rt": 66043, "trial_id": "mouselab_instructions_1_control", "trial_type": "instructions", "trial_index": 15, "time_elapsed": 684537, "internal_node_id": "0.0-2.2-1.2"}}, {"uniqueid": "w16433856:a23820477", "current_trial": 16, "dateTime": 1691160178367, "trialdata": {"revealed_states": [], "clicked_states": ["23", "24", "25", "27", "26", "30", "31", "12"], "num_clicks_accrued": [0, 0, 0, 0, 0, 0, 0, 0, 0, 0, 0, 0, 0], "stateRewards": ["", -10, 10, 10, 10, 10, -10, 10, 10, -10, 10, -10, -10, 10, 10, 10, 10, -10, -10, 10, -10, 10, -10, 10, -10, -10, 10, -10, -10, -10, 10, 10, -10, -10], "withholdReward": false, "trial_id": "practice_1", "block": "test", "trialIndex": 4, "score": 9.5, "costs": -4, "simulationMode": [null, null, null, null, null], "rewards": [10, -10, -10, 10, 10], "path": ["0", "0", "23", "24", "25", "30", "31"], "rt": [21297, 1182, 735, 534, 707], "actions": ["left", "left", "left", "down", "right"], "actionTimes": [23136, 24835, 26101, 27169, 28407], "queries": {"click": {"state": {"target": ["23", "24", "25", "27", "26", "30", "31", "12"], "time": [3680, 5430, 8991, 11143, 12719, 15694, 17566, 20078]}, "edge": {"target": [], "time": []}}, "mouseover": {"state": {"target": ["0", "23", "24", "31", "25", "30", "25", "27", "26", "29", "25", "30", "30", "31", "31", "12", "13"], "time": [2348, 3314, 4566, 6881, 6981, 7714, 8613, 10764, 11700, 13587, 14898, 14921, 15264, 16302, 16880, 19630, 20715]}, "edge": {"target": [], "time": []}}, "mouseout": {"state": {"target": ["0", "1", "0", "23", "23", "24", "31", "25", "30", "25", "27", "26", "29", "25", "30", "30", "31", "31", "12", "13", "12"], "time": [568, 1068, 2867, 3896, 4265, 6564, 6932, 7430, 8382, 9567, 11666, 13366, 14880, 14916, 14941, 16265, 16418, 18565, 20654, 21714, 21734]}, "edge": {"target": [], "time": []}}}, "displayed_time": "28.93", "trialTime": 31256, "trial_type": "mouselab-mdp", "trial_index": 16, "time_elapsed": 716505, "internal_node_id": "0.0-2.2-2.2-0.2"}}, {"uniqueid": "w16433856:a23820477", "current_trial": 17, "dateTime": 1691160215663, "trialdata": {"revealed_states": [], "clicked_states": ["12", "13", "14", "19", "21", "1", "2", "3", "8", "10"], "num_clicks_accrued": [0, 0, 0, 0, 0, 0, 0, 0, 0, 0, 0, 0, 0], "stateRewards": ["", -10, 10, -10, 10, 10, -10, -10, -10, -10, -10, -10, -10, -10, -10, 10, -10, 10, -10, -10, 10, -10, 10, -10, -10, 10, -10, 10, 10, -10, -10, -10, -10, 10], "withholdReward": false, "trial_id": "practice_2", "block": "test", "trialIndex": 5, "score": -51.5, "costs": -5, "simulationMode": [null, null, null, null, null], "rewards": [-10, -10, -10, -10, -10], "path": ["0", "0", "12", "13", "14", "19", "21"], "rt": [26238, 271, 9, 429, 20], "actions": ["right", "right", "right", "down", "down"], "actionTimes": [29540, 30349, 30887, 31854, 32415], "queries": {"click": {"state": {"target": ["12", "13", "14", "19", "21", "1", "2", "3", "8", "10"], "time": [7477, 9275, 11392, 13273, 15162, 18585, 20252, 22125, 23632, 25296]}, "edge": {"target": [], "time": []}}, "mouseover": {"state": {"target": ["12", "12", "1", "13", "12", "13", "14", "19", "21", "32", "23", "1", "1", "2", "3", "8", "10", "3"], "time": [3442, 4109, 4711, 5493, 6015, 8110, 10442, 12330, 14109, 16860, 17310, 17775, 18342, 19059, 21030, 23020, 25025, 28092]}, "edge": {"target": [], "time": []}}, "mouseout": {"state": {"target": ["0", "12", "12", "1", "13", "12", "13", "14", "19", "21", "21", "32", "23", "1", "1", "2", "3", "8", "10", "8", "3"], "time": [3409, 3578, 4243, 4909, 5627, 8047, 10114, 12062, 13927, 15392, 16028, 17109, 17329, 17892, 18811, 20977, 22799, 24640, 25519, 26195, 35743]}, "edge": {"target": [], "time": []}}}, "displayed_time": "32.93", "trialTime": 36516, "trial_type": "mouselab-mdp", "trial_index": 17, "time_elapsed": 753801, "internal_node_id": "0.0-2.2-2.2-1.2"}}, {"uniqueid": "w16433856:a23820477", "current_trial": 18, "dateTime": 1691160237749, "trialdata": {"view_history": [{"page_index": 0, "viewing_time": 4760}, {"page_index": 1, "viewing_time": 4667}, {"page_index": 0, "viewing_time": 9140}, {"page_index": 1, "viewing_time": 3512}], "rt": 22079, "trial_id": "mouselab_instructions_2_control", "trial_type": "instructions", "trial_index": 18, "time_elapsed": 775887, "internal_node_id": "0.0-2.2-3.2"}}, {"uniqueid": "w16433856:a23820477", "current_trial": 19, "dateTime": 1691160322502, "trialdata": {"rt": 84747, "response": {"Q0": "The cost for clicking on nodes may vary between nodes.", "Q1": "The better I perform the higher my bonus will be.", "Q2": "Yes.", "Q3": "To get the highest total score.", "Q4": "Only before moving the spider.", "Q5": "3 seconds"}, "question_order": [0, 1, 2, 3, 4, 5], "correct": {"Q0": "The cost for clicking on nodes may vary between nodes.", "Q1": "The better I perform the higher my bonus will be.", "Q2": "No, the amount of cash at each node of the web may be different each time.", "Q3": "To get the highest total score.", "Q4": "Only before moving the spider.", "Q5": "3 seconds"}, "trial_id": "mouselab_quiz_control", "trial_type": "survey-multi-choice", "trial_index": 19, "time_elapsed": 860641, "internal_node_id": "0.0-2.2-4.2"}}, {"uniqueid": "w16433856:a23820477", "current_trial": 20, "dateTime": 1691160329968, "trialdata": {"success": true, "trial_type": "fullscreen", "trial_index": 20, "time_elapsed": 868107, "internal_node_id": "0.0-2.3-0.3"}}, {"uniqueid": "w16433856:a23820477", "current_trial": 21, "dateTime": 1691160350398, "trialdata": {"view_history": [{"page_index": 0, "viewing_time": 4135}, {"page_index": 1, "viewing_time": 3351}, {"page_index": 2, "viewing_time": 3301}, {"page_index": 3, "viewing_time": 9635}], "rt": 20425, "trial_id": "mouselab_instructions_1_control", "trial_type": "instructions", "trial_index": 21, "time_elapsed": 888537, "internal_node_id": "0.0-2.3-1.3"}}, {"uniqueid": "w16433856:a23820477", "current_trial": 22, "dateTime": 1691160371610, "trialdata": {"revealed_states": [], "clicked_states": ["16", "15", "14", "13", "12"], "num_clicks_accrued": [0, 0, 0, 0, 0, 0, 0, 0, 0, 0, 0, 0, 0], "stateRewards": ["", -10, 10, 10, 10, 10, -10, 10, 10, -10, 10, -10, -10, 10, 10, 10, 10, -10, -10, 10, -10, 10, -10, 10, -10, -10, 10, -10, -10, -10, 10, 10, -10, -10], "withholdReward": false, "trial_id": "practice_1", "block": "test", "trialIndex": 6, "score": 31, "costs": -2.5, "simulationMode": [null, null, null, null, null], "rewards": [-10, 10, 10, 10, 10], "path": ["0", "0", "12", "13", "14", "15", "16"], "rt": [12218, 1261, 529, 140, 52], "actions": ["right", "right", "right", "up", "up"], "actionTimes": [14214, 16004, 17076, 17761, 18365], "queries": {"click": {"state": {"target": ["16", "15", "14", "13", "12"], "time": [4521, 6678, 8115, 10649, 12370]}, "edge": {"target": [], "time": []}}, "mouseover": {"state": {"target": ["12", "18", "15", "16", "15", "14", "19", "13", "12", "22"], "time": [2874, 3271, 3772, 3972, 4955, 7206, 9687, 10304, 12187, 13312]}, "edge": {"target": [], "time": []}}, "mouseout": {"state": {"target": ["0", "12", "18", "15", "16", "15", "14", "19", "14", "13", "12"], "time": [1305, 3055, 3506, 3904, 4906, 7157, 9489, 9940, 10072, 11753, 13056]}, "edge": {"target": [], "time": []}}}, "displayed_time": "18.87", "trialTime": 20453, "trial_type": "mouselab-mdp", "trial_index": 22, "time_elapsed": 909749, "internal_node_id": "0.0-2.3-2.3-0.3"}}, {"uniqueid": "w16433856:a23820477", "current_trial": 23, "dateTime": 1691160395738, "trialdata": {"revealed_states": [], "clicked_states": ["1", "2", "3", "4", "5", "6", "7"], "num_clicks_accrued": [0, 0, 0, 0, 0, 0, 0, 0, 0, 0, 0, 0, 0], "stateRewards": ["", -10, 10, -10, 10, 10, -10, -10, -10, -10, -10, -10, -10, -10, -10, 10, -10, 10, -10, -10, 10, -10, 10, -10, -10, 10, -10, 10, 10, -10, -10, -10, -10, 10], "withholdReward": false, "trial_id": "practice_2", "block": "test", "trialIndex": 7, "score": 10, "costs": -3.5, "simulationMode": [null, null, null, null, null], "rewards": [-10, 10, -10, 10, 10], "path": ["0", "0", "1", "2", "3", "4", "5"], "rt": [15473, 211, 253, 3, 71], "actions": ["up", "up", "up", "right", "up"], "actionTimes": [18089, 18836, 19635, 20172, 20770], "queries": {"click": {"state": {"target": ["1", "2", "3", "4", "5", "6", "7"], "time": [3816, 5447, 7390, 8985, 10894, 13843, 15925]}, "edge": {"target": [], "time": []}}, "mouseover": {"state": {"target": ["1", "2", "3", "4", "5", "6", "4", "7", "2"], "time": [3229, 4429, 6964, 8230, 10528, 13195, 14699, 15511, 17229]}, "edge": {"target": [], "time": []}}, "mouseout": {"state": {"target": ["22", "0", "1", "2", "3", "3", "4", "5", "4", "6", "4", "7", "2"], "time": [1401, 3179, 4345, 5672, 7609, 8113, 9831, 11850, 12163, 14648, 14764, 16148, 22129]}, "edge": {"target": [], "time": []}}}, "displayed_time": "21.30", "trialTime": 23373, "trial_type": "mouselab-mdp", "trial_index": 23, "time_elapsed": 933876, "internal_node_id": "0.0-2.3-2.3-1.3"}}, {"uniqueid": "w16433856:a23820477", "current_trial": 24, "dateTime": 1691160410837, "trialdata": {"view_history": [{"page_index": 0, "viewing_time": 13214}, {"page_index": 1, "viewing_time": 1879}], "rt": 15094, "trial_id": "mouselab_instructions_2_control", "trial_type": "instructions", "trial_index": 24, "time_elapsed": 948976, "internal_node_id": "0.0-2.3-3.3"}}, {"uniqueid": "w16433856:a23820477", "current_trial": 25, "dateTime": 1691160462052, "trialdata": {"rt": 51210, "response": {"Q0": "The cost for clicking on nodes may vary between nodes.", "Q1": "The better I perform the higher my bonus will be.", "Q2": "No, the amount of cash at each node of the web may be different each time.", "Q3": "To get the highest total score.", "Q4": "Only before moving the spider.", "Q5": "3 seconds"}, "question_order": [0, 1, 2, 3, 4, 5], "correct": {"Q0": "The cost for clicking on nodes may vary between nodes.", "Q1": "The better I perform the higher my bonus will be.", "Q2": "No, the amount of cash at each node of the web may be different each time.", "Q3": "To get the highest total score.", "Q4": "Only before moving the spider.", "Q5": "3 seconds"}, "trial_id": "mouselab_quiz_control", "trial_type": "survey-multi-choice", "trial_index": 25, "time_elapsed": 1000191, "internal_node_id": "0.0-2.3-4.3"}}, {"uniqueid": "w16433856:a23820477", "current_trial": 26, "dateTime": 1691160464497, "trialdata": {"rt": 2414, "stimulus": "\n<h1> Get ready to start the game! </h1>\n\nThank you for reading the instructions. Get ready start with the 40 rounds of this game.\n<br><br>\nIf you need to take a break, feel free to take one after the end of a round, before continuing to the next one.\n<br><br>\nRemember, the more money the spider gets, the bigger your bonus will be!\n<br><br>\n<div style='text-align: center;'>Press <code>space</code> to begin.</div>\n\n<br><br>\n(If, at any point, the <code>space</code> key does not take you to the next page, click once on the text and try again.)", "response": " ", "trial_id": "mdp_ready", "trial_type": "html-keyboard-response", "trial_index": 26, "time_elapsed": 1002635, "internal_node_id": "0.0-4.0-0.0"}}, {"uniqueid": "w16433856:a23820477", "current_trial": 27, "dateTime": 1691160486971, "trialdata": {"revealed_states": [], "clicked_states": ["1", "2", "3", "8", "11"], "num_clicks_accrued": [0, 0, 0, 0, 0, 0, 0, 0, 0, 0, 0, 0, 0], "stateRewards": ["", 2, 3, 6, -12, -29, 12, 87, 4, 35, -30, 67, 2, 3, -5, -9, 44, 69, -8, 1, 45, -8, 28, -2, -1, -8, 11, -12, -5, 81, 9, 87, 82, 88], "withholdReward": false, "trial_id": "mdp_trial_1", "block": "test", "trialIndex": 8, "score": 75, "costs": -7, "simulationMode": [null, null, null, null, null], "rewards": [2, 3, 6, 4, 67], "path": ["0", "0", "1", "2", "3", "8", "11"], "rt": [12703, 88, 965, 269, 122], "actions": ["up", "up", "up", "left", "left"], "actionTimes": [15518, 16235, 17950, 18743, 19399], "queries": {"click": {"state": {"target": ["1", "2", "3", "8", "11"], "time": [4040, 5723, 7858, 9911, 12266]}, "edge": {"target": [], "time": []}}, "mouseover": {"state": {"target": ["1", "2", "3", "8", "11", "10"], "time": [3623, 4656, 7245, 8990, 11727, 14437]}, "edge": {"target": [], "time": []}}, "mouseout": {"state": {"target": ["0", "1", "2", "3", "3", "8", "11", "8", "10"], "time": [3025, 4259, 7076, 8094, 8808, 10891, 13514, 13626, 14537]}, "edge": {"target": [], "time": []}}}, "displayed_time": "19.91", "trialTime": 21554, "trial_type": "mouselab-mdp", "trial_index": 27, "time_elapsed": 1025109, "internal_node_id": "0.0-4.0-1.0-0.0"}}, {"uniqueid": "w16433856:a23820477", "current_trial": 28, "dateTime": 1691160528573, "trialdata": {"revealed_states": [], "clicked_states": ["12", "13", "14", "23", "24", "25", "30", "33", "26", "27", "28"], "num_clicks_accrued": [0, 0, 0, 0, 0, 0, 0, 0, 0, 0, 0, 0, 0], "stateRewards": ["", -1, -2, -1, -10, -57, 73, -72, -16, 75, -14, -46, -2, -3, -7, -1, -61, -60, 76, -4, 50, 4, 14, 2, 2, -7, 12, -65, -32, 15, -8, -76, -25, -61], "withholdReward": false, "trial_id": "mdp_trial_2", "block": "test", "trialIndex": 9, "score": 8.599999999999998, "costs": -15.400000000000002, "simulationMode": [null, null, null, null, null], "rewards": [2, 2, -7, 12, 15], "path": ["0", "0", "23", "24", "25", "26", "29"], "rt": [32056, 997, 443, 135, 365], "actions": ["left", "left", "left", "up", "left"], "actionTimes": [35139, 36665, 37646, 38319, 39215], "queries": {"click": {"state": {"target": ["12", "13", "14", "23", "24", "25", "30", "33", "26", "27", "28"], "time": [4536, 6513, 8547, 11927, 14037, 16682, 19639, 22589, 25861, 29056, 31706]}, "edge": {"target": [], "time": []}}, "mouseover": {"state": {"target": ["12", "12", "13", "14", "19", "22", "23", "24", "25", "30", "33", "26", "26", "27", "28", "29"], "time": [3865, 4114, 5064, 7033, 9582, 10821, 11380, 13183, 16134, 19231, 22150, 24899, 25331, 28149, 31215, 33547]}, "edge": {"target": [], "time": []}}, "mouseout": {"state": {"target": ["1", "12", "12", "13", "14", "19", "22", "23", "24", "25", "30", "30", "33", "26", "26", "27", "28"], "time": [1830, 3933, 5019, 6985, 9382, 10733, 10842, 12166, 16099, 19148, 21799, 22100, 22832, 24982, 28066, 30948, 31928]}, "edge": {"target": [], "time": []}}}, "displayed_time": "39.73", "trialTime": 40868, "trial_type": "mouselab-mdp", "trial_index": 28, "time_elapsed": 1066711, "internal_node_id": "0.0-4.0-1.0-1.0"}}, {"uniqueid": "w16433856:a23820477", "current_trial": 29, "dateTime": 1691160548570, "trialdata": {"revealed_states": [], "clicked_states": [], "num_clicks_accrued": [0, 0, 0, 0, 0, 0, 0, 0, 0, 0, 0, 0, 0], "stateRewards": ["", -2, 2, -4, -4, -59, 88, 62, -3, 69, -15, -34, 1, -2, -5, 7, -54, -20, 78, -16, -74, -53, -21, 2, -4, 2, 13, -8, -44, 26, 9, 72, 4, 17], "withholdReward": false, "trial_id": "mdp_trial_3", "block": "test", "trialIndex": 10, "score": 80, "costs": 0, "simulationMode": [null, null, null, null, null], "rewards": [-2, 2, -4, -4, 88], "path": ["0", "0", "1", "2", "3", "4", "6"], "rt": [1302, 869, 447, 176, 3], "actions": ["up", "up", "up", "right", "right"], "actionTimes": [5216, 6613, 7591, 8302, 8829], "queries": {"click": {"state": {"target": [], "time": []}, "edge": {"target": [], "time": []}}, "mouseover": {"state": {"target": [], "time": []}, "edge": {"target": [], "time": []}}, "mouseout": {"state": {"target": ["29", "26", "28", "23", "0", "23", "1", "7", "4", "6", "18", "12"], "time": [2671, 2715, 2762, 2939, 12457, 14724, 14810, 15171, 16659, 17674, 18723, 18806]}, "edge": {"target": [], "time": []}}}, "displayed_time": "17.91", "trialTime": 19107, "trial_type": "mouselab-mdp", "trial_index": 29, "time_elapsed": 1086708, "internal_node_id": "0.0-4.0-1.0-2.0"}}, {"uniqueid": "w16433856:a23820477", "current_trial": 30, "dateTime": 1691160567088, "trialdata": {"revealed_states": [], "clicked_states": [], "num_clicks_accrued": [0, 0, 0, 0, 0, 0, 0, 0, 0, 0, 0, 0, 0], "stateRewards": ["", -2, 2, 3, -7, -31, -33, 29, -8, -57, 50, -83, -1, -1, 5, 13, -23, -62, 25, 5, -66, -85, 14, 1, -2, -1, 16, 71, 33, -19, -14, 5, -43, 79], "withholdReward": false, "trial_id": "mdp_trial_4", "block": "test", "trialIndex": 11, "score": -77, "costs": 0, "simulationMode": [null, null, null, null, null], "rewards": [-1, -1, 5, 5, -85], "path": ["0", "0", "12", "13", "14", "19", "21"], "rt": [1843, 3, 53, 168, 99], "actions": ["right", "right", "right", "down", "down"], "actionTimes": [4130, 4666, 5231, 5931, 6557], "queries": {"click": {"state": {"target": [], "time": []}, "edge": {"target": [], "time": []}}, "mouseover": {"state": {"target": [], "time": []}, "edge": {"target": [], "time": []}}, "mouseout": {"state": {"target": ["12", "0", "0"], "time": [972, 1023, 14006]}, "edge": {"target": [], "time": []}}}, "displayed_time": "16.29", "trialTime": 17559, "trial_type": "mouselab-mdp", "trial_index": 30, "time_elapsed": 1105226, "internal_node_id": "0.0-4.0-1.0-3.0"}}, {"uniqueid": "w16433856:a23820477", "current_trial": 31, "dateTime": 1691160585560, "trialdata": {"revealed_states": [], "clicked_states": [], "num_clicks_accrued": [0, 0, 0, 0, 0, 0, 0, 0, 0, 0, 0, 0, 0], "stateRewards": ["", -1, 3, -7, 16, -32, -74, -48, 2, 10, 15, -30, 1, 1, -2, 10, 12, -83, 67, 13, -66, 47, 65, -2, 4, 2, -14, -8, -57, 24, 9, 65, 12, 46], "withholdReward": false, "trial_id": "mdp_trial_5", "block": "test", "trialIndex": 12, "score": 78, "costs": 0, "simulationMode": [null, null, null, null, null], "rewards": [-2, 4, 2, 9, 65], "path": ["0", "0", "23", "24", "25", "30", "31"], "rt": [1352, 41, 642, 41, 949], "actions": ["left", "left", "left", "down", "right"], "actionTimes": [3293, 3860, 5024, 5605, 7063], "queries": {"click": {"state": {"target": [], "time": []}, "edge": {"target": [], "time": []}}, "mouseover": {"state": {"target": [], "time": []}, "edge": {"target": [], "time": []}}, "mouseout": {"state": {"target": ["0", "0"], "time": [1391, 10412]}, "edge": {"target": [], "time": []}}}, "displayed_time": "15.94", "trialTime": 17623, "trial_type": "mouselab-mdp", "trial_index": 31, "time_elapsed": 1123698, "internal_node_id": "0.0-4.0-1.0-4.0"}}, {"uniqueid": "w16433856:a23820477", "current_trial": 32, "dateTime": 1691160609535, "trialdata": {"revealed_states": [], "clicked_states": [], "num_clicks_accrued": [0, 0, 0, 0, 0, 0, 0, 0, 0, 0, 0, 0, 0], "stateRewards": ["", -1, 2, -6, 6, 43, 78, 78, -2, 55, -29, -17, -2, -4, 1, -15, 13, 7, -79, 8, -28, -68, 36, -1, -3, 3, -16, 84, -18, 87, 10, 32, 13, -81], "withholdReward": false, "trial_id": "mdp_trial_6", "block": "test", "trialIndex": 13, "score": -24, "costs": 0, "simulationMode": [null, null, null, null, null], "rewards": [-1, 2, -6, -2, -17], "path": ["0", "0", "1", "2", "3", "8", "11"], "rt": [1565, 35, 30, 143, 200], "actions": ["up", "up", "up", "left", "left"], "actionTimes": [7492, 8060, 8622, 9305, 10045], "queries": {"click": {"state": {"target": [], "time": []}, "edge": {"target": [], "time": []}}, "mouseover": {"state": {"target": [], "time": []}, "edge": {"target": [], "time": []}}, "mouseout": {"state": {"target": ["0", "12", "13"], "time": [5386, 22692, 22730]}, "edge": {"target": [], "time": []}}}, "displayed_time": "19.93", "trialTime": 23127, "trial_type": "mouselab-mdp", "trial_index": 32, "time_elapsed": 1147673, "internal_node_id": "0.0-4.0-1.0-5.0"}}, {"uniqueid": "w16433856:a23820477", "current_trial": 33, "dateTime": 1691160630365, "trialdata": {"revealed_states": [], "clicked_states": [], "num_clicks_accrued": [0, 0, 0, 0, 0, 0, 0, 0, 0, 0, 0, 0, 0], "stateRewards": ["", 1, 1, 4, 11, 83, -66, 18, -16, -23, 5, 25, 1, -3, 1, -12, 18, 24, -86, -11, -64, 36, 40, 2, 1, -6, 13, 55, 29, 72, -2, 81, -72, -41], "withholdReward": false, "trial_id": "mdp_trial_7", "block": "test", "trialIndex": 14, "score": -33, "costs": 0, "simulationMode": [null, null, null, null, null], "rewards": [1, 1, 4, -16, -23], "path": ["0", "0", "1", "2", "3", "8", "9"], "rt": [1624, 853, 12, 64, 515], "actions": ["up", "up", "up", "left", "up"], "actionTimes": [4799, 6187, 6712, 7297, 8347], "queries": {"click": {"state": {"target": [], "time": []}, "edge": {"target": [], "time": []}}, "mouseover": {"state": {"target": [], "time": []}, "edge": {"target": [], "time": []}}, "mouseout": {"state": {"target": ["19", "12", "0"], "time": [1627, 1962, 2447]}, "edge": {"target": [], "time": []}}}, "displayed_time": "17.18", "trialTime": 19565, "trial_type": "mouselab-mdp", "trial_index": 33, "time_elapsed": 1168503, "internal_node_id": "0.0-4.0-1.0-6.0"}}, {"uniqueid": "w16433856:a23820477", "current_trial": 34, "dateTime": 1691160653408, "trialdata": {"revealed_states": [], "clicked_states": [], "num_clicks_accrued": [0, 0, 0, 0, 0, 0, 0, 0, 0, 0, 0, 0, 0], "stateRewards": ["", 2, -1, 1, 10, -52, 86, -22, -2, -14, -63, 38, 1, 3, 7, -8, 11, -32, -27, 9, -71, 40, -87, -2, -1, 5, -7, 12, 31, -57, 13, 86, -58, 29], "withholdReward": false, "trial_id": "mdp_trial_8", "block": "test", "trialIndex": 15, "score": 60, "costs": 0, "simulationMode": [null, null, null, null, null], "rewards": [1, 3, 7, 9, 40], "path": ["0", "0", "12", "13", "14", "19", "21"], "rt": [5013, 236, 894, 270, 445], "actions": ["right", "right", "right", "down", "down"], "actionTimes": [7268, 8030, 9456, 10251, 11207], "queries": {"click": {"state": {"target": [], "time": []}, "edge": {"target": [], "time": []}}, "mouseover": {"state": {"target": [], "time": []}, "edge": {"target": [], "time": []}}, "mouseout": {"state": {"target": ["0", "0", "10", "12", "0"], "time": [1318, 18208, 18574, 20773, 21273]}, "edge": {"target": [], "time": []}}}, "displayed_time": "16.26", "trialTime": 21869, "trial_type": "mouselab-mdp", "trial_index": 34, "time_elapsed": 1191540, "internal_node_id": "0.0-4.0-1.0-7.0"}}, {"uniqueid": "w16433856:a23820477", "current_trial": 35, "dateTime": 1691160679646, "trialdata": {"revealed_states": [], "clicked_states": ["3"], "num_clicks_accrued": [0, 0, 0, 0, 0, 0, 0, 0, 0, 0, 0, 0, 0], "stateRewards": ["", -2, -3, 8, -4, -30, 31, 69, 9, 66, 87, 64, -2, 2, 8, 5, 47, 16, -39, -8, -54, 51, -19, 1, -2, -2, -11, -25, -26, 43, -9, 19, -84, 86], "withholdReward": false, "trial_id": "mdp_trial_9", "block": "test", "trialIndex": 16, "score": -32.4, "costs": -1.4, "simulationMode": [null, null, null, null, null], "rewards": [-2, -3, 8, -4, -30], "path": ["0", "0", "1", "2", "3", "4", "5"], "rt": [6379, 191, 500, 2706, 162], "actions": ["up", "up", "up", "right", "up"], "actionTimes": [8606, 9309, 10334, 13557, 14246], "queries": {"click": {"state": {"target": ["3"], "time": [3982]}, "edge": {"target": [], "time": []}}, "mouseover": {"state": {"target": ["1", "2", "3", "4", "7", "1", "23", "23", "31", "31"], "time": [2797, 3198, 3430, 4962, 5338, 5449, 5544, 6983, 7498, 7948]}, "edge": {"target": [], "time": []}}, "mouseout": {"state": {"target": ["0", "1", "2", "3", "3", "4", "7", "1", "23", "23", "31", "31", "22", "12"], "time": [1214, 3130, 3263, 4205, 4918, 5304, 5379, 5491, 5664, 7050, 7815, 11549, 12332, 12648]}, "edge": {"target": [], "time": []}}}, "displayed_time": "16.23", "trialTime": 25084, "trial_type": "mouselab-mdp", "trial_index": 35, "time_elapsed": 1217785, "internal_node_id": "0.0-4.0-1.0-8.0"}}, {"uniqueid": "w16433856:a23820477", "current_trial": 36, "dateTime": 1691160700557, "trialdata": {"revealed_states": [], "clicked_states": [], "num_clicks_accrued": [0, 0, 0, 0, 0, 0, 0, 0, 0, 0, 0, 0, 0], "stateRewards": ["", 2, -1, -3, 16, -3, -16, -62, -1, 13, -26, 43, -1, 4, 3, -9, -54, -37, -3, -12, -71, -68, -57, 1, -3, 2, -9, 2, -2, -9, -11, 84, -52, 55], "withholdReward": false, "trial_id": "mdp_trial_10", "block": "test", "trialIndex": 17, "score": -7, "costs": 0, "simulationMode": [null, null, null, null, null], "rewards": [1, -3, 2, -9, 2], "path": ["0", "0", "23", "24", "25", "26", "27"], "rt": [1095, 73, 519, 112, 12], "actions": ["left", "left", "left", "up", "up"], "actionTimes": [3562, 4144, 5188, 5832, 6380], "queries": {"click": {"state": {"target": [], "time": []}, "edge": {"target": [], "time": []}}, "mouseover": {"state": {"target": [], "time": []}, "edge": {"target": [], "time": []}}, "mouseout": {"state": {"target": ["7", "1", "0"], "time": [1065, 1333, 18616]}, "edge": {"target": [], "time": []}}}, "displayed_time": "16.47", "trialTime": 19547, "trial_type": "mouselab-mdp", "trial_index": 36, "time_elapsed": 1238695, "internal_node_id": "0.0-4.0-1.0-9.0"}}, {"uniqueid": "w16433856:a23820477", "current_trial": 37, "dateTime": 1691160717958, "trialdata": {"revealed_states": [], "clicked_states": [], "num_clicks_accrued": [0, 0, 0, 0, 0, 0, 0, 0, 0, 0, 0, 0, 0], "stateRewards": ["", 2, -4, 4, 9, 69, 9, -75, 12, -86, 66, 25, -1, 3, 2, -13, -88, -3, 1, 4, -69, 49, -84, 2, -1, 4, 2, -18, -81, -52, -15, -69, -54, 25], "withholdReward": false, "trial_id": "mdp_trial_11", "block": "test", "trialIndex": 18, "score": -76, "costs": 0, "simulationMode": [null, null, null, null, null], "rewards": [-1, 3, 2, 4, -84], "path": ["0", "0", "12", "13", "14", "19", "22"], "rt": [682, 285, 449, 1106, 335], "actions": ["right", "right", "right", "down", "left"], "actionTimes": [2122, 2934, 3915, 5556, 6401], "queries": {"click": {"state": {"target": [], "time": []}, "edge": {"target": [], "time": []}}, "mouseover": {"state": {"target": [], "time": []}, "edge": {"target": [], "time": []}}, "mouseout": {"state": {"target": [], "time": []}, "edge": {"target": [], "time": []}}}, "displayed_time": "15.44", "trialTime": 16026, "trial_type": "mouselab-mdp", "trial_index": 37, "time_elapsed": 1256095, "internal_node_id": "0.0-4.0-1.0-10.0"}}, {"uniqueid": "w16433856:a23820477", "current_trial": 38, "dateTime": 1691160737379, "trialdata": {"revealed_states": [], "clicked_states": [], "num_clicks_accrued": [0, 0, 0, 0, 0, 0, 0, 0, 0, 0, 0, 0, 0], "stateRewards": ["", -1, -2, -8, 8, -27, -82, 19, -14, -62, 4, 1, -2, 2, 6, 10, 73, -51, -2, 2, 73, -48, 54, -1, 2, -4, 11, -25, 47, 86, 15, 33, 43, -42], "withholdReward": false, "trial_id": "mdp_trial_12", "block": "test", "trialIndex": 19, "score": -87, "costs": 0, "simulationMode": [null, null, null, null, null], "rewards": [-1, -2, -8, -14, -62], "path": ["0", "0", "1", "2", "3", "8", "9"], "rt": [1012, 141, 684, 7, 62], "actions": ["up", "up", "up", "left", "up"], "actionTimes": [3626, 4288, 5534, 6070, 6657], "queries": {"click": {"state": {"target": [], "time": []}, "edge": {"target": [], "time": []}}, "mouseover": {"state": {"target": [], "time": []}, "edge": {"target": [], "time": []}}, "mouseout": {"state": {"target": ["0", "0", "10", "8", "8", "10", "8", "9", "8", "10"], "time": [1491, 8759, 9510, 9530, 11226, 17576, 17642, 17774, 17810, 17829]}, "edge": {"target": [], "time": []}}}, "displayed_time": "16.61", "trialTime": 18015, "trial_type": "mouselab-mdp", "trial_index": 38, "time_elapsed": 1275518, "internal_node_id": "0.0-4.0-1.0-11.0"}}, {"uniqueid": "w16433856:a23820477", "current_trial": 39, "dateTime": 1691160756110, "trialdata": {"revealed_states": [], "clicked_states": [], "num_clicks_accrued": [0, 0, 0, 0, 0, 0, 0, 0, 0, 0, 0, 0, 0], "stateRewards": ["", -1, -3, -5, -14, -13, -47, 79, 8, -60, -64, 41, -1, 2, 3, 13, -46, 61, -79, -11, -64, -65, 23, 1, -2, 6, -14, 46, 32, 21, 7, 75, -66, 15], "withholdReward": false, "trial_id": "mdp_trial_13", "block": "test", "trialIndex": 20, "score": 37, "costs": 0, "simulationMode": [null, null, null, null, null], "rewards": [1, -2, 6, -14, 46], "path": ["0", "0", "23", "24", "25", "26", "27"], "rt": [1028, 596, 3546, 141, 187], "actions": ["left", "left", "left", "up", "up"], "actionTimes": [3461, 4589, 8654, 9328, 10045], "queries": {"click": {"state": {"target": [], "time": []}, "edge": {"target": [], "time": []}}, "mouseover": {"state": {"target": [], "time": []}, "edge": {"target": [], "time": []}}, "mouseout": {"state": {"target": ["0", "26", "27"], "time": [5337, 8001, 8318]}, "edge": {"target": [], "time": []}}}, "displayed_time": "16.43", "trialTime": 17821, "trial_type": "mouselab-mdp", "trial_index": 39, "time_elapsed": 1294248, "internal_node_id": "0.0-4.0-1.0-12.0"}}, {"uniqueid": "w16433856:a23820477", "current_trial": 40, "dateTime": 1691160776683, "trialdata": {"revealed_states": [], "clicked_states": [], "num_clicks_accrued": [0, 0, 0, 0, 0, 0, 0, 0, 0, 0, 0, 0, 0], "stateRewards": ["", 1, 1, -3, 7, 49, 78, 26, -5, 26, 48, -43, -1, -3, 2, -5, 4, -1, -60, 10, -35, 51, 81, -2, 1, -7, -5, -39, -86, -54, 4, -3, 74, 77], "withholdReward": false, "trial_id": "mdp_trial_14", "block": "test", "trialIndex": 21, "score": -49, "costs": 0, "simulationMode": [null, null, null, null, null], "rewards": [1, 1, -3, -5, -43], "path": ["0", "0", "1", "2", "3", "8", "11"], "rt": [6697, 1426, 412, 2285, 22], "actions": ["up", "up", "up", "left", "left"], "actionTimes": [9849, 11799, 12732, 15541, 16082], "queries": {"click": {"state": {"target": [], "time": []}, "edge": {"target": [], "time": []}}, "mouseover": {"state": {"target": ["1", "2", "7"], "time": [5902, 6035, 6201]}, "edge": {"target": [], "time": []}}, "mouseout": {"state": {"target": ["26", "24", "23", "0", "1", "2"], "time": [1400, 1501, 1602, 5869, 5934, 6118]}, "edge": {"target": [], "time": []}}}, "displayed_time": "17.15", "trialTime": 19327, "trial_type": "mouselab-mdp", "trial_index": 40, "time_elapsed": 1314820, "internal_node_id": "0.0-4.0-1.0-13.0"}}, {"uniqueid": "w16433856:a23820477", "current_trial": 41, "dateTime": 1691160794819, "trialdata": {"revealed_states": [], "clicked_states": [], "num_clicks_accrued": [0, 0, 0, 0, 0, 0, 0, 0, 0, 0, 0, 0, 0], "stateRewards": ["", -2, 1, 6, -2, -10, -78, -69, 14, -15, 7, -1, 1, -1, -2, 13, 77, 32, 87, 5, -74, 30, -26, 1, 3, 4, 12, 39, 54, -43, 2, 10, 23, 13], "withholdReward": false, "trial_id": "mdp_trial_15", "block": "test", "trialIndex": 22, "score": 43, "costs": 0, "simulationMode": [null, null, null, null, null], "rewards": [1, -1, -2, 13, 32], "path": ["0", "0", "12", "13", "14", "15", "17"], "rt": [1503, 227, 504, 5, 455], "actions": ["right", "right", "right", "up", "right"], "actionTimes": [3998, 4770, 5804, 6393, 7340], "queries": {"click": {"state": {"target": [], "time": []}, "edge": {"target": [], "time": []}}, "mouseover": {"state": {"target": [], "time": []}, "edge": {"target": [], "time": []}}, "mouseout": {"state": {"target": ["7"], "time": [1064]}, "edge": {"target": [], "time": []}}}, "displayed_time": "16.50", "trialTime": 16897, "trial_type": "mouselab-mdp", "trial_index": 41, "time_elapsed": 1332957, "internal_node_id": "0.0-4.0-1.0-14.0"}}, {"uniqueid": "w16433856:a23820477", "current_trial": 42, "dateTime": 1691160821084, "trialdata": {"revealed_states": [], "clicked_states": [], "num_clicks_accrued": [0, 0, 0, 0, 0, 0, 0, 0, 0, 0, 0, 0, 0], "stateRewards": ["", -2, 2, -5, 1, 42, -63, -58, -6, 2, 16, 81, -2, 4, 7, -10, 33, 3, -33, -2, -52, -84, -27, 2, -3, -3, 15, -74, -14, -5, -5, -84, 79, -31], "withholdReward": false, "trial_id": "mdp_trial_16", "block": "test", "trialIndex": 23, "score": -77, "costs": 0, "simulationMode": [null, null, null, null, null], "rewards": [-2, 4, 7, -2, -84], "path": ["0", "0", "12", "13", "14", "19", "21"], "rt": [1106, 181, 264, 147, 52], "actions": ["right", "right", "right", "down", "down"], "actionTimes": [3977, 4693, 5623, 6307, 6877], "queries": {"click": {"state": {"target": [], "time": []}, "edge": {"target": [], "time": []}}, "mouseover": {"state": {"target": [], "time": []}, "edge": {"target": [], "time": []}}, "mouseout": {"state": {"target": ["31", "0"], "time": [1418, 17588]}, "edge": {"target": [], "time": []}}}, "displayed_time": "16.87", "trialTime": 24538, "trial_type": "mouselab-mdp", "trial_index": 42, "time_elapsed": 1359223, "internal_node_id": "0.0-4.0-1.0-15.0"}}, {"uniqueid": "w16433856:a23820477", "current_trial": 43, "dateTime": 1691160838815, "trialdata": {"revealed_states": [], "clicked_states": [], "num_clicks_accrued": [0, 0, 0, 0, 0, 0, 0, 0, 0, 0, 0, 0, 0], "stateRewards": ["", 1, 4, 5, 8, -55, -11, 8, 16, -37, 77, -22, -2, 3, -8, -10, 45, 87, -67, 4, 17, -33, -22, -1, -3, 7, 6, -39, -85, 75, -1, 7, -48, 45], "withholdReward": false, "trial_id": "mdp_trial_17", "block": "test", "trialIndex": 24, "score": 9, "costs": 0, "simulationMode": [null, null, null, null, null], "rewards": [-1, -3, 7, -1, 7], "path": ["0", "0", "23", "24", "25", "30", "31"], "rt": [767, 98, 650, 1255, 197], "actions": ["left", "left", "left", "down", "right"], "actionTimes": [2273, 2898, 4065, 5836, 6563], "queries": {"click": {"state": {"target": [], "time": []}, "edge": {"target": [], "time": []}}, "mouseover": {"state": {"target": [], "time": []}, "edge": {"target": [], "time": []}}, "mouseout": {"state": {"target": [], "time": []}, "edge": {"target": [], "time": []}}}, "displayed_time": "15.51", "trialTime": 16408, "trial_type": "mouselab-mdp", "trial_index": 43, "time_elapsed": 1376953, "internal_node_id": "0.0-4.0-1.0-16.0"}}, {"uniqueid": "w16433856:a23820477", "current_trial": 44, "dateTime": 1691160861838, "trialdata": {"revealed_states": [], "clicked_states": [], "num_clicks_accrued": [0, 0, 0, 0, 0, 0, 0, 0, 0, 0, 0, 0, 0], "stateRewards": ["", -1, -3, 1, 13, -64, -29, 12, -4, -33, 50, 56, 2, -3, 4, 11, -64, -58, -55, 12, 47, 38, -25, -2, 2, 5, -15, 85, 7, 84, 10, 8, 57, 26], "withholdReward": false, "trial_id": "mdp_trial_18", "block": "test", "trialIndex": 25, "score": 24, "costs": 0, "simulationMode": [null, null, null, null, null, null, null, null, null, null, null, null, null, null, null, null, null], "rewards": [-1, -1, -3, -3, 1, 13, 1, -29, -4, 50], "path": ["0", "0", "1", "1", "2", "2", "3", "4", "3", "6", "8", "10"], "rt": [5456, 5410, 699, 335, 633, 115, 482, 3421, 2908, 1706, 2717, 554, 536, 692, 191, 749, 477], "actions": ["up", "up", "up", "up", "up", "up", "up", "up", "up", "right", "up", "up", "up", "right", "right", "left", "down"], "actionTimes": [5404, 5412, 6116, 6122, 6761, 6767, 7254, 10695, 10701, 12925, 13422, 13984, 13989, 14687, 14692, 15445, 16461], "queries": {"click": {"state": {"target": [], "time": []}, "edge": {"target": [], "time": []}}, "mouseover": {"state": {"target": ["13", "12", "0"], "time": [14, 967, 1283]}, "edge": {"target": [], "time": []}}, "mouseout": {"state": {"target": ["0", "13", "12"], "time": [null, 870, 1016]}, "edge": {"target": [], "time": []}}}, "displayed_time": "16.99", "trialTime": 20237, "trial_type": "mouselab-mdp", "trial_index": 44, "time_elapsed": 1399976, "internal_node_id": "0.0-4.0-1.0-17.0"}}, {"uniqueid": "w16433856:a23820477", "current_trial": 45, "dateTime": 1691160862927, "trialdata": {"revealed_states": [], "clicked_states": [], "num_clicks_accrued": [0, 0, 0, 0, 0, 0, 0, 0, 0, 0, 0, 0, 0], "stateRewards": ["", -1, -3, 1, 13, -64, -29, 12, -4, -33, 50, 56, 2, -3, 4, 11, -64, -58, -55, 12, 47, 38, -25, -2, 2, 5, -15, 85, 7, 84, 10, 8, 57, 26], "withholdReward": false, "trial_id": "mdp_trial_18", "block": "test", "trialIndex": 25, "score": 24, "costs": 0, "simulationMode": [null, null, null, null, null, null, null, null, null, null, null, null, null, null, null, null, null], "rewards": [-1, -1, -3, -3, 1, 13, 1, -29, -4, 50], "path": ["0", "0", "1", "1", "2", "2", "3", "4", "3", "6", "8", "10"], "rt": [5456, 5410, 699, 335, 633, 115, 482, 3421, 2908, 1706, 2717, 554, 536, 692, 191, 749, 477], "actions": ["up", "up", "up", "up", "up", "up", "up", "up", "up", "right", "up", "up", "up", "right", "right", "left", "down"], "actionTimes": [5404, 5412, 6116, 6122, 6761, 6767, 7254, 10695, 10701, 12925, 13422, 13984, 13989, 14687, 14692, 15445, 16461], "queries": {"click": {"state": {"target": [], "time": []}, "edge": {"target": [], "time": []}}, "mouseover": {"state": {"target": ["13", "12", "0"], "time": [14, 967, 1283]}, "edge": {"target": [], "time": []}}, "mouseout": {"state": {"target": ["0", "13", "12"], "time": [null, 870, 1016]}, "edge": {"target": [], "time": []}}}, "displayed_time": "16.99", "trialTime": 21327, "trial_type": "mouselab-mdp", "trial_index": 45, "time_elapsed": 1401066, "internal_node_id": "0.0-4.0-1.0-18.0"}}, {"uniqueid": "w16433856:a23820477", "current_trial": 46, "dateTime": 1691160881767, "trialdata": {"revealed_states": [], "clicked_states": [], "num_clicks_accrued": [0, 0, 0, 0, 0, 0, 0, 0, 0, 0, 0, 0, 0], "stateRewards": ["", -2, -3, 1, -7, 39, -67, 16, 5, -20, 73, 66, -1, 4, 5, -3, 23, -68, -87, -8, 3, -3, 17, 1, -4, -2, -13, -32, 34, 61, -5, -11, -18, 12], "withholdReward": false, "trial_id": "mdp_trial_20", "block": "test", "trialIndex": 27, "score": -78, "costs": 0, "simulationMode": [null, null, null, null, null], "rewards": [-2, -3, 1, -7, -67], "path": ["0", "0", "1", "2", "3", "4", "6"], "rt": [758, 808, 1469, 104, 1859], "actions": ["up", "up", "up", "right", "right"], "actionTimes": [3217, 6035, 8041, 8677, 11081], "queries": {"click": {"state": {"target": [], "time": []}, "edge": {"target": [], "time": []}}, "mouseover": {"state": {"target": [], "time": []}, "edge": {"target": [], "time": []}}, "mouseout": {"state": {"target": ["0"], "time": [14819]}, "edge": {"target": [], "time": []}}}, "displayed_time": "16.46", "trialTime": 17225, "trial_type": "mouselab-mdp", "trial_index": 46, "time_elapsed": 1419906, "internal_node_id": "0.0-4.0-1.0-19.0"}}, {"uniqueid": "w16433856:a23820477", "current_trial": 47, "dateTime": 1691160909079, "trialdata": {"revealed_states": [], "clicked_states": [], "num_clicks_accrued": [0, 0, 0, 0, 0, 0, 0, 0, 0, 0, 0, 0, 0], "stateRewards": ["", 1, 2, -3, -5, 66, -50, -47, -5, 1, 28, -27, 1, 1, -1, -6, 37, -25, 56, 1, -82, -66, -40, -1, -4, -7, 15, -61, -23, 26, 10, 14, -56, 29], "withholdReward": false, "trial_id": "mdp_trial_21", "block": "test", "trialIndex": 28, "score": 32, "costs": 0, "simulationMode": [null, null, null, null, null], "rewards": [1, 1, -1, -6, 37], "path": ["0", "0", "12", "13", "14", "15", "16"], "rt": [1507, 21, 570, 162, 17703], "actions": ["right", "right", "right", "up", "up"], "actionTimes": [3535, 4522, 5616, 6298, 24533], "queries": {"click": {"state": {"target": [], "time": []}, "edge": {"target": [], "time": []}}, "mouseover": {"state": {"target": [], "time": []}, "edge": {"target": [], "time": []}}, "mouseout": {"state": {"target": [], "time": []}, "edge": {"target": [], "time": []}}}, "displayed_time": "25.05", "trialTime": 25979, "trial_type": "mouselab-mdp", "trial_index": 47, "time_elapsed": 1447217, "internal_node_id": "0.0-4.0-1.0-20.0"}}, {"uniqueid": "w16433856:a23820477", "current_trial": 48, "dateTime": 1691160928421, "trialdata": {"revealed_states": [], "clicked_states": ["13", "22"], "num_clicks_accrued": [0, 0, 0, 0, 0, 0, 0, 0, 0, 0, 0, 0, 0], "stateRewards": ["", 2, -1, 5, 8, 75, -35, -77, 1, -9, -81, -58, 1, 2, -7, 5, 77, -16, 19, 16, -10, -18, 40, -2, 3, 7, -5, 64, 1, -62, 10, 27, 10, 65], "withholdReward": false, "trial_id": "mdp_trial_22", "block": "test", "trialIndex": 29, "score": 49.2, "costs": -2.8, "simulationMode": [null, null, null, null, null], "rewards": [1, 2, -7, 16, 40], "path": ["0", "0", "12", "13", "14", "19", "22"], "rt": [6558, 283, 651, 56, 225], "actions": ["right", "right", "right", "down", "left"], "actionTimes": [8763, 9570, 10739, 11327, 12081], "queries": {"click": {"state": {"target": ["13", "22"], "time": [3750, 6330]}, "edge": {"target": [], "time": []}}, "mouseover": {"state": {"target": ["12", "13", "19", "22", "19", "20"], "time": [2836, 3302, 4519, 5350, 6961, 7009]}, "edge": {"target": [], "time": []}}, "mouseout": {"state": {"target": ["0", "12", "13", "19", "22", "19", "20"], "time": [918, 2952, 4290, 4634, 6938, 6987, 7073]}, "edge": {"target": [], "time": []}}}, "displayed_time": "16.20", "trialTime": 17277, "trial_type": "mouselab-mdp", "trial_index": 48, "time_elapsed": 1466559, "internal_node_id": "0.0-4.0-1.0-21.0"}}, {"uniqueid": "w16433856:a23820477", "current_trial": 49, "dateTime": 1691160949489, "trialdata": {"revealed_states": [], "clicked_states": ["31", "25"], "num_clicks_accrued": [0, 0, 0, 0, 0, 0, 0, 0, 0, 0, 0, 0, 0], "stateRewards": ["", 1, 1, 1, -3, -7, -1, -41, -10, 20, -72, -63, 1, -4, -2, 2, -66, 30, -84, -2, 49, 23, 71, -1, -4, 4, -12, 67, 5, 18, -16, 88, 56, -5], "withholdReward": false, "trial_id": "mdp_trial_23", "block": "test", "trialIndex": 30, "score": 68.2, "costs": -2.8, "simulationMode": [null, null, null, null, null], "rewards": [-1, -4, 4, -16, 88], "path": ["0", "0", "23", "24", "25", "30", "31"], "rt": [7762, 44, 392, 46, 632], "actions": ["left", "left", "left", "down", "right"], "actionTimes": [11687, 12383, 13320, 13896, 15066], "queries": {"click": {"state": {"target": ["31", "25"], "time": [5501, 9727]}, "edge": {"target": [], "time": []}}, "mouseover": {"state": {"target": ["31", "31", "32", "30", "25"], "time": [4735, 5096, 6414, 9073, 9446]}, "edge": {"target": [], "time": []}}, "mouseout": {"state": {"target": ["14", "13", "12", "0", "31", "31", "32", "30", "25"], "time": [2249, 2449, 2646, 4666, 4761, 6326, 9006, 9177, 10199]}, "edge": {"target": [], "time": []}}}, "displayed_time": "17.93", "trialTime": 19641, "trial_type": "mouselab-mdp", "trial_index": 49, "time_elapsed": 1487626, "internal_node_id": "0.0-4.0-1.0-22.0"}}, {"uniqueid": "w16433856:a23820477", "current_trial": 50, "dateTime": 1691160969277, "trialdata": {"revealed_states": [], "clicked_states": ["7", "10"], "num_clicks_accrued": [0, 0, 0, 0, 0, 0, 0, 0, 0, 0, 0, 0, 0], "stateRewards": ["", -2, -4, 6, 14, -34, 49, 36, -8, -3, 32, -4, 1, -2, 1, -8, -20, -71, -57, -7, -86, -62, -16, -2, -3, -5, 11, 23, -21, 53, 5, -5, 85, 73], "withholdReward": false, "trial_id": "mdp_trial_24", "block": "test", "trialIndex": 31, "score": 47.2, "costs": -2.8, "simulationMode": [null, null, null, null, null], "rewards": [-2, -4, 6, 14, 36], "path": ["0", "0", "1", "2", "3", "4", "7"], "rt": [7398, 215, 335, 14, 198], "actions": ["up", "up", "up", "right", "down"], "actionTimes": [10298, 11048, 11932, 12479, 13213], "queries": {"click": {"state": {"target": ["7", "10"], "time": [4565, 7090]}, "edge": {"target": [], "time": []}}, "mouseover": {"state": {"target": ["7", "10"], "time": [4246, 5630]}, "edge": {"target": [], "time": []}}, "mouseout": {"state": {"target": ["0", "7", "10"], "time": [1864, 5595, 7768]}, "edge": {"target": [], "time": []}}}, "displayed_time": "16.90", "trialTime": 18280, "trial_type": "mouselab-mdp", "trial_index": 50, "time_elapsed": 1507415, "internal_node_id": "0.0-4.0-1.0-23.0"}}, {"uniqueid": "w16433856:a23820477", "current_trial": 51, "dateTime": 1691160995387, "trialdata": {"revealed_states": [], "clicked_states": ["16", "17", "20", "21", "22", "11"], "num_clicks_accrued": [0, 0, 0, 0, 0, 0, 0, 0, 0, 0, 0, 0, 0], "stateRewards": ["", 2, -1, -1, -9, -81, -30, 55, -6, 78, 25, 62, 2, 4, -1, 9, -85, 1, -19, 1, -60, 12, -34, 1, 4, -1, -13, -24, -16, -83, -8, 16, 43, 9], "withholdReward": false, "trial_id": "mdp_trial_25", "block": "test", "trialIndex": 32, "score": 47.6, "costs": -8.4, "simulationMode": [null, null, null, null, null], "rewards": [2, -1, -1, -6, 62], "path": ["0", "0", "1", "2", "3", "8", "11"], "rt": [16890, 410, 503, 151, 87], "actions": ["up", "up", "up", "left", "left"], "actionTimes": [18876, 19814, 20846, 21536, 22143], "queries": {"click": {"state": {"target": ["16", "17", "20", "21", "22", "11"], "time": [3516, 5558, 7743, 9873, 12818, 15470]}, "edge": {"target": [], "time": []}}, "mouseover": {"state": {"target": ["15", "17", "16", "17", "20", "21", "22", "12", "1", "10", "11", "8"], "time": [2734, 2786, 3103, 4027, 6402, 8540, 10520, 13456, 13511, 14054, 14917, 16041]}, "edge": {"target": [], "time": []}}, "mouseout": {"state": {"target": ["15", "17", "16", "17", "17", "20", "21", "22", "12", "1", "10", "11", "8"], "time": [2759, 2901, 3956, 5787, 6123, 8303, 10097, 13427, 13485, 13533, 14073, 15699, 16080]}, "edge": {"target": [], "time": []}}}, "displayed_time": "22.66", "trialTime": 24514, "trial_type": "mouselab-mdp", "trial_index": 51, "time_elapsed": 1533526, "internal_node_id": "0.0-4.0-1.0-24.0"}}, {"uniqueid": "w16433856:a23820477", "current_trial": 52, "dateTime": 1691161014594, "trialdata": {"revealed_states": [], "clicked_states": [], "num_clicks_accrued": [0, 0, 0, 0, 0, 0, 0, 0, 0, 0, 0, 0, 0], "stateRewards": ["", -2, -1, -2, -15, 87, 57, 29, -10, 77, -80, -7, 1, -3, 6, 14, -11, 87, -59, 4, -71, 16, -11, 2, 2, -7, 2, -47, 61, 50, 14, -20, 17, 81], "withholdReward": false, "trial_id": "mdp_trial_26", "block": "test", "trialIndex": 33, "score": -48, "costs": 0, "simulationMode": [null, null, null, null, null], "rewards": [2, 2, -7, 2, -47], "path": ["0", "0", "23", "24", "25", "26", "27"], "rt": [5757, 26, 718, 49, 81], "actions": ["left", "left", "left", "up", "up"], "actionTimes": [8941, 9504, 10748, 11310, 11960], "queries": {"click": {"state": {"target": [], "time": []}, "edge": {"target": [], "time": []}}, "mouseover": {"state": {"target": ["3", "33", "29"], "time": [4725, 6157, 6395]}, "edge": {"target": [], "time": []}}, "mouseout": {"state": {"target": ["3", "7", "12", "0", "3", "33", "29", "26", "23"], "time": [841, 880, 1823, 2073, 5265, 6341, 12858, 12894, 13058]}, "edge": {"target": [], "time": []}}}, "displayed_time": "17.19", "trialTime": 18245, "trial_type": "mouselab-mdp", "trial_index": 52, "time_elapsed": 1552732, "internal_node_id": "0.0-4.0-1.0-25.0"}}, {"uniqueid": "w16433856:a23820477", "current_trial": 53, "dateTime": 1691161033032, "trialdata": {"revealed_states": [], "clicked_states": ["21"], "num_clicks_accrued": [0, 0, 0, 0, 0, 0, 0, 0, 0, 0, 0, 0, 0], "stateRewards": ["", 2, -1, 8, -2, -16, 69, -39, -7, -13, -27, -86, 2, -2, 2, 13, -34, -16, -20, -5, 19, 81, 32, -2, -1, 2, -14, 20, 80, 58, 4, 70, 12, 73], "withholdReward": false, "trial_id": "mdp_trial_27", "block": "test", "trialIndex": 34, "score": 76.6, "costs": -1.4, "simulationMode": [null, null, null, null, null], "rewards": [2, -2, 2, -5, 81], "path": ["0", "0", "12", "13", "14", "19", "21"], "rt": [4718, 106, 859, 8, 21], "actions": ["right", "right", "right", "down", "down"], "actionTimes": [6220, 6860, 8233, 8760, 9316], "queries": {"click": {"state": {"target": ["21"], "time": [2864]}, "edge": {"target": [], "time": []}}, "mouseover": {"state": {"target": ["22", "21", "22", "22"], "time": [2136, 2203, 3387, 3638]}, "edge": {"target": [], "time": []}}, "mouseout": {"state": {"target": ["0", "22", "21", "22", "22"], "time": [2085, 2158, 3085, 3448, 11819]}, "edge": {"target": [], "time": []}}}, "displayed_time": "15.50", "trialTime": 16893, "trial_type": "mouselab-mdp", "trial_index": 53, "time_elapsed": 1571170, "internal_node_id": "0.0-4.0-1.0-26.0"}}, {"uniqueid": "w16433856:a23820477", "current_trial": 54, "dateTime": 1691161053948, "trialdata": {"revealed_states": [], "clicked_states": ["32", "27", "10", "11"], "num_clicks_accrued": [0, 0, 0, 0, 0, 0, 0, 0, 0, 0, 0, 0, 0], "stateRewards": ["", -1, 1, 8, -8, -49, 62, -78, 16, 28, -81, 78, -2, -3, -1, -4, 67, 49, -2, -13, -16, -39, 83, 1, -4, 4, -5, -20, 7, 84, 7, -32, -59, 19], "withholdReward": false, "trial_id": "mdp_trial_28", "block": "test", "trialIndex": 35, "score": 96.4, "costs": -5.6, "simulationMode": [null, null, null, null, null], "rewards": [-1, 1, 8, 16, 78], "path": ["0", "0", "1", "2", "3", "8", "11"], "rt": [11641, 602, 686, 53, 34], "actions": ["up", "up", "up", "left", "left"], "actionTimes": [14049, 15189, 16390, 16973, 17541], "queries": {"click": {"state": {"target": ["32", "27", "10", "11"], "time": [3623, 6056, 8221, 10260]}, "edge": {"target": [], "time": []}}, "mouseover": {"state": {"target": ["31", "32", "30", "25", "26", "27", "10", "11", "8", "9", "5", "5", "9"], "time": [2954, 3320, 4280, 4313, 4375, 5468, 6985, 9015, 10787, 11337, 11868, 12335, 12834]}, "edge": {"target": [], "time": []}}, "mouseout": {"state": {"target": ["22", "31", "32", "30", "25", "26", "27", "10", "11", "8", "9", "5", "5"], "time": [951, 3106, 3844, 4308, 4344, 5318, 6830, 8670, 10755, 10953, 11763, 11896, 12518]}, "edge": {"target": [], "time": []}}}, "displayed_time": "18.07", "trialTime": 19377, "trial_type": "mouselab-mdp", "trial_index": 54, "time_elapsed": 1592086, "internal_node_id": "0.0-4.0-1.0-27.0"}}, {"uniqueid": "w16433856:a23820477", "current_trial": 55, "dateTime": 1691161079790, "trialdata": {"revealed_states": [], "clicked_states": ["5", "6", "17", "20", "21"], "num_clicks_accrued": [0, 0, 0, 0, 0, 0, 0, 0, 0, 0, 0, 0, 0], "stateRewards": ["", 1, 4, -8, -5, -15, -7, 21, 13, -30, 40, -65, 1, 1, 5, -14, 35, 27, -38, -11, 36, -58, -47, -2, 4, -3, 13, -16, -49, 22, 15, -56, -44, -10], "withholdReward": false, "trial_id": "mdp_trial_29", "block": "test", "trialIndex": 36, "score": 25, "costs": -7, "simulationMode": [null, null, null, null, null], "rewards": [1, 1, 5, -11, 36], "path": ["0", "0", "12", "13", "14", "19", "20"], "rt": [16607, 431, 201, 105, 120], "actions": ["right", "right", "right", "down", "right"], "actionTimes": [19628, 20580, 21324, 21952, 22599], "queries": {"click": {"state": {"target": ["5", "6", "17", "20", "21"], "time": [4686, 8315, 10308, 13142, 17784]}, "edge": {"target": [], "time": []}}, "mouseover": {"state": {"target": ["4", "5", "5", "4", "4", "6", "17", "20", "20", "20", "16", "15", "14", "21"], "time": [3926, 3971, 4344, 5241, 6376, 8125, 9239, 10827, 11406, 12876, 14306, 15231, 15275, 17175]}, "edge": {"target": [], "time": []}}, "mouseout": {"state": {"target": ["9", "8", "1", "0", "4", "5", "5", "5", "4", "4", "6", "17", "20", "20", "20", "16", "15", "14", "21"], "time": [1425, 1492, 1876, 3878, 3948, 4020, 4918, 5216, 5330, 7893, 8769, 10773, 10879, 12459, 13363, 15211, 15269, 15342, 18263]}, "edge": {"target": [], "time": []}}}, "displayed_time": "23.11", "trialTime": 24260, "trial_type": "mouselab-mdp", "trial_index": 55, "time_elapsed": 1617927, "internal_node_id": "0.0-4.0-1.0-28.0"}}, {"uniqueid": "w16433856:a23820477", "current_trial": 56, "dateTime": 1691161100018, "trialdata": {"revealed_states": [], "clicked_states": ["33", "32"], "num_clicks_accrued": [0, 0, 0, 0, 0, 0, 0, 0, 0, 0, 0, 0, 0], "stateRewards": ["", 2, -2, -8, 9, -20, 55, -58, 14, 42, 2, 36, 1, -3, -5, 5, -58, 57, 60, 16, 57, 30, -70, -2, 1, 3, 10, 59, 23, 77, -13, -26, 88, -72], "withholdReward": false, "trial_id": "mdp_trial_30", "block": "test", "trialIndex": 37, "score": 74.2, "costs": -2.8, "simulationMode": [null, null, null, null, null], "rewards": [-2, 1, 3, -13, 88], "path": ["0", "0", "23", "24", "25", "30", "32"], "rt": [7411, 392, 753, 168, 67], "actions": ["left", "left", "left", "down", "down"], "actionTimes": [9790, 10767, 12259, 12950, 13535], "queries": {"click": {"state": {"target": ["33", "32"], "time": [4347, 6464]}, "edge": {"target": [], "time": []}}, "mouseover": {"state": {"target": ["24", "25", "33", "32", "30", "25", "26", "27"], "time": [2910, 3311, 4012, 5332, 7088, 7172, 7325, 7585]}, "edge": {"target": [], "time": []}}, "mouseout": {"state": {"target": ["20", "13", "1", "1", "24", "25", "33", "32", "30", "25", "26"], "time": [911, 945, 1010, 1264, 3260, 3794, 4964, 6688, 7140, 7200, 7581]}, "edge": {"target": [], "time": []}}}, "displayed_time": "16.38", "trialTime": 18144, "trial_type": "mouselab-mdp", "trial_index": 56, "time_elapsed": 1638156, "internal_node_id": "0.0-4.0-1.0-29.0"}}, {"uniqueid": "w16433856:a23820477", "current_trial": 57, "dateTime": 1691161127741, "trialdata": {"revealed_states": [], "clicked_states": ["31", "28", "11", "22", "5", "6"], "num_clicks_accrued": [0, 0, 0, 0, 0, 0, 0, 0, 0, 0, 0, 0, 0], "stateRewards": ["", -1, 3, 8, 10, -86, 61, -36, 10, 17, -60, 24, -1, -3, 3, 11, 50, 60, 33, -3, -20, 58, -6, 1, -4, -4, 13, -70, -71, 43, 14, 52, 82, -11], "withholdReward": false, "trial_id": "mdp_trial_31", "block": "test", "trialIndex": 38, "score": 72.6, "costs": -8.4, "simulationMode": [null, null, null, null, null], "rewards": [-1, 3, 8, 10, 61], "path": ["0", "0", "1", "2", "3", "4", "6"], "rt": [18174, 65, 314, 196, 117], "actions": ["up", "up", "up", "right", "right"], "actionTimes": [21335, 21913, 22742, 23458, 24093], "queries": {"click": {"state": {"target": ["31", "28", "11", "22", "5", "6"], "time": [4603, 6775, 8936, 11379, 14482, 18134]}, "edge": {"target": [], "time": []}}, "mouseover": {"state": {"target": ["31", "24", "28", "28", "11", "2", "22", "13", "5", "6", "6", "6"], "time": [4255, 5191, 5434, 5812, 7736, 9790, 10679, 12493, 14190, 15197, 16589, 17856]}, "edge": {"target": [], "time": []}}, "mouseout": {"state": {"target": ["27", "0", "0", "31", "24", "28", "28", "11", "2", "22", "13", "5", "6", "6", "6", "6"], "time": [1006, 1106, 1389, 5125, 5410, 5568, 6992, 9679, 9890, 12463, 12552, 15170, 15379, 16789, 18359, 18811]}, "edge": {"target": [], "time": []}}}, "displayed_time": "24.61", "trialTime": 25831, "trial_type": "mouselab-mdp", "trial_index": 57, "time_elapsed": 1665879, "internal_node_id": "0.0-4.0-1.0-30.0"}}, {"uniqueid": "w16433856:a23820477", "current_trial": 58, "dateTime": 1691161149808, "trialdata": {"revealed_states": [], "clicked_states": ["22", "31", "28"], "num_clicks_accrued": [0, 0, 0, 0, 0, 0, 0, 0, 0, 0, 0, 0, 0], "stateRewards": ["", -2, -3, 7, -13, 60, 9, 37, -6, 37, 20, 1, 2, -2, -8, 6, -80, -31, -10, -7, 70, -65, -44, -1, 1, 7, 6, -11, 73, -85, 16, -21, 47, 34], "withholdReward": false, "trial_id": "mdp_trial_32", "block": "test", "trialIndex": 39, "score": 81.8, "costs": -4.199999999999999, "simulationMode": [null, null, null, null, null], "rewards": [-1, 1, 7, 6, 73], "path": ["0", "0", "23", "24", "25", "26", "28"], "rt": [9634, 295, 156, 9, 85], "actions": ["left", "left", "left", "up", "right"], "actionTimes": [11826, 12641, 13334, 13883, 14467], "queries": {"click": {"state": {"target": ["22", "31", "28"], "time": [3686, 6005, 8807]}, "edge": {"target": [], "time": []}}, "mouseover": {"state": {"target": ["12", "19", "22", "31", "24", "28", "23", "1"], "time": [2881, 2964, 3276, 4881, 7536, 8476, 9389, 10289]}, "edge": {"target": [], "time": []}}, "mouseout": {"state": {"target": ["12", "0", "12", "19", "22", "31", "24", "28", "23", "1"], "time": [976, 2877, 2915, 3242, 3903, 7192, 8111, 9339, 9417, 11143]}, "edge": {"target": [], "time": []}}}, "displayed_time": "16.19", "trialTime": 19655, "trial_type": "mouselab-mdp", "trial_index": 58, "time_elapsed": 1687947, "internal_node_id": "0.0-4.0-1.0-31.0"}}, {"uniqueid": "w16433856:a23820477", "current_trial": 59, "dateTime": 1691161172194, "trialdata": {"revealed_states": [], "clicked_states": ["9", "5", "6"], "num_clicks_accrued": [0, 0, 0, 0, 0, 0, 0, 0, 0, 0, 0, 0, 0], "stateRewards": ["", -1, 2, 6, 11, 21, -21, -21, -6, 48, -71, 88, -1, -3, 3, 7, 64, 2, 9, -4, 37, -67, 72, 2, 2, -8, -8, -10, 71, -40, -3, 73, 80, 47], "withholdReward": false, "trial_id": "mdp_trial_33", "block": "test", "trialIndex": 40, "score": 44.8, "costs": -4.199999999999999, "simulationMode": [null, null, null, null, null], "rewards": [-1, 2, 6, -6, 48], "path": ["0", "0", "1", "2", "3", "8", "9"], "rt": [9131, 279, 43, 158, 144], "actions": ["up", "up", "up", "left", "up"], "actionTimes": [12577, 13558, 14219, 14911, 15653], "queries": {"click": {"state": {"target": ["9", "5", "6"], "time": [5414, 7858, 10397]}, "edge": {"target": [], "time": []}}, "mouseover": {"state": {"target": ["1", "2", "3", "9", "5", "6"], "time": [4416, 4479, 4693, 5215, 6276, 8710]}, "edge": {"target": [], "time": []}}, "mouseout": {"state": {"target": ["0", "0", "1", "2", "3", "9", "5", "6"], "time": [1894, 4394, 4450, 4502, 4928, 6188, 8559, 10963]}, "edge": {"target": [], "time": []}}}, "displayed_time": "17.45", "trialTime": 19593, "trial_type": "mouselab-mdp", "trial_index": 59, "time_elapsed": 1710332, "internal_node_id": "0.0-4.0-1.0-32.0"}}, {"uniqueid": "w16433856:a23820477", "current_trial": 60, "dateTime": 1691161195965, "trialdata": {"revealed_states": [], "clicked_states": ["21", "22"], "num_clicks_accrued": [0, 0, 0, 0, 0, 0, 0, 0, 0, 0, 0, 0, 0], "stateRewards": ["", 2, -4, 7, 3, 23, -42, 4, 7, -81, -33, 7, -2, -4, 5, -1, 50, -57, -14, -13, -14, 44, 55, -2, -2, 5, -2, 33, 1, 57, -13, -7, 58, 87], "withholdReward": false, "trial_id": "mdp_trial_34", "block": "test", "trialIndex": 41, "score": 38.2, "costs": -2.8, "simulationMode": [null, null, null, null, null], "rewards": [-2, -4, 5, -13, 55], "path": ["0", "0", "12", "13", "14", "19", "22"], "rt": [7978, 60, 86, 218, 241], "actions": ["right", "right", "right", "down", "left"], "actionTimes": [12607, 13260, 13888, 14642, 15407], "queries": {"click": {"state": {"target": ["21", "22"], "time": [6583, 9132]}, "edge": {"target": [], "time": []}}, "mouseover": {"state": {"target": ["0", "21", "22", "19", "20"], "time": [5791, 6147, 7805, 10363, 10492]}, "edge": {"target": [], "time": []}}, "mouseout": {"state": {"target": ["0", "21", "22", "19"], "time": [5900, 7389, 10336, 10471]}, "edge": {"target": [], "time": []}}}, "displayed_time": "18.63", "trialTime": 19619, "trial_type": "mouselab-mdp", "trial_index": 60, "time_elapsed": 1734104, "internal_node_id": "0.0-4.0-1.0-33.0"}}, {"uniqueid": "w16433856:a23820477", "current_trial": 61, "dateTime": 1691161220549, "trialdata": {"revealed_states": [], "clicked_states": [], "num_clicks_accrued": [0, 0, 0, 0, 0, 0, 0, 0, 0, 0, 0, 0, 0], "stateRewards": ["", -1, 4, -3, 3, 57, -61, 5, -11, 23, -1, 34, -2, -4, -1, -13, 27, 38, -36, 4, -45, 21, 88, 1, -2, -1, 1, -69, -5, -78, -12, -9, 38, -54], "withholdReward": false, "trial_id": "mdp_trial_35", "block": "test", "trialIndex": 42, "score": -58, "costs": 0, "simulationMode": [null, null, null, null, null], "rewards": [-1, 4, -3, 3, -61], "path": ["0", "0", "1", "2", "3", "4", "6"], "rt": [7922, 114, 72, 2248, 8], "actions": ["up", "up", "up", "right", "right"], "actionTimes": [11941, 12373, 12999, 15789, 15889], "queries": {"click": {"state": {"target": [], "time": []}, "edge": {"target": [], "time": []}}, "mouseover": {"state": {"target": ["5"], "time": [9430]}, "edge": {"target": [], "time": []}}, "mouseout": {"state": {"target": ["20", "19", "22", "0"], "time": [840, 866, 896, 5588]}, "edge": {"target": [], "time": []}}}, "displayed_time": "19.80", "trialTime": 22737, "trial_type": "mouselab-mdp", "trial_index": 61, "time_elapsed": 1758687, "internal_node_id": "0.0-4.0-1.0-34.0"}}, {"uniqueid": "w16433856:a23820477", "current_trial": 62, "dateTime": 1691161247158, "trialdata": {"revealed_states": [], "clicked_states": ["27", "28", "33", "32"], "num_clicks_accrued": [0, 0, 0, 0, 0, 0, 0, 0, 0, 0, 0, 0, 0], "stateRewards": ["", -1, 1, 8, -3, -24, 11, -65, -6, -77, 48, 44, -2, 1, -2, -7, -55, -35, 33, 8, -28, 19, -53, -1, -1, -5, -5, -70, 10, 44, 8, -58, -70, 51], "withholdReward": false, "trial_id": "mdp_trial_36", "block": "test", "trialIndex": 43, "score": -74.6, "costs": -5.6, "simulationMode": [null, null, null, null, null], "rewards": [-1, -1, -5, 8, -70], "path": ["0", "0", "23", "24", "25", "30", "32"], "rt": [13634, 433, 303, 204, 58], "actions": ["left", "left", "left", "down", "down"], "actionTimes": [16772, 17720, 18538, 19258, 19870], "queries": {"click": {"state": {"target": ["27", "28", "33", "32"], "time": [5711, 8937, 11189, 13775]}, "edge": {"target": [], "time": []}}, "mouseover": {"state": {"target": ["28", "26", "27", "27", "28", "24", "33", "32", "21", "21"], "time": [3882, 3931, 4240, 4572, 6345, 10012, 10728, 12237, 14926, 15863]}, "edge": {"target": [], "time": []}}, "mouseout": {"state": {"target": ["0", "28", "26", "27", "27", "27", "28", "24", "33", "32", "21"], "time": [3283, 3907, 4218, 4430, 5780, 6242, 9981, 10318, 11900, 14372, 15089]}, "edge": {"target": [], "time": []}}}, "displayed_time": "20.40", "trialTime": 22795, "trial_type": "mouselab-mdp", "trial_index": 62, "time_elapsed": 1785296, "internal_node_id": "0.0-4.0-1.0-35.0"}}, {"uniqueid": "w16433856:a23820477", "current_trial": 63, "dateTime": 1691161271435, "trialdata": {"revealed_states": [], "clicked_states": ["21", "22", "20", "16"], "num_clicks_accrued": [0, 0, 0, 0, 0, 0, 0, 0, 0, 0, 0, 0, 0], "stateRewards": ["", -2, 1, -8, 12, -65, -79, 16, 7, -80, -17, -45, -2, 2, -5, -2, -85, 23, -4, -7, 48, 27, -76, 2, 3, 5, 2, 43, 71, -13, 7, -49, 59, -31], "withholdReward": false, "trial_id": "mdp_trial_37", "block": "test", "trialIndex": 44, "score": 30.4, "costs": -5.6, "simulationMode": [null, null, null, null, null], "rewards": [-2, 2, -5, -7, 48], "path": ["0", "0", "12", "13", "14", "19", "20"], "rt": [10742, 163, 539, 793, 263], "actions": ["right", "right", "right", "down", "right"], "actionTimes": [13258, 13932, 14999, 16334, 17114], "queries": {"click": {"state": {"target": ["21", "22", "20", "16"], "time": [4068, 6093, 8668, 11105]}, "edge": {"target": [], "time": []}}, "mouseover": {"state": {"target": ["13", "14", "19", "21", "22", "20", "15", "16", "16"], "time": [3263, 3346, 3410, 3695, 5009, 7140, 9474, 9514, 10189]}, "edge": {"target": [], "time": []}}, "mouseout": {"state": {"target": ["21", "22", "0", "13", "14", "19", "21", "22", "20", "15", "16", "16"], "time": [869, 969, 2554, 3304, 3376, 3439, 4664, 6627, 9412, 9508, 9574, 11346]}, "edge": {"target": [], "time": []}}}, "displayed_time": "17.65", "trialTime": 22290, "trial_type": "mouselab-mdp", "trial_index": 63, "time_elapsed": 1809574, "internal_node_id": "0.0-4.0-1.0-36.0"}}, {"uniqueid": "w16433856:a23820477", "current_trial": 64, "dateTime": 1691161292594, "trialdata": {"revealed_states": [], "clicked_states": ["5", "6", "16"], "num_clicks_accrued": [0, 0, 0, 0, 0, 0, 0, 0, 0, 0, 0, 0, 0], "stateRewards": ["", 2, -4, -4, 13, -80, 62, 13, -11, 57, -13, -44, 1, 4, 3, -4, -29, -88, 15, 16, -58, 68, -45, -1, -3, -1, -9, -44, -86, -19, -7, -36, 59, 66], "withholdReward": false, "trial_id": "mdp_trial_38", "block": "test", "trialIndex": 45, "score": 64.8, "costs": -4.199999999999999, "simulationMode": [null, null, null, null, null], "rewards": [2, -4, -4, 13, 62], "path": ["0", "0", "1", "2", "3", "4", "6"], "rt": [7976, 589, 372, 138, 152], "actions": ["up", "up", "up", "right", "right"], "actionTimes": [11688, 12822, 13734, 14401, 15071], "queries": {"click": {"state": {"target": ["5", "6", "16"], "time": [5886, 7877, 9815]}, "edge": {"target": [], "time": []}}, "mouseover": {"state": {"target": ["0", "1", "2", "3", "3", "5", "6", "16"], "time": [4325, 4506, 4567, 4606, 4943, 5426, 7130, 8550]}, "edge": {"target": [], "time": []}}, "mouseout": {"state": {"target": ["16", "1", "0", "0", "1", "2", "3", "3", "5", "6", "16"], "time": [2243, 2609, 3912, 4499, 4531, 4598, 4632, 5393, 6803, 8452, 10286]}, "edge": {"target": [], "time": []}}}, "displayed_time": "17.71", "trialTime": 19029, "trial_type": "mouselab-mdp", "trial_index": 64, "time_elapsed": 1830732, "internal_node_id": "0.0-4.0-1.0-37.0"}}, {"uniqueid": "w16433856:a23820477", "current_trial": 65, "dateTime": 1691161312061, "trialdata": {"revealed_states": [], "clicked_states": ["29", "27"], "num_clicks_accrued": [0, 0, 0, 0, 0, 0, 0, 0, 0, 0, 0, 0, 0], "stateRewards": ["", -2, -3, -6, -7, 9, 16, 65, 5, -41, 20, -25, -1, -4, 1, -11, -49, -4, 71, 1, 39, -62, 52, -2, -3, 7, -9, -28, -70, 84, 8, 24, -58, 82], "withholdReward": false, "trial_id": "mdp_trial_39", "block": "test", "trialIndex": 46, "score": 74.2, "costs": -2.8, "simulationMode": [null, null, null, null, null], "rewards": [-2, -3, 7, -9, 84], "path": ["0", "0", "23", "24", "25", "26", "29"], "rt": [5693, 551, 661, 162, 58], "actions": ["left", "left", "left", "up", "left"], "actionTimes": [8006, 9129, 10334, 11078, 11655], "queries": {"click": {"state": {"target": ["29", "27"], "time": [3702, 5987]}, "edge": {"target": [], "time": []}}, "mouseover": {"state": {"target": ["23", "29", "27"], "time": [3041, 3142, 4772]}, "edge": {"target": [], "time": []}}, "mouseout": {"state": {"target": ["15", "23", "29"], "time": [746, 3073, 4266]}, "edge": {"target": [], "time": []}}}, "displayed_time": "16.31", "trialTime": 17797, "trial_type": "mouselab-mdp", "trial_index": 65, "time_elapsed": 1850199, "internal_node_id": "0.0-4.0-1.0-38.0"}}, {"uniqueid": "w16433856:a23820477", "current_trial": 66, "dateTime": 1691161341526, "trialdata": {"revealed_states": [], "clicked_states": ["33", "21", "22", "20", "17", "16"], "num_clicks_accrued": [0, 0, 0, 0, 0, 0, 0, 0, 0, 0, 0, 0, 0], "stateRewards": ["", -2, 2, 2, -6, 9, 37, 50, -13, -7, -18, -75, -2, -4, 4, 7, 23, -57, -66, -7, -81, -48, -76, 1, 1, -8, 1, 51, -2, 70, 14, 59, 71, -37], "withholdReward": false, "trial_id": "mdp_trial_40", "block": "test", "trialIndex": 47, "score": 19.6, "costs": -8.4, "simulationMode": [null, null, null, null, null], "rewards": [-2, -4, 4, 7, 23], "path": ["0", "0", "12", "13", "14", "15", "16"], "rt": [16213, 495, 166, 170, 41], "actions": ["right", "right", "right", "up", "up"], "actionTimes": [20182, 21205, 21892, 22588, 23161], "queries": {"click": {"state": {"target": ["33", "21", "22", "20", "17", "16"], "time": [5324, 8190, 10305, 12310, 15185, 17245]}, "edge": {"target": [], "time": []}}, "mouseover": {"state": {"target": ["24", "25", "33", "21", "22", "19", "20", "17", "16", "15", "14"], "time": [4584, 4653, 5018, 7869, 8862, 10792, 10855, 13109, 15927, 17931, 18092]}, "edge": {"target": [], "time": []}}, "mouseout": {"state": {"target": ["27", "0", "24", "25", "33", "21", "22", "19", "20", "17", "16", "15", "14"], "time": [1719, 4553, 4611, 4677, 5944, 8785, 10786, 10822, 12951, 15897, 17922, 18084, 18215]}, "edge": {"target": [], "time": []}}}, "displayed_time": "23.70", "trialTime": 27458, "trial_type": "mouselab-mdp", "trial_index": 66, "time_elapsed": 1879664, "internal_node_id": "0.0-4.0-1.0-39.0"}}, {"uniqueid": "w16433856:a23820477", "current_trial": 67, "dateTime": 1691161395450, "trialdata": {"rt": 53564, "response": {"Q0": "$-16 to 16", "Q1": "$-4 to $4", "Q2": "$-88 to $88", "Q3": "The cost was always $1.4.", "Q4": "Very motivated"}, "question_order": [0, 1, 2, 3, 4], "trial_id": "final_quiz_control", "trial_type": "survey-multi-choice", "trial_index": 67, "time_elapsed": 1933589, "internal_node_id": "0.0-4.0-2.0"}}, {"uniqueid": "w16433856:a23820477", "current_trial": 68, "dateTime": 1691161457591, "trialdata": {"rt": 61820, "response": {"Q0": "reveal the last nodes in each step", "Q1": "yes went for nodes low score", "Q2": "time"}, "trial_id": "self_report_control", "trial_type": "survey-text", "trial_index": 68, "time_elapsed": 1995730, "internal_node_id": "0.0-4.0-3.0"}}, {"uniqueid": "w16433856:a23820477", "current_trial": 69, "dateTime": 1691161499787, "trialdata": {"rt": 42013, "response": {"gender": "male", "age": "22", "colorblind": "0", "effort": "0"}, "trial_type": "survey-html-form", "trial_index": 69, "time_elapsed": 2037926, "internal_node_id": "0.0-4.0-4.0"}}, {"uniqueid": "w16433856:a23820477", "current_trial": 70, "dateTime": 1691161550656, "trialdata": {"rt": 50824, "response": {"Q0": "at first, yes", "Q1": "no", "Q2": "none"}, "trial_type": "survey-text", "trial_index": 70, "time_elapsed": 2088794, "internal_node_id": "0.0-4.0-5.0"}}, {"uniqueid": "w16433856:a23820477", "current_trial": 71, "dateTime": 1691161555153, "trialdata": {"rt": 4478, "stimulus": "Press 'Finish HIT' in order to reach the completion code. Once the data has been saved, you will receive the code either in this window or in the original browser window where you started the experiment.\n", "response": 0, "trial_type": "html-button-response", "trial_index": 71, "time_elapsed": 2093292, "internal_node_id": "0.0-5.0"}}, {"uniqueid": "w16433856:a23820477", "current_trial": 72, "dateTime": 1691161556167, "trialdata": {"success": true, "trial_type": "fullscreen", "trial_index": 72, "time_elapsed": 2094306, "internal_node_id": "0.0-6.0"}}], "questiondata": {"params": {"CODE": "C6DMOQA6", "MIN_TIME": 14, "inspectCost": 1, "startTime": "Fri Aug 04 2023 16:30:59 GMT+0200 (South Africa Standard Time)", "bonusRate": 0.002, "variance": "1_2_4_8_44", "branching": "31123"}}, "eventdata": [{"eventtype": "initialized", "value": null, "timestamp": 1691159458463, "interval": 0}, {"eventtype": "window_resize", "value": [1024, 646], "timestamp": 1691159458463, "interval": 0}, {"eventtype": "window_resize", "value": [1024, 646], "timestamp": 1691159459050, "interval": 587}, {"eventtype": "window_resize", "value": [1366, 662], "timestamp": 1691159468300, "interval": 9250}, {"eventtype": "window_resize", "value": [1366, 768], "timestamp": 1691159470418, "interval": 2118}, {"eventtype": "focus", "value": "off", "timestamp": 1691159770580, "interval": 300162}, {"eventtype": "focus", "value": "on", "timestamp": 1691159770580, "interval": 0}, {"eventtype": "window_resize", "value": [1366, 662], "timestamp": 1691159770815, "interval": 235}, {"eventtype": "window_resize", "value": [1366, 768], "timestamp": 1691159772938, "interval": 2123}, {"eventtype": "focus", "value": "off", "timestamp": 1691160077462, "interval": 304524}, {"eventtype": "focus", "value": "on", "timestamp": 1691160077462, "interval": 0}, {"eventtype": "window_resize", "value": [1366, 662], "timestamp": 1691160077688, "interval": 226}, {"eventtype": "window_resize", "value": [1366, 768], "timestamp": 1691160079629, "interval": 1941}, {"eventtype": "focus", "value": "off", "timestamp": 1691160327248, "interval": 247619}, {"eventtype": "focus", "value": "on", "timestamp": 1691160327249, "interval": 1}, {"eventtype": "window_resize", "value": [1366, 662], "timestamp": 1691160327482, "interval": 233}, {"eventtype": "window_resize", "value": [1366, 768], "timestamp": 1691160329256, "interval": 1774}, {"eventtype": "focus", "value": "off", "timestamp": 1691161529098, "interval": 1199842}, {"eventtype": "window_resize", "value": [1366, 767], "timestamp": 1691161529892, "interval": 794}, {"eventtype": "focus", "value": "on", "timestamp": 1691161537142, "interval": 7250}, {"eventtype": "window_resize", "value": [1366, 768], "timestamp": 1691161537345, "interval": 203}, {"eventtype": "focus", "value": "off", "timestamp": 1691161544880, "interval": 7535}, {"eventtype": "window_resize", "value": [1366, 767], "timestamp": 1691161545086, "interval": 206}, {"eventtype": "focus", "value": "on", "timestamp": 1691161548985, "interval": 3899}, {"eventtype": "window_resize", "value": [1366, 768], "timestamp": 1691161549208, "interval": 223}, {"eventtype": "window_resize", "value": [1366, 662], "timestamp": 1691161555564, "interval": 6356}], "useragent": "Mozilla/5.0 (Windows NT 10.0; Win64; x64) AppleWebKit/537.36 (KHTML, like Gecko) Chrome/115.0.0.0 Safari/537.36", "mode": "live", "id": "w16433856:a23820477", "status": "user data saved", "Beginhit": "2023-08-04 14:30:56.022995", "Beginexp": "2023-08-04 14:31:12.808554", "Endhit": "2023-08-04 15:05:59.635242", "psiturkStatus": 3, "browser": "<redacted>", "platform": "windows", "language": "en-GB"}